TIME,HELMET_RAW,BELT_ACC_X,BELT_ACC_Y,BELT_ACC_Z,BELT_ANG_X,BELT_ANG_Y,BELT_ANG_Z,BELT_LUMINOSITY,NECK_ACC_X,NECK_ACC_Y,NECK_ACC_Z,NECK_ANG_X,NECK_ANG_Y,NECK_ANG_Z,NECK_LUMINOSITY,PCKT_ACC_X,PCKT_ACC_Y,PCKT_ACC_Z,PCKT_ANG_X,PCKT_ANG_Y,PCKT_ANG_Z,PCKT_LUMINOSITY,WRST_ACC_X,WRST_ACC_Y,WRST_ACC_Z,WRST_ANG_X,WRST_ANG_Y,WRST_ANG_Z,WRST_LUMINOSITY,IR_1,IR_2,IR_3,IR_4
24-May-2018 13:23:22,703.2,0.953614285714286,0.0813142857142857,0.133842857142857,44.0116666666667,5.71033333333333,4.11666666666667,346.068,-1.00916666666667,0.1506,-0.107766666666667,-5.59833333333333,-0.180333333333333,-2.98516666666667,550.131,-0.95695,-0.373625,-0.078125,-0.4245,-4.965,-1.9475,0.041,-0.92078,0.18408,0.1899,-15.5335,-1.5395,-4.7865,661.601333333333,1,1,1,1
24-May-2018 13:23:22,703.2,0.953614285714286,0.0813142857142857,0.133842857142857,44.0116666666667,5.71033333333333,4.11666666666667,346.068,-1.00916666666667,0.1506,-0.107766666666667,-5.59833333333333,-0.180333333333333,-2.98516666666667,550.131,-0.95695,-0.373625,-0.078125,-0.4245,-4.965,-1.9475,0.041,-0.92078,0.18408,0.1899,-15.5335,-1.5395,-4.7865,661.601333333333,1,1,1,1
24-May-2018 13:23:22,703.2,0.953614285714286,0.0813142857142857,0.133842857142857,44.0116666666667,5.71033333333333,4.11666666666667,346.068,-1.00916666666667,0.1506,-0.107766666666667,-5.59833333333333,-0.180333333333333,-2.98516666666667,550.131,-0.95695,-0.373625,-0.078125,-0.4245,-4.965,-1.9475,0.041,-0.92078,0.18408,0.1899,-15.5335,-1.5395,-4.7865,661.601333333333,1,1,1,1
24-May-2018 13:23:22,703.2,0.953614285714286,0.0813142857142857,0.133842857142857,44.0116666666667,5.71033333333333,4.11666666666667,346.068,-1.00916666666667,0.1506,-0.107766666666667,-5.59833333333333,-0.180333333333333,-2.98516666666667,550.131,-0.95695,-0.373625,-0.078125,-0.4245,-4.965,-1.9475,0.041,-0.92078,0.18408,0.1899,-15.5335,-1.5395,-4.7865,661.601333333333,1,1,1,1
24-May-2018 13:23:23,905.3,0.96156,0.01492,0.0901,13.0824285714286,-7.16085714285714,7.838,382.016333333333,-0.99704,0.1756,-0.11238,13.3662857142857,-3.96828571428571,3.59842857142857,552.819,-0.961271428571429,-0.351642857142857,-0.0603142857142857,17.62,6.104,1.50057142857143,0.041,-0.934216666666667,0.0813833333333333,0.179316666666667,-3.26233333333333,5.7725,-2.927,675.2305,1,1,1,1
24-May-2018 13:23:23,905.3,0.96156,0.01492,0.0901,13.0824285714286,-7.16085714285714,7.838,382.016333333333,-0.99704,0.1756,-0.11238,13.3662857142857,-3.96828571428571,3.59842857142857,552.819,-0.961271428571429,-0.351642857142857,-0.0603142857142857,17.62,6.104,1.50057142857143,0.041,-0.934216666666667,0.0813833333333333,0.179316666666667,-3.26233333333333,5.7725,-2.927,675.2305,1,1,1,1
24-May-2018 13:23:23,905.3,0.96156,0.01492,0.0901,13.0824285714286,-7.16085714285714,7.838,382.016333333333,-0.99704,0.1756,-0.11238,13.3662857142857,-3.96828571428571,3.59842857142857,552.819,-0.961271428571429,-0.351642857142857,-0.0603142857142857,17.62,6.104,1.50057142857143,0.041,-0.934216666666667,0.0813833333333333,0.179316666666667,-3.26233333333333,5.7725,-2.927,675.2305,1,1,1,1
24-May-2018 13:23:23,905.3,0.96156,0.01492,0.0901,13.0824285714286,-7.16085714285714,7.838,382.016333333333,-0.99704,0.1756,-0.11238,13.3662857142857,-3.96828571428571,3.59842857142857,552.819,-0.961271428571429,-0.351642857142857,-0.0603142857142857,17.62,6.104,1.50057142857143,0.041,-0.934216666666667,0.0813833333333333,0.179316666666667,-3.26233333333333,5.7725,-2.927,675.2305,1,1,1,1
24-May-2018 13:23:24,689,0.950816666666667,-0.0789,-0.0307,7.14366666666667,0.407333333333333,-0.515666666666667,380.33725,-1.002875,0.1792,-0.101525,1.5275,1.0835,2.516375,552.819,-0.983533333333333,-0.383916666666667,0.0120333333333333,4.42833333333333,0.0371666666666659,7.88683333333333,0.041,-0.940814285714286,-0.00121428571428571,0.149928571428571,34.6545,-6.11783333333333,-8.181,661.785,1,1,1,1
24-May-2018 13:23:24,689,0.950816666666667,-0.0789,-0.0307,7.14366666666667,0.407333333333333,-0.515666666666667,380.33725,-1.002875,0.1792,-0.101525,1.5275,1.0835,2.516375,552.819,-0.983533333333333,-0.383916666666667,0.0120333333333333,4.42833333333333,0.0371666666666659,7.88683333333333,0.041,-0.940814285714286,-0.00121428571428571,0.149928571428571,34.6545,-6.11783333333333,-8.181,661.785,1,1,1,1
24-May-2018 13:23:24,689,0.950816666666667,-0.0789,-0.0307,7.14366666666667,0.407333333333333,-0.515666666666667,380.33725,-1.002875,0.1792,-0.101525,1.5275,1.0835,2.516375,552.819,-0.983533333333333,-0.383916666666667,0.0120333333333333,4.42833333333333,0.0371666666666659,7.88683333333333,0.041,-0.940814285714286,-0.00121428571428571,0.149928571428571,34.6545,-6.11783333333333,-8.181,661.785,1,1,1,1
24-May-2018 13:23:24,689,0.950816666666667,-0.0789,-0.0307,7.14366666666667,0.407333333333333,-0.515666666666667,380.33725,-1.002875,0.1792,-0.101525,1.5275,1.0835,2.516375,552.819,-0.983533333333333,-0.383916666666667,0.0120333333333333,4.42833333333333,0.0371666666666659,7.88683333333333,0.041,-0.940814285714286,-0.00121428571428571,0.149928571428571,34.6545,-6.11783333333333,-8.181,661.785,1,1,1,1
24-May-2018 13:23:25,641,0.958275,0.021925,0.071875,-1.653875,5.4335,-6.595,380.33725,-1.019975,0.169325,-0.084175,5.70433333333333,-14.9175555555556,-9.75133333333333,550.777,-0.91932,-0.40678,0.08114,-75.4285714285714,3.52871428571429,9.978,0.086,-0.91838,-0.02278,0.16724,-35.70875,6.60075,7.8125,632.986,1,1,1,1
24-May-2018 13:23:25,641,0.958275,0.021925,0.071875,-1.653875,5.4335,-6.595,380.33725,-1.019975,0.169325,-0.084175,5.70433333333333,-14.9175555555556,-9.75133333333333,550.777,-0.91932,-0.40678,0.08114,-75.4285714285714,3.52871428571429,9.978,0.086,-0.91838,-0.02278,0.16724,-35.70875,6.60075,7.8125,632.986,1,1,1,1
24-May-2018 13:23:25,641,0.958275,0.021925,0.071875,-1.653875,5.4335,-6.595,380.33725,-1.019975,0.169325,-0.084175,5.70433333333333,-14.9175555555556,-9.75133333333333,550.777,-0.91932,-0.40678,0.08114,-75.4285714285714,3.52871428571429,9.978,0.086,-0.91838,-0.02278,0.16724,-35.70875,6.60075,7.8125,632.986,1,1,1,1
24-May-2018 13:23:25,641,0.958275,0.021925,0.071875,-1.653875,5.4335,-6.595,380.33725,-1.019975,0.169325,-0.084175,5.70433333333333,-14.9175555555556,-9.75133333333333,550.777,-0.91932,-0.40678,0.08114,-75.4285714285714,3.52871428571429,9.978,0.086,-0.91838,-0.02278,0.16724,-35.70875,6.60075,7.8125,632.986,1,1,1,1
24-May-2018 13:23:26,578.333333333333,0.955542857142857,0.106614285714286,0.1346,-17.171,-1.02614285714286,-4.09214285714286,380.33725,-1.008725,-0.036225,-0.03115,39.53,-6.544,-69.9444444444444,549.756,-0.959766666666667,-0.3036,0.175033333333333,-5.52433333333333,-10.5433333333333,9.12666666666667,0.106,-0.9721,-0.162033333333333,-0.0312,-72.9371666666667,-3.7195,3.45516666666667,714.5535,1,1,1,0
24-May-2018 13:23:26,578.333333333333,0.955542857142857,0.106614285714286,0.1346,-17.171,-1.02614285714286,-4.09214285714286,380.33725,-1.008725,-0.036225,-0.03115,39.53,-6.544,-69.9444444444444,549.756,-0.959766666666667,-0.3036,0.175033333333333,-5.52433333333333,-10.5433333333333,9.12666666666667,0.106,-0.9721,-0.162033333333333,-0.0312,-72.9371666666667,-3.7195,3.45516666666667,714.5535,1,1,1,0
24-May-2018 13:23:26,578.333333333333,0.955542857142857,0.106614285714286,0.1346,-17.171,-1.02614285714286,-4.09214285714286,380.33725,-1.008725,-0.036225,-0.03115,39.53,-6.544,-69.9444444444444,549.756,-0.959766666666667,-0.3036,0.175033333333333,-5.52433333333333,-10.5433333333333,9.12666666666667,0.106,-0.9721,-0.162033333333333,-0.0312,-72.9371666666667,-3.7195,3.45516666666667,714.5535,1,1,1,0
24-May-2018 13:23:26,578.333333333333,0.955542857142857,0.106614285714286,0.1346,-17.171,-1.02614285714286,-4.09214285714286,380.33725,-1.008725,-0.036225,-0.03115,39.53,-6.544,-69.9444444444444,549.756,-0.959766666666667,-0.3036,0.175033333333333,-5.52433333333333,-10.5433333333333,9.12666666666667,0.106,-0.9721,-0.162033333333333,-0.0312,-72.9371666666667,-3.7195,3.45516666666667,714.5535,1,1,1,0
24-May-2018 13:23:27,306.1,0.949671428571428,0.0484428571428571,0.1736,17.528,-1.97666666666667,5.74083333333333,380.33725,-1.03075,-0.0471,-0.018025,42.2425,-18.98875,-10.159625,549.756,-0.6415,-0.03818,0.47176,6.8948,-139.2,58.526,0.106,-0.961633333333333,-0.204066666666667,0.0864666666666667,-12.5,10.2441666666667,0.3965,776.953,1,1,1,1
24-May-2018 13:23:27,306.1,0.949671428571428,0.0484428571428571,0.1736,17.528,-1.97666666666667,5.74083333333333,380.33725,-1.03075,-0.0471,-0.018025,42.2425,-18.98875,-10.159625,549.756,-0.6415,-0.03818,0.47176,6.8948,-139.2,58.526,0.106,-0.961633333333333,-0.204066666666667,0.0864666666666667,-12.5,10.2441666666667,0.3965,776.953,1,1,1,1
24-May-2018 13:23:27,306.1,0.949671428571428,0.0484428571428571,0.1736,17.528,-1.97666666666667,5.74083333333333,380.33725,-1.03075,-0.0471,-0.018025,42.2425,-18.98875,-10.159625,549.756,-0.6415,-0.03818,0.47176,6.8948,-139.2,58.526,0.106,-0.961633333333333,-0.204066666666667,0.0864666666666667,-12.5,10.2441666666667,0.3965,776.953,1,1,1,1
24-May-2018 13:23:27,306.1,0.949671428571428,0.0484428571428571,0.1736,17.528,-1.97666666666667,5.74083333333333,380.33725,-1.03075,-0.0471,-0.018025,42.2425,-18.98875,-10.159625,549.756,-0.6415,-0.03818,0.47176,6.8948,-139.2,58.526,0.106,-0.961633333333333,-0.204066666666667,0.0864666666666667,-12.5,10.2441666666667,0.3965,776.953,1,1,1,1
24-May-2018 13:23:28,487.285714285714,0.90165,0.152625,0.185325,78.4425,16.64375,13.5525,403.148571428571,-0.97372,-0.1227,0.02968,20.037,-1.45516666666667,-19.5166666666667,545.183,0.2826,0.4731,0.6782,21.7215,-36.23,-1.13166666666667,0.106,-0.912866666666667,-0.248833333333333,0.371033333333333,51.4027142857143,-81.5931428571429,14.5907142857143,712.33,0,0,1,1
24-May-2018 13:23:28,487.285714285714,0.90165,0.152625,0.185325,78.4425,16.64375,13.5525,403.148571428571,-0.97372,-0.1227,0.02968,20.037,-1.45516666666667,-19.5166666666667,545.183,0.2826,0.4731,0.6782,21.7215,-36.23,-1.13166666666667,0.106,-0.912866666666667,-0.248833333333333,0.371033333333333,51.4027142857143,-81.5931428571429,14.5907142857143,712.33,0,0,1,1
24-May-2018 13:23:28,487.285714285714,0.90165,0.152625,0.185325,78.4425,16.64375,13.5525,403.148571428571,-0.97372,-0.1227,0.02968,20.037,-1.45516666666667,-19.5166666666667,545.183,0.2826,0.4731,0.6782,21.7215,-36.23,-1.13166666666667,0.106,-0.912866666666667,-0.248833333333333,0.371033333333333,51.4027142857143,-81.5931428571429,14.5907142857143,712.33,0,0,1,1
24-May-2018 13:23:28,487.285714285714,0.90165,0.152625,0.185325,78.4425,16.64375,13.5525,403.148571428571,-0.97372,-0.1227,0.02968,20.037,-1.45516666666667,-19.5166666666667,545.183,0.2826,0.4731,0.6782,21.7215,-36.23,-1.13166666666667,0.106,-0.912866666666667,-0.248833333333333,0.371033333333333,51.4027142857143,-81.5931428571429,14.5907142857143,712.33,0,0,1,1
24-May-2018 13:23:29,499.444444444444,0.9041,-0.02275,0.16095,45.4,3.08933333333333,2.32666666666667,502.298,-0.963625,-0.2181,0.086,13.89,-8.1184,-19.42,540.61,0.117833333333333,0.589,0.893116666666667,0.0992,-3.994,-3.084,0.106,-0.000799999999999995,-0.0975,0.783128571428571,-30.4024,-17.2196,52.866,878.8595,1,1,1,1
24-May-2018 13:23:29,499.444444444444,0.9041,-0.02275,0.16095,45.4,3.08933333333333,2.32666666666667,502.298,-0.963625,-0.2181,0.086,13.89,-8.1184,-19.42,540.61,0.117833333333333,0.589,0.893116666666667,0.0992,-3.994,-3.084,0.106,-0.000799999999999995,-0.0975,0.783128571428571,-30.4024,-17.2196,52.866,878.8595,1,1,1,1
24-May-2018 13:23:29,499.444444444444,0.9041,-0.02275,0.16095,45.4,3.08933333333333,2.32666666666667,502.298,-0.963625,-0.2181,0.086,13.89,-8.1184,-19.42,540.61,0.117833333333333,0.589,0.893116666666667,0.0992,-3.994,-3.084,0.106,-0.000799999999999995,-0.0975,0.783128571428571,-30.4024,-17.2196,52.866,878.8595,1,1,1,1
24-May-2018 13:23:29,499.444444444444,0.9041,-0.02275,0.16095,45.4,3.08933333333333,2.32666666666667,502.298,-0.963625,-0.2181,0.086,13.89,-8.1184,-19.42,540.61,0.117833333333333,0.589,0.893116666666667,0.0992,-3.994,-3.084,0.106,-0.000799999999999995,-0.0975,0.783128571428571,-30.4024,-17.2196,52.866,878.8595,1,1,1,1
24-May-2018 13:23:30,614,0.89818,0.08044,0.23762,3.07475,-5.554875,-7.8135,560.5145,-0.945325,-0.227525,0.108625,14.7681111111111,4.49911111111111,-5.66366666666667,540.61,0.123833333333333,0.583083333333333,0.88095,-0.6068,-0.119,0.5622,0.106,-0.11325,-0.169083333333333,0.9235,22.561125,4.0395,-0.937625,844.156,0,0,1,1
24-May-2018 13:23:30,614,0.89818,0.08044,0.23762,3.07475,-5.554875,-7.8135,560.5145,-0.945325,-0.227525,0.108625,14.7681111111111,4.49911111111111,-5.66366666666667,540.61,0.123833333333333,0.583083333333333,0.88095,-0.6068,-0.119,0.5622,0.106,-0.11325,-0.169083333333333,0.9235,22.561125,4.0395,-0.937625,844.156,0,0,1,1
24-May-2018 13:23:30,614,0.89818,0.08044,0.23762,3.07475,-5.554875,-7.8135,560.5145,-0.945325,-0.227525,0.108625,14.7681111111111,4.49911111111111,-5.66366666666667,540.61,0.123833333333333,0.583083333333333,0.88095,-0.6068,-0.119,0.5622,0.106,-0.11325,-0.169083333333333,0.9235,22.561125,4.0395,-0.937625,844.156,0,0,1,1
24-May-2018 13:23:30,614,0.89818,0.08044,0.23762,3.07475,-5.554875,-7.8135,560.5145,-0.945325,-0.227525,0.108625,14.7681111111111,4.49911111111111,-5.66366666666667,540.61,0.123833333333333,0.583083333333333,0.88095,-0.6068,-0.119,0.5622,0.106,-0.11325,-0.169083333333333,0.9235,22.561125,4.0395,-0.937625,844.156,0,0,1,1
24-May-2018 13:23:31,498.9,0.45578,-0.04908,0.70582,-18.9203333333333,75.2763333333333,24.58,149.6315,-0.973725,-0.21535,0.08955,-3.8225,7.8505,9.838625,610.249,0.122916666666667,0.5836,0.8803,-0.432333333333333,-1.245,-0.861666666666667,0.106,-0.127385714285714,-0.247542857142857,0.967814285714286,0.487833333333333,1.30083333333333,-0.619833333333333,846.62675,1,1,1,1
24-May-2018 13:23:31,498.9,0.45578,-0.04908,0.70582,-18.9203333333333,75.2763333333333,24.58,149.6315,-0.973725,-0.21535,0.08955,-3.8225,7.8505,9.838625,610.249,0.122916666666667,0.5836,0.8803,-0.432333333333333,-1.245,-0.861666666666667,0.106,-0.127385714285714,-0.247542857142857,0.967814285714286,0.487833333333333,1.30083333333333,-0.619833333333333,846.62675,1,1,1,1
24-May-2018 13:23:31,498.9,0.45578,-0.04908,0.70582,-18.9203333333333,75.2763333333333,24.58,149.6315,-0.973725,-0.21535,0.08955,-3.8225,7.8505,9.838625,610.249,0.122916666666667,0.5836,0.8803,-0.432333333333333,-1.245,-0.861666666666667,0.106,-0.127385714285714,-0.247542857142857,0.967814285714286,0.487833333333333,1.30083333333333,-0.619833333333333,846.62675,1,1,1,1
24-May-2018 13:23:31,498.9,0.45578,-0.04908,0.70582,-18.9203333333333,75.2763333333333,24.58,149.6315,-0.973725,-0.21535,0.08955,-3.8225,7.8505,9.838625,610.249,0.122916666666667,0.5836,0.8803,-0.432333333333333,-1.245,-0.861666666666667,0.106,-0.127385714285714,-0.247542857142857,0.967814285714286,0.487833333333333,1.30083333333333,-0.619833333333333,846.62675,1,1,1,1
