TIME,HELMET_RAW,BELT_ACC_X,BELT_ACC_Y,BELT_ACC_Z,BELT_ANG_X,BELT_ANG_Y,BELT_ANG_Z,BELT_LUMINOSITY,NECK_ACC_X,NECK_ACC_Y,NECK_ACC_Z,NECK_ANG_X,NECK_ANG_Y,NECK_ANG_Z,NECK_LUMINOSITY,PCKT_ACC_X,PCKT_ACC_Y,PCKT_ACC_Z,PCKT_ANG_X,PCKT_ANG_Y,PCKT_ANG_Z,PCKT_LUMINOSITY,WRST_ACC_X,WRST_ACC_Y,WRST_ACC_Z,WRST_ANG_X,WRST_ANG_Y,WRST_ANG_Z,WRST_LUMINOSITY,IR_1,IR_2,IR_3,IR_4
24-May-2018 13:22:50,-786.3,0.8922,0.0351142857142857,0.179828571428571,63.6133333333333,-6.51416666666667,17.0806666666667,509.356,-1.008875,-0.04955,-0.03275,-32.55,13.3572222222222,64.3811111111111,529.003666666667,-1.0531,0.069,0.07028,4.407,-20.125,10.4865,0.126,-0.8298,-0.16418,-0.03314,37.4827142857143,8.50157142857143,6.01042857142857,720.91575,1,1,1,0
24-May-2018 13:22:50,-786.3,0.8922,0.0351142857142857,0.179828571428571,63.6133333333333,-6.51416666666667,17.0806666666667,509.356,-1.008875,-0.04955,-0.03275,-32.55,13.3572222222222,64.3811111111111,529.003666666667,-1.0531,0.069,0.07028,4.407,-20.125,10.4865,0.126,-0.8298,-0.16418,-0.03314,37.4827142857143,8.50157142857143,6.01042857142857,720.91575,1,1,1,0
24-May-2018 13:22:50,-786.3,0.8922,0.0351142857142857,0.179828571428571,63.6133333333333,-6.51416666666667,17.0806666666667,509.356,-1.008875,-0.04955,-0.03275,-32.55,13.3572222222222,64.3811111111111,529.003666666667,-1.0531,0.069,0.07028,4.407,-20.125,10.4865,0.126,-0.8298,-0.16418,-0.03314,37.4827142857143,8.50157142857143,6.01042857142857,720.91575,1,1,1,0
24-May-2018 13:22:50,-786.3,0.8922,0.0351142857142857,0.179828571428571,63.6133333333333,-6.51416666666667,17.0806666666667,509.356,-1.008875,-0.04955,-0.03275,-32.55,13.3572222222222,64.3811111111111,529.003666666667,-1.0531,0.069,0.07028,4.407,-20.125,10.4865,0.126,-0.8298,-0.16418,-0.03314,37.4827142857143,8.50157142857143,6.01042857142857,720.91575,1,1,1,0
24-May-2018 13:22:51,-1586.28571428571,0.949783333333333,0.00868333333333333,0.181383333333333,22.8452857142857,4.16414285714286,-0.111428571428572,589.323,-1.01345,0.128,-0.089625,-51.6,19.9698571428571,53.41,506.127,-0.31285,0.166275,0.647525,-2.95,-109.9,90.8866666666667,0.127,-0.54084,-0.34488,0.6989,-36.1092,-90.6098,3.2194,748.5805,0,1,1,0
24-May-2018 13:22:51,-1586.28571428571,0.949783333333333,0.00868333333333333,0.181383333333333,22.8452857142857,4.16414285714286,-0.111428571428572,589.323,-1.01345,0.128,-0.089625,-51.6,19.9698571428571,53.41,506.127,-0.31285,0.166275,0.647525,-2.95,-109.9,90.8866666666667,0.127,-0.54084,-0.34488,0.6989,-36.1092,-90.6098,3.2194,748.5805,0,1,1,0
24-May-2018 13:22:51,-1586.28571428571,0.949783333333333,0.00868333333333333,0.181383333333333,22.8452857142857,4.16414285714286,-0.111428571428572,589.323,-1.01345,0.128,-0.089625,-51.6,19.9698571428571,53.41,506.127,-0.31285,0.166275,0.647525,-2.95,-109.9,90.8866666666667,0.127,-0.54084,-0.34488,0.6989,-36.1092,-90.6098,3.2194,748.5805,0,1,1,0
24-May-2018 13:22:51,-1586.28571428571,0.949783333333333,0.00868333333333333,0.181383333333333,22.8452857142857,4.16414285714286,-0.111428571428572,589.323,-1.01345,0.128,-0.089625,-51.6,19.9698571428571,53.41,506.127,-0.31285,0.166275,0.647525,-2.95,-109.9,90.8866666666667,0.127,-0.54084,-0.34488,0.6989,-36.1092,-90.6098,3.2194,748.5805,0,1,1,0
24-May-2018 13:22:52,-1527,0.94235,0.0191333333333333,0.152483333333333,-4.00414285714286,68.196,22.6614285714286,394.5115,-1.00112,0.20956,-0.12628,-30.6555555555556,12.6988888888889,25.8555555555556,506.127,0.405175,0.86555,0.6332,34.4683333333333,21.8516666666667,7.07,0.0373333333333333,0.0136,-0.827533333333333,0.4852,23.1098333333333,16.7481666666667,-1.37216666666667,647.216,1,1,0,0
24-May-2018 13:22:52,-1527,0.94235,0.0191333333333333,0.152483333333333,-4.00414285714286,68.196,22.6614285714286,394.5115,-1.00112,0.20956,-0.12628,-30.6555555555556,12.6988888888889,25.8555555555556,506.127,0.405175,0.86555,0.6332,34.4683333333333,21.8516666666667,7.07,0.0373333333333333,0.0136,-0.827533333333333,0.4852,23.1098333333333,16.7481666666667,-1.37216666666667,647.216,1,1,0,0
24-May-2018 13:22:52,-1527,0.94235,0.0191333333333333,0.152483333333333,-4.00414285714286,68.196,22.6614285714286,394.5115,-1.00112,0.20956,-0.12628,-30.6555555555556,12.6988888888889,25.8555555555556,506.127,0.405175,0.86555,0.6332,34.4683333333333,21.8516666666667,7.07,0.0373333333333333,0.0136,-0.827533333333333,0.4852,23.1098333333333,16.7481666666667,-1.37216666666667,647.216,1,1,0,0
24-May-2018 13:22:52,-1527,0.94235,0.0191333333333333,0.152483333333333,-4.00414285714286,68.196,22.6614285714286,394.5115,-1.00112,0.20956,-0.12628,-30.6555555555556,12.6988888888889,25.8555555555556,506.127,0.405175,0.86555,0.6332,34.4683333333333,21.8516666666667,7.07,0.0373333333333333,0.0136,-0.827533333333333,0.4852,23.1098333333333,16.7481666666667,-1.37216666666667,647.216,1,1,0,0
24-May-2018 13:22:53,-1021.9,-0.47648,-0.03126,0.75156,-4.014375,35.718875,3.59775,394.5115,-0.97865,0.27025,-0.125775,0.614666666666667,0.558444444444444,12.0117777777778,527.402,0.16212,0.7898,0.66376,-0.99,0.0285714285714285,-1.03271428571429,0.0373333333333333,0.0961,-0.854533333333333,0.524183333333333,0.914428571428571,0.226428571428571,0.104428571428571,500.188,0,0,1,1
24-May-2018 13:22:53,-1021.9,-0.47648,-0.03126,0.75156,-4.014375,35.718875,3.59775,394.5115,-0.97865,0.27025,-0.125775,0.614666666666667,0.558444444444444,12.0117777777778,527.402,0.16212,0.7898,0.66376,-0.99,0.0285714285714285,-1.03271428571429,0.0373333333333333,0.0961,-0.854533333333333,0.524183333333333,0.914428571428571,0.226428571428571,0.104428571428571,500.188,0,0,1,1
24-May-2018 13:22:53,-1021.9,-0.47648,-0.03126,0.75156,-4.014375,35.718875,3.59775,394.5115,-0.97865,0.27025,-0.125775,0.614666666666667,0.558444444444444,12.0117777777778,527.402,0.16212,0.7898,0.66376,-0.99,0.0285714285714285,-1.03271428571429,0.0373333333333333,0.0961,-0.854533333333333,0.524183333333333,0.914428571428571,0.226428571428571,0.104428571428571,500.188,0,0,1,1
24-May-2018 13:22:53,-1021.9,-0.47648,-0.03126,0.75156,-4.014375,35.718875,3.59775,394.5115,-0.97865,0.27025,-0.125775,0.614666666666667,0.558444444444444,12.0117777777778,527.402,0.16212,0.7898,0.66376,-0.99,0.0285714285714285,-1.03271428571429,0.0373333333333333,0.0961,-0.854533333333333,0.524183333333333,0.914428571428571,0.226428571428571,0.104428571428571,500.188,0,0,1,1
24-May-2018 13:22:54,-1119.3,-0.3584,-0.0917,0.972766666666667,1.64625,-0.546625,1.014375,394.5115,-0.9767,0.297025,-0.131725,-0.730374999999999,5.008125,5.723875,548.677,0.127083333333333,0.78415,0.670483333333333,-0.5625,-1.155,-0.5,0.0373333333333333,0.09126,-0.84554,0.5375,1.61157142857143,0.749285714285714,-0.0261428571428572,507.6675,0,0,1,1
24-May-2018 13:22:54,-1119.3,-0.3584,-0.0917,0.972766666666667,1.64625,-0.546625,1.014375,394.5115,-0.9767,0.297025,-0.131725,-0.730374999999999,5.008125,5.723875,548.677,0.127083333333333,0.78415,0.670483333333333,-0.5625,-1.155,-0.5,0.0373333333333333,0.09126,-0.84554,0.5375,1.61157142857143,0.749285714285714,-0.0261428571428572,507.6675,0,0,1,1
24-May-2018 13:22:54,-1119.3,-0.3584,-0.0917,0.972766666666667,1.64625,-0.546625,1.014375,0,-0.9767,0.297025,-0.131725,-0.730374999999999,5.008125,5.723875,548.677,0.127083333333333,0.78415,0.670483333333333,-0.5625,-1.155,-0.5,0.0373333333333333,0.09126,-0.84554,0.5375,1.61157142857143,0.749285714285714,-0.0261428571428572,507.6675,0,0,1,1
24-May-2018 13:22:54,-1119.3,-0.3584,-0.0917,0.972766666666667,1.64625,-0.546625,1.014375,0,-0.9767,0.297025,-0.131725,-0.730374999999999,5.008125,5.723875,548.677,0.127083333333333,0.78415,0.670483333333333,-0.5625,-1.155,-0.5,0.0373333333333333,0.09126,-0.84554,0.5375,1.61157142857143,0.749285714285714,-0.0261428571428572,507.6675,0,0,1,1
24-May-2018 13:22:55,-1323.4,-0.33564,-0.07508,0.9852,1.02842857142857,-0.492714285714286,0.514142857142857,801.084,-0.96726,0.31156,-0.14258,6.89711111111111,-0.783,3.46888888888889,548.677,0.124,0.78482,0.6742,-0.625,-0.931666666666667,-0.391666666666667,0.0373333333333333,0.08998,-0.84476,0.53734,0.9024,0.4392,-0.061,511.745,1,1,1,1
24-May-2018 13:22:55,-1323.4,-0.33564,-0.07508,0.9852,1.02842857142857,-0.492714285714286,0.514142857142857,801.084,-0.96726,0.31156,-0.14258,6.89711111111111,-0.783,3.46888888888889,548.677,0.124,0.78482,0.6742,-0.625,-0.931666666666667,-0.391666666666667,0.0373333333333333,0.08998,-0.84476,0.53734,0.9024,0.4392,-0.061,511.745,1,1,1,1
24-May-2018 13:22:55,-1323.4,-0.33564,-0.07508,0.9852,1.02842857142857,-0.492714285714286,0.514142857142857,801.084,-0.96726,0.31156,-0.14258,6.89711111111111,-0.783,3.46888888888889,548.677,0.124,0.78482,0.6742,-0.625,-0.931666666666667,-0.391666666666667,0.0373333333333333,0.08998,-0.84476,0.53734,0.9024,0.4392,-0.061,511.745,1,1,1,1
24-May-2018 13:22:55,-1323.4,-0.33564,-0.07508,0.9852,1.02842857142857,-0.492714285714286,0.514142857142857,801.084,-0.96726,0.31156,-0.14258,6.89711111111111,-0.783,3.46888888888889,548.677,0.124,0.78482,0.6742,-0.625,-0.931666666666667,-0.391666666666667,0.0373333333333333,0.08998,-0.84476,0.53734,0.9024,0.4392,-0.061,511.745,1,1,1,1
24-May-2018 13:22:56,-1419.4,-0.3378,-0.0715,0.9838,0.183,1.311,0.1525,805.37,-0.9603,0.3297,-0.1472,3.821,0.895666666666667,2.03266666666667,548.677,0.1229,0.7882,0.6769,-0.365,-1.64,-0.7,0.0373333333333333,0.0908,-0.843433333333333,0.536233333333333,0.549,0.244,-0.183,512.1,0,0,1,1
24-May-2018 13:22:56,-1419.4,-0.3378,-0.0715,0.9838,0.183,1.311,0.1525,805.37,-0.9603,0.3297,-0.1472,3.821,0.895666666666667,2.03266666666667,548.677,0.1229,0.7882,0.6769,-0.365,-1.64,-0.7,0.0373333333333333,0.0908,-0.843433333333333,0.536233333333333,0.549,0.244,-0.183,512.1,0,0,1,1
24-May-2018 13:22:56,-1419.4,-0.3378,-0.0715,0.9838,0.183,1.311,0.1525,805.37,-0.9603,0.3297,-0.1472,3.821,0.895666666666667,2.03266666666667,548.677,0.1229,0.7882,0.6769,-0.365,-1.64,-0.7,0.0373333333333333,0.0908,-0.843433333333333,0.536233333333333,0.549,0.244,-0.183,512.1,0,0,1,1
24-May-2018 13:22:56,-1419.4,-0.3378,-0.0715,0.9838,0.183,1.311,0.1525,805.37,-0.9603,0.3297,-0.1472,3.821,0.895666666666667,2.03266666666667,548.677,0.1229,0.7882,0.6769,-0.365,-1.64,-0.7,0.0373333333333333,0.0908,-0.843433333333333,0.536233333333333,0.549,0.244,-0.183,512.1,0,0,1,1
24-May-2018 13:22:57,-1217.09090909091,-0.34275,-0.07615,0.9803,0.630333333333333,0.469333333333333,0.305,805.3415,-0.967866666666667,0.3161,-0.147,1.5262,2.4024,-0.6412,548.677,0.122725,0.78755,0.67165,-0.563333333333333,-1.09333333333333,-0.846666666666667,0.0373333333333333,0.0917666666666667,-0.8471,0.536266666666667,0.650666666666667,0.345666666666667,-0.101666666666667,511.891666666667,1,1,1,1
24-May-2018 13:22:57,-1217.09090909091,-0.34275,-0.07615,0.9803,0.630333333333333,0.469333333333333,0.305,805.3415,-0.967866666666667,0.3161,-0.147,1.5262,2.4024,-0.6412,548.677,0.122725,0.78755,0.67165,-0.563333333333333,-1.09333333333333,-0.846666666666667,0.0373333333333333,0.0917666666666667,-0.8471,0.536266666666667,0.650666666666667,0.345666666666667,-0.101666666666667,511.891666666667,1,1,1,1
24-May-2018 13:22:57,-1217.09090909091,-0.34275,-0.07615,0.9803,0.630333333333333,0.469333333333333,0.305,805.3415,-0.967866666666667,0.3161,-0.147,1.5262,2.4024,-0.6412,548.677,0.122725,0.78755,0.67165,-0.563333333333333,-1.09333333333333,-0.846666666666667,0.0373333333333333,0.0917666666666667,-0.8471,0.536266666666667,0.650666666666667,0.345666666666667,-0.101666666666667,511.891666666667,1,1,1,1
24-May-2018 13:22:57,-1217.09090909091,-0.34275,-0.07615,0.9803,0.630333333333333,0.469333333333333,0.305,805.3415,-0.967866666666667,0.3161,-0.147,1.5262,2.4024,-0.6412,548.677,0.122725,0.78755,0.67165,-0.563333333333333,-1.09333333333333,-0.846666666666667,0.0373333333333333,0.0917666666666667,-0.8471,0.536266666666667,0.650666666666667,0.345666666666667,-0.101666666666667,511.891666666667,1,1,1,1
24-May-2018 13:22:58,-1098.75,-0.335566666666667,-0.0711,0.988966666666667,0.549,-0.76,0.183,803.517,-0.96475,0.32505,-0.14975,0.6848,1.4024,-1.0084,545.763,0.120166666666667,0.787133333333333,0.6723,-0.545,-1.155,-0.5275,0.0373333333333333,0.0882,-0.8443,0.540875,0.53375,0.7625,-0.28975,512.0725,1,1,1,1
24-May-2018 13:22:58,-1098.75,-0.335566666666667,-0.0711,0.988966666666667,0.549,-0.76,0.183,803.517,-0.96475,0.32505,-0.14975,0.6848,1.4024,-1.0084,545.763,0.120166666666667,0.787133333333333,0.6723,-0.545,-1.155,-0.5275,0.0373333333333333,0.0882,-0.8443,0.540875,0.53375,0.7625,-0.28975,512.0725,1,1,1,1
24-May-2018 13:22:58,-1098.75,-0.335566666666667,-0.0711,0.988966666666667,0.549,-0.76,0.183,803.517,-0.96475,0.32505,-0.14975,0.6848,1.4024,-1.0084,545.763,0.120166666666667,0.787133333333333,0.6723,-0.545,-1.155,-0.5275,0.0373333333333333,0.0882,-0.8443,0.540875,0.53375,0.7625,-0.28975,512.0725,1,1,1,1
24-May-2018 13:22:58,-1098.75,-0.335566666666667,-0.0711,0.988966666666667,0.549,-0.76,0.183,803.517,-0.96475,0.32505,-0.14975,0.6848,1.4024,-1.0084,545.763,0.120166666666667,0.787133333333333,0.6723,-0.545,-1.155,-0.5275,0.0373333333333333,0.0882,-0.8443,0.540875,0.53375,0.7625,-0.28975,512.0725,1,1,1,1
24-May-2018 13:22:59,-999.777777777778,-0.3252,-0.0676666666666667,0.990566666666667,0.447666666666667,0.529666666666667,0.284666666666667,792.216,-0.97098,0.3196,-0.15844,13.0408888888889,-2.92188888888889,10.2217777777778,545.763,0.111971428571429,0.804942857142857,0.667228571428571,2.45133333333333,0.7875,1.46683333333333,0.0373333333333333,0.126175,-0.657875,0.5781,67.645,8.772875,-5.182875,522.112,1,1,1,1
24-May-2018 13:22:59,-999.777777777778,-0.3252,-0.0676666666666667,0.990566666666667,0.447666666666667,0.529666666666667,0.284666666666667,792.216,-0.97098,0.3196,-0.15844,13.0408888888889,-2.92188888888889,10.2217777777778,545.763,0.111971428571429,0.804942857142857,0.667228571428571,2.45133333333333,0.7875,1.46683333333333,0.0373333333333333,0.126175,-0.657875,0.5781,67.645,8.772875,-5.182875,522.112,1,1,1,1
24-May-2018 13:22:59,-999.777777777778,-0.3252,-0.0676666666666667,0.990566666666667,0.447666666666667,0.529666666666667,0.284666666666667,792.216,-0.97098,0.3196,-0.15844,13.0408888888889,-2.92188888888889,10.2217777777778,545.763,0.111971428571429,0.804942857142857,0.667228571428571,2.45133333333333,0.7875,1.46683333333333,0.0373333333333333,0.126175,-0.657875,0.5781,67.645,8.772875,-5.182875,522.112,1,1,1,1
24-May-2018 13:22:59,-999.777777777778,-0.3252,-0.0676666666666667,0.990566666666667,0.447666666666667,0.529666666666667,0.284666666666667,792.216,-0.97098,0.3196,-0.15844,13.0408888888889,-2.92188888888889,10.2217777777778,545.763,0.111971428571429,0.804942857142857,0.667228571428571,2.45133333333333,0.7875,1.46683333333333,0.0373333333333333,0.126175,-0.657875,0.5781,67.645,8.772875,-5.182875,522.112,1,1,1,1
