TIME,HELMET_RAW,BELT_ACC_X,BELT_ACC_Y,BELT_ACC_Z,BELT_ANG_X,BELT_ANG_Y,BELT_ANG_Z,BELT_LUMINOSITY,NECK_ACC_X,NECK_ACC_Y,NECK_ACC_Z,NECK_ANG_X,NECK_ANG_Y,NECK_ANG_Z,NECK_LUMINOSITY,PCKT_ACC_X,PCKT_ACC_Y,PCKT_ACC_Z,PCKT_ANG_X,PCKT_ANG_Y,PCKT_ANG_Z,PCKT_LUMINOSITY,WRST_ACC_X,WRST_ACC_Y,WRST_ACC_Z,WRST_ANG_X,WRST_ANG_Y,WRST_ANG_Z,WRST_LUMINOSITY,IR_1,IR_2,IR_3,IR_4
24-May-2018 13:22:28,44.5555555555556,0.851625,0.01565,-0.43485,1.05716666666667,1.22966666666667,0.072,40.8572,-0.946575,-0.316875,0.09245,-9.89166666666667,-4.06166666666667,-2.57666666666667,514.133,-0.22112,0.96736,0.1954,-8.294,15.22,1.733,0.062,-0.37425,-0.2030125,0.91605,-6.488,10.366,11.2072,648.224333333333,1,1,1,1
24-May-2018 13:22:28,44.5555555555556,0.851625,0.01565,-0.43485,1.05716666666667,1.22966666666667,0.072,40.8572,-0.946575,-0.316875,0.09245,-9.89166666666667,-4.06166666666667,-2.57666666666667,514.133,-0.22112,0.96736,0.1954,-8.294,15.22,1.733,0.062,-0.37425,-0.2030125,0.91605,-6.488,10.366,11.2072,648.224333333333,1,1,1,1
24-May-2018 13:22:28,44.5555555555556,0.851625,0.01565,-0.43485,1.05716666666667,1.22966666666667,0.072,40.8572,-0.946575,-0.316875,0.09245,-9.89166666666667,-4.06166666666667,-2.57666666666667,514.133,-0.22112,0.96736,0.1954,-8.294,15.22,1.733,0.062,-0.37425,-0.2030125,0.91605,-6.488,10.366,11.2072,648.224333333333,1,1,1,1
24-May-2018 13:22:28,44.5555555555556,0.851625,0.01565,-0.43485,1.05716666666667,1.22966666666667,0.072,40.8572,-0.946575,-0.316875,0.09245,-9.89166666666667,-4.06166666666667,-2.57666666666667,514.133,-0.22112,0.96736,0.1954,-8.294,15.22,1.733,0.062,-0.37425,-0.2030125,0.91605,-6.488,10.366,11.2072,648.224333333333,1,1,1,1
24-May-2018 13:22:29,56.4444444444444,0.918216666666667,-0.04665,-0.270716666666667,19.813,10.8535,-2.1725,47.3196666666667,-0.91585,-0.335025,0.09205,-44.6,-1.00888888888889,31.42,517.723,-0.38522,0.8602,0.19634,-34.2875,56.171625,4.945625,0.062,-0.78195,-0.183466666666667,0.320283333333333,-108.412142857143,26.2197142857143,24.5032857142857,646.268,1,1,1,1
24-May-2018 13:22:29,56.4444444444444,0.918216666666667,-0.04665,-0.270716666666667,19.813,10.8535,-2.1725,47.3196666666667,-0.91585,-0.335025,0.09205,-44.6,-1.00888888888889,31.42,517.723,-0.38522,0.8602,0.19634,-34.2875,56.171625,4.945625,0.062,-0.78195,-0.183466666666667,0.320283333333333,-108.412142857143,26.2197142857143,24.5032857142857,646.268,1,1,1,1
24-May-2018 13:22:29,56.4444444444444,0.918216666666667,-0.04665,-0.270716666666667,19.813,10.8535,-2.1725,47.3196666666667,-0.91585,-0.335025,0.09205,-44.6,-1.00888888888889,31.42,517.723,-0.38522,0.8602,0.19634,-34.2875,56.171625,4.945625,0.062,-0.78195,-0.183466666666667,0.320283333333333,-108.412142857143,26.2197142857143,24.5032857142857,646.268,1,1,1,1
24-May-2018 13:22:29,56.4444444444444,0.918216666666667,-0.04665,-0.270716666666667,19.813,10.8535,-2.1725,47.3196666666667,-0.91585,-0.335025,0.09205,-44.6,-1.00888888888889,31.42,517.723,-0.38522,0.8602,0.19634,-34.2875,56.171625,4.945625,0.062,-0.78195,-0.183466666666667,0.320283333333333,-108.412142857143,26.2197142857143,24.5032857142857,646.268,1,1,1,1
24-May-2018 13:22:30,41.6666666666667,0.9102625,-0.1693875,-0.2227375,35.47,-5.0682,-10.3876,62.1743333333333,-0.96295,-0.16925,0.024625,-50.20875,31.170875,117.3625,519.518,-0.349375,0.8371,0.016125,-18.6683333333333,70.9758333333333,13.4381666666667,0.062,-0.946066666666667,-0.0906,0.0902666666666667,-55.8935,-1.98166666666667,-5.44716666666667,636.416333333333,1,1,1,1
24-May-2018 13:22:30,41.6666666666667,0.9102625,-0.1693875,-0.2227375,35.47,-5.0682,-10.3876,62.1743333333333,-0.96295,-0.16925,0.024625,-50.20875,31.170875,117.3625,519.518,-0.349375,0.8371,0.016125,-18.6683333333333,70.9758333333333,13.4381666666667,0.062,-0.946066666666667,-0.0906,0.0902666666666667,-55.8935,-1.98166666666667,-5.44716666666667,636.416333333333,1,1,1,1
24-May-2018 13:22:30,41.6666666666667,0.9102625,-0.1693875,-0.2227375,35.47,-5.0682,-10.3876,62.1743333333333,-0.96295,-0.16925,0.024625,-50.20875,31.170875,117.3625,519.518,-0.349375,0.8371,0.016125,-18.6683333333333,70.9758333333333,13.4381666666667,0.062,-0.946066666666667,-0.0906,0.0902666666666667,-55.8935,-1.98166666666667,-5.44716666666667,636.416333333333,1,1,1,1
24-May-2018 13:22:30,41.6666666666667,0.9102625,-0.1693875,-0.2227375,35.47,-5.0682,-10.3876,62.1743333333333,-0.96295,-0.16925,0.024625,-50.20875,31.170875,117.3625,519.518,-0.349375,0.8371,0.016125,-18.6683333333333,70.9758333333333,13.4381666666667,0.062,-0.946066666666667,-0.0906,0.0902666666666667,-55.8935,-1.98166666666667,-5.44716666666667,636.416333333333,1,1,1,1
24-May-2018 13:22:31,44.4444444444444,0.984266666666667,0.0152666666666667,-0.147733333333333,65.1783333333333,-7.165,-15.5033333333333,169.003,-1.00856,0.25176,-0.08774,-34.3325,17.7205,61.45875,519.518,-0.36778,0.9292,-0.00408,-10.87,23.2583333333333,3.526,0.1228,-0.921716666666667,-0.170483333333333,0.0685666666666667,-47.073,-8.47557142857143,7.01214285714286,791.508,0,1,1,0
24-May-2018 13:22:31,44.4444444444444,0.984266666666667,0.0152666666666667,-0.147733333333333,65.1783333333333,-7.165,-15.5033333333333,169.003,-1.00856,0.25176,-0.08774,-34.3325,17.7205,61.45875,519.518,-0.36778,0.9292,-0.00408,-10.87,23.2583333333333,3.526,0.1228,-0.921716666666667,-0.170483333333333,0.0685666666666667,-47.073,-8.47557142857143,7.01214285714286,791.508,0,1,1,0
24-May-2018 13:22:31,44.4444444444444,0.984266666666667,0.0152666666666667,-0.147733333333333,65.1783333333333,-7.165,-15.5033333333333,169.003,-1.00856,0.25176,-0.08774,-34.3325,17.7205,61.45875,519.518,-0.36778,0.9292,-0.00408,-10.87,23.2583333333333,3.526,0.1228,-0.921716666666667,-0.170483333333333,0.0685666666666667,-47.073,-8.47557142857143,7.01214285714286,791.508,0,1,1,0
24-May-2018 13:22:31,44.4444444444444,0.984266666666667,0.0152666666666667,-0.147733333333333,65.1783333333333,-7.165,-15.5033333333333,169.003,-1.00856,0.25176,-0.08774,-34.3325,17.7205,61.45875,519.518,-0.36778,0.9292,-0.00408,-10.87,23.2583333333333,3.526,0.1228,-0.921716666666667,-0.170483333333333,0.0685666666666667,-47.073,-8.47557142857143,7.01214285714286,791.508,0,1,1,0
24-May-2018 13:22:32,-20.4444444444444,0.945416666666667,-0.0609833333333333,-0.227783333333333,49.4966666666667,22.0053333333333,-9.0995,398.0445,-0.99085,0.262975,-0.10025,-36.495,15.5405,18.464625,513.348666666667,-0.26916,0.91862,0.18836,-94.18,-43.118,72.505,0.122,-0.8138375,-0.1011625,-0.03215,42.5405,-3.99383333333333,11.3823333333333,778.626,1,1,1,0
24-May-2018 13:22:32,-20.4444444444444,0.945416666666667,-0.0609833333333333,-0.227783333333333,49.4966666666667,22.0053333333333,-9.0995,398.0445,-0.99085,0.262975,-0.10025,-36.495,15.5405,18.464625,513.348666666667,-0.26916,0.91862,0.18836,-94.18,-43.118,72.505,0.122,-0.8138375,-0.1011625,-0.03215,42.5405,-3.99383333333333,11.3823333333333,778.626,1,1,1,0
24-May-2018 13:22:32,-20.4444444444444,0.945416666666667,-0.0609833333333333,-0.227783333333333,49.4966666666667,22.0053333333333,-9.0995,398.0445,-0.99085,0.262975,-0.10025,-36.495,15.5405,18.464625,513.348666666667,-0.26916,0.91862,0.18836,-94.18,-43.118,72.505,0.122,-0.8138375,-0.1011625,-0.03215,42.5405,-3.99383333333333,11.3823333333333,778.626,1,1,1,0
24-May-2018 13:22:32,-20.4444444444444,0.945416666666667,-0.0609833333333333,-0.227783333333333,49.4966666666667,22.0053333333333,-9.0995,398.0445,-0.99085,0.262975,-0.10025,-36.495,15.5405,18.464625,513.348666666667,-0.26916,0.91862,0.18836,-94.18,-43.118,72.505,0.122,-0.8138375,-0.1011625,-0.03215,42.5405,-3.99383333333333,11.3823333333333,778.626,1,1,1,0
24-May-2018 13:22:33,49.7777777777778,0.964857142857143,-0.0643428571428571,-0.0834714285714286,30.34575,4.10125,-3.9375,515.82,-0.981175,0.264125,-0.1347,-33.60875,18.1075,4.848,510.264,0.909314285714286,0.378042857142857,0.853242857142857,8.8425,55.55,14.27,0.122,-0.184766666666667,-0.502483333333333,0.787916666666667,10.5335,-42.62075,20.36575,698.21925,0,0,0,0
24-May-2018 13:22:33,49.7777777777778,0.964857142857143,-0.0643428571428571,-0.0834714285714286,30.34575,4.10125,-3.9375,515.82,-0.981175,0.264125,-0.1347,-33.60875,18.1075,4.848,510.264,0.909314285714286,0.378042857142857,0.853242857142857,8.8425,55.55,14.27,0.122,-0.184766666666667,-0.502483333333333,0.787916666666667,10.5335,-42.62075,20.36575,698.21925,0,0,0,0
24-May-2018 13:22:33,49.7777777777778,0.964857142857143,-0.0643428571428571,-0.0834714285714286,30.34575,4.10125,-3.9375,515.82,-0.981175,0.264125,-0.1347,-33.60875,18.1075,4.848,510.264,0.909314285714286,0.378042857142857,0.853242857142857,8.8425,55.55,14.27,0.122,-0.184766666666667,-0.502483333333333,0.787916666666667,10.5335,-42.62075,20.36575,698.21925,0,0,0,0
24-May-2018 13:22:33,49.7777777777778,0.964857142857143,-0.0643428571428571,-0.0834714285714286,30.34575,4.10125,-3.9375,515.82,-0.981175,0.264125,-0.1347,-33.60875,18.1075,4.848,510.264,0.909314285714286,0.378042857142857,0.853242857142857,8.8425,55.55,14.27,0.122,-0.184766666666667,-0.502483333333333,0.787916666666667,10.5335,-42.62075,20.36575,698.21925,0,0,0,0
24-May-2018 13:22:34,10.4,0.738128571428571,0.0943857142857143,0.366614285714286,1.53088888888889,36.5022222222222,14.575,515.82,-0.958225,0.345925,-0.16435,13.3241111111111,7.49188888888889,23.9957777777778,510.264,0.541875,0.57605,0.655925,-1.684,-0.251166666666667,-0.229833333333333,0.122,0.04572,-0.65664,0.70416,4.95916666666667,2.4795,-1.51433333333333,698.21925,0,0,1,1
24-May-2018 13:22:34,10.4,0.738128571428571,0.0943857142857143,0.366614285714286,1.53088888888889,36.5022222222222,14.575,515.82,-0.958225,0.345925,-0.16435,13.3241111111111,7.49188888888889,23.9957777777778,510.264,0.541875,0.57605,0.655925,-1.684,-0.251166666666667,-0.229833333333333,0.122,0.04572,-0.65664,0.70416,4.95916666666667,2.4795,-1.51433333333333,698.21925,0,0,1,1
24-May-2018 13:22:34,10.4,0.738128571428571,0.0943857142857143,0.366614285714286,1.53088888888889,36.5022222222222,14.575,515.82,-0.958225,0.345925,-0.16435,13.3241111111111,7.49188888888889,23.9957777777778,510.264,0.541875,0.57605,0.655925,-1.684,-0.251166666666667,-0.229833333333333,0.122,0.04572,-0.65664,0.70416,4.95916666666667,2.4795,-1.51433333333333,698.21925,0,0,1,1
24-May-2018 13:22:34,10.4,0.738128571428571,0.0943857142857143,0.366614285714286,1.53088888888889,36.5022222222222,14.575,0,-0.958225,0.345925,-0.16435,13.3241111111111,7.49188888888889,23.9957777777778,510.264,0.541875,0.57605,0.655925,-1.684,-0.251166666666667,-0.229833333333333,0.122,0.04572,-0.65664,0.70416,4.95916666666667,2.4795,-1.51433333333333,0,0,0,1,1
24-May-2018 13:22:35,-116.333333333333,-0.253875,0.081025,0.8943375,-1.13616666666667,5.985,-8.81716666666667,789.4085,-0.9527,0.3395,-0.177566666666667,1.15883333333333,9.348,1.383,481.063333333333,0.55,0.57718,0.6546,-0.319571428571429,-1.38,-0.432857142857143,0.122,0.04385,-0.677033333333333,0.74725,0.5856,0.4636,-0.427,663.9635,0,1,1,1
24-May-2018 13:22:35,-116.333333333333,-0.253875,0.081025,0.8943375,-1.13616666666667,5.985,-8.81716666666667,789.4085,-0.9527,0.3395,-0.177566666666667,1.15883333333333,9.348,1.383,481.063333333333,0.55,0.57718,0.6546,-0.319571428571429,-1.38,-0.432857142857143,0.122,0.04385,-0.677033333333333,0.74725,0.5856,0.4636,-0.427,663.9635,0,1,1,1
24-May-2018 13:22:35,-116.333333333333,-0.253875,0.081025,0.8943375,-1.13616666666667,5.985,-8.81716666666667,789.4085,-0.9527,0.3395,-0.177566666666667,1.15883333333333,9.348,1.383,481.063333333333,0.55,0.57718,0.6546,-0.319571428571429,-1.38,-0.432857142857143,0.122,0.04385,-0.677033333333333,0.74725,0.5856,0.4636,-0.427,663.9635,0,1,1,1
24-May-2018 13:22:35,-116.333333333333,-0.253875,0.081025,0.8943375,-1.13616666666667,5.985,-8.81716666666667,789.4085,-0.9527,0.3395,-0.177566666666667,1.15883333333333,9.348,1.383,481.063333333333,0.55,0.57718,0.6546,-0.319571428571429,-1.38,-0.432857142857143,0.122,0.04385,-0.677033333333333,0.74725,0.5856,0.4636,-0.427,663.9635,0,1,1,1
24-May-2018 13:22:36,60,0.02432,0.0083,1.04762,0.5874,-5.1698,-0.5448,889.643714285714,-0.946175,0.3774,-0.193225,12.7147777777778,-5.22888888888889,4.18066666666667,422.662,0.54555,0.5752,0.654225,-0.363,-1.48966666666667,-0.401666666666667,0.122,0.0457428571428571,-0.680771428571428,0.743414285714286,0.099,0.114375,-0.068625,662.057,1,1,0,0
24-May-2018 13:22:36,60,0.02432,0.0083,1.04762,0.5874,-5.1698,-0.5448,889.643714285714,-0.946175,0.3774,-0.193225,12.7147777777778,-5.22888888888889,4.18066666666667,422.662,0.54555,0.5752,0.654225,-0.363,-1.48966666666667,-0.401666666666667,0.122,0.0457428571428571,-0.680771428571428,0.743414285714286,0.099,0.114375,-0.068625,662.057,1,1,0,0
24-May-2018 13:22:36,60,0.02432,0.0083,1.04762,0.5874,-5.1698,-0.5448,889.643714285714,-0.946175,0.3774,-0.193225,12.7147777777778,-5.22888888888889,4.18066666666667,422.662,0.54555,0.5752,0.654225,-0.363,-1.48966666666667,-0.401666666666667,0.122,0.0457428571428571,-0.680771428571428,0.743414285714286,0.099,0.114375,-0.068625,662.057,1,1,0,0
24-May-2018 13:22:36,60,0.02432,0.0083,1.04762,0.5874,-5.1698,-0.5448,889.643714285714,-0.946175,0.3774,-0.193225,12.7147777777778,-5.22888888888889,4.18066666666667,422.662,0.54555,0.5752,0.654225,-0.363,-1.48966666666667,-0.401666666666667,0.122,0.0457428571428571,-0.680771428571428,0.743414285714286,0.099,0.114375,-0.068625,662.057,1,1,0,0
24-May-2018 13:22:37,31.1111111111111,-0.00998,-0.00054,1.032,-0.0396666666666667,3.934,0.245166666666667,886.838833333333,-0.93962,0.38504,-0.18452,1.25411111111111,0.0426666666666667,1.61433333333333,422.662,0.55274,0.57878,0.6504,-0.616,-1.042,-0.1676,0.122,0.04485,-0.681516666666667,0.744933333333333,0.355833333333333,0.396333333333333,0.2135,662.06525,0,1,0,0
24-May-2018 13:22:37,31.1111111111111,-0.00998,-0.00054,1.032,-0.0396666666666667,3.934,0.245166666666667,886.838833333333,-0.93962,0.38504,-0.18452,1.25411111111111,0.0426666666666667,1.61433333333333,422.662,0.55274,0.57878,0.6504,-0.616,-1.042,-0.1676,0.122,0.04485,-0.681516666666667,0.744933333333333,0.355833333333333,0.396333333333333,0.2135,662.06525,0,1,0,0
24-May-2018 13:22:37,31.1111111111111,-0.00998,-0.00054,1.032,-0.0396666666666667,3.934,0.245166666666667,886.838833333333,-0.93962,0.38504,-0.18452,1.25411111111111,0.0426666666666667,1.61433333333333,422.662,0.55274,0.57878,0.6504,-0.616,-1.042,-0.1676,0.122,0.04485,-0.681516666666667,0.744933333333333,0.355833333333333,0.396333333333333,0.2135,662.06525,0,1,0,0
24-May-2018 13:22:37,31.1111111111111,-0.00998,-0.00054,1.032,-0.0396666666666667,3.934,0.245166666666667,886.838833333333,-0.93962,0.38504,-0.18452,1.25411111111111,0.0426666666666667,1.61433333333333,422.662,0.55274,0.57878,0.6504,-0.616,-1.042,-0.1676,0.122,0.04485,-0.681516666666667,0.744933333333333,0.355833333333333,0.396333333333333,0.2135,662.06525,0,1,0,0
