TIME,HELMET_RAW,BELT_ACC_X,BELT_ACC_Y,BELT_ACC_Z,BELT_ANG_X,BELT_ANG_Y,BELT_ANG_Z,BELT_LUMINOSITY,NECK_ACC_X,NECK_ACC_Y,NECK_ACC_Z,NECK_ANG_X,NECK_ANG_Y,NECK_ANG_Z,NECK_LUMINOSITY,PCKT_ACC_X,PCKT_ACC_Y,PCKT_ACC_Z,PCKT_ANG_X,PCKT_ANG_Y,PCKT_ANG_Z,PCKT_LUMINOSITY,WRST_ACC_X,WRST_ACC_Y,WRST_ACC_Z,WRST_ANG_X,WRST_ANG_Y,WRST_ANG_Z,WRST_LUMINOSITY,IR_1,IR_2,IR_3,IR_4
24-May-2018 14:38:31,388.4,0.0908714285714286,-0.882571428571428,-0.389657142857143,0.57,-0.6255,0.275333333333333,0.201,0,0,0,0,0,0,0,-0.3329,-1.004125,-0.00805,26.5216666666667,12.2633333333333,12.763,1.07633333333333,0.921366666666667,-0.442833333333333,0.0159,-67.43675,-12.01225,-47.2845,761.312666666667,1,0,1,1
24-May-2018 14:38:31,388.4,0.0908714285714286,-0.882571428571428,-0.389657142857143,0.57,-0.6255,0.275333333333333,0.201,0,0,0,0,0,0,0,-0.3329,-1.004125,-0.00805,26.5216666666667,12.2633333333333,12.763,1.07633333333333,0.921366666666667,-0.442833333333333,0.0159,-67.43675,-12.01225,-47.2845,761.312666666667,1,0,1,1
24-May-2018 14:38:31,388.4,0.0908714285714286,-0.882571428571428,-0.389657142857143,0.57,-0.6255,0.275333333333333,0.201,0,0,0,0,0,0,0,-0.3329,-1.004125,-0.00805,26.5216666666667,12.2633333333333,12.763,1.07633333333333,0.921366666666667,-0.442833333333333,0.0159,-67.43675,-12.01225,-47.2845,761.312666666667,1,0,1,1
24-May-2018 14:38:31,388.4,0.0908714285714286,-0.882571428571428,-0.389657142857143,0.57,-0.6255,0.275333333333333,0.201,0,0,0,0,0,0,0,-0.3329,-1.004125,-0.00805,26.5216666666667,12.2633333333333,12.763,1.07633333333333,0.921366666666667,-0.442833333333333,0.0159,-67.43675,-12.01225,-47.2845,761.312666666667,1,0,1,1
24-May-2018 14:38:32,292,0.0908714285714286,-0.882571428571428,-0.389657142857143,0.57,-0.6255,0.275333333333333,0.201,0,0,0,0,0,0,0,-0.428,-0.809,0.19282,-17.7717142857143,11.1978571428571,-0.777857142857141,1.08766666666667,0.825075,-0.4565,0.341325,-14.9738571428571,60.026,36.1671428571429,658.407333333333,1,0,1,1
24-May-2018 14:38:32,292,0.0908714285714286,-0.882571428571428,-0.389657142857143,0.57,-0.6255,0.275333333333333,0.201,0,0,0,0,0,0,0,-0.428,-0.809,0.19282,-17.7717142857143,11.1978571428571,-0.777857142857141,1.08766666666667,0.825075,-0.4565,0.341325,-14.9738571428571,60.026,36.1671428571429,658.407333333333,1,0,1,1
24-May-2018 14:38:32,292,0.0908714285714286,-0.882571428571428,-0.389657142857143,0.57,-0.6255,0.275333333333333,0.201,0,0,0,0,0,0,0,-0.428,-0.809,0.19282,-17.7717142857143,11.1978571428571,-0.777857142857141,1.08766666666667,0.825075,-0.4565,0.341325,-14.9738571428571,60.026,36.1671428571429,658.407333333333,1,0,1,1
24-May-2018 14:38:32,292,0.0908714285714286,-0.882571428571428,-0.389657142857143,0.57,-0.6255,0.275333333333333,0.201,0,0,0,0,0,0,0,-0.428,-0.809,0.19282,-17.7717142857143,11.1978571428571,-0.777857142857141,1.08766666666667,0.825075,-0.4565,0.341325,-14.9738571428571,60.026,36.1671428571429,658.407333333333,1,0,1,1
24-May-2018 14:38:33,220.272727272727,0.0908714285714286,-0.882571428571428,-0.389657142857143,0.57,-0.6255,0.275333333333333,0.201,0,0,0,0,0,0,0,-0.4589,-0.8949,-0.0574666666666667,25.7783333333333,-5.60533333333333,39.6916666666667,0.872333333333333,0.960175,-0.4618,0.0792,-72.9992,24.1218,-16.5608,672.958666666667,1,1,0.5,1
24-May-2018 14:38:33,220.272727272727,0.0908714285714286,-0.882571428571428,-0.389657142857143,0.57,-0.6255,0.275333333333333,0.201,0,0,0,0,0,0,0,-0.4589,-0.8949,-0.0574666666666667,25.7783333333333,-5.60533333333333,39.6916666666667,0.872333333333333,0.960175,-0.4618,0.0792,-72.9992,24.1218,-16.5608,672.958666666667,1,1,0.5,1
24-May-2018 14:38:33,220.272727272727,0.0908714285714286,-0.882571428571428,-0.389657142857143,0.57,-0.6255,0.275333333333333,0.201,0,0,0,0,0,0,0,-0.4589,-0.8949,-0.0574666666666667,25.7783333333333,-5.60533333333333,39.6916666666667,0.872333333333333,0.960175,-0.4618,0.0792,-72.9992,24.1218,-16.5608,672.958666666667,1,1,0.5,1
24-May-2018 14:38:33,220.272727272727,0.0908714285714286,-0.882571428571428,-0.389657142857143,0.57,-0.6255,0.275333333333333,0.201,0,0,0,0,0,0,0,-0.4589,-0.8949,-0.0574666666666667,25.7783333333333,-5.60533333333333,39.6916666666667,0.872333333333333,0.960175,-0.4618,0.0792,-72.9992,24.1218,-16.5608,672.958666666667,1,1,0.5,1
24-May-2018 14:38:34,165,0.0908714285714286,-0.882571428571428,-0.389657142857143,0.57,-0.6255,0.275333333333333,0.201,0,0,0,0,0,0,0,-0.420142857142857,-0.9211,-0.0437142857142857,-12.1021666666667,42.615,-16.4048333333333,0.952,0.9719375,-0.457675,0.1078625,3.83133333333333,6.27033333333333,9.2895,464.89375,1,1,0,1
24-May-2018 14:38:34,165,0.0908714285714286,-0.882571428571428,-0.389657142857143,0.57,-0.6255,0.275333333333333,0.201,0,0,0,0,0,0,0,-0.420142857142857,-0.9211,-0.0437142857142857,-12.1021666666667,42.615,-16.4048333333333,0.952,0.9719375,-0.457675,0.1078625,3.83133333333333,6.27033333333333,9.2895,464.89375,1,1,0,1
24-May-2018 14:38:34,165,0.0908714285714286,-0.882571428571428,-0.389657142857143,0.57,-0.6255,0.275333333333333,0.201,0,0,0,0,0,0,0,-0.420142857142857,-0.9211,-0.0437142857142857,-12.1021666666667,42.615,-16.4048333333333,0.952,0.9719375,-0.457675,0.1078625,3.83133333333333,6.27033333333333,9.2895,464.89375,1,1,0,1
24-May-2018 14:38:34,165,0.0908714285714286,-0.882571428571428,-0.389657142857143,0.57,-0.6255,0.275333333333333,0.201,0,0,0,0,0,0,0,-0.420142857142857,-0.9211,-0.0437142857142857,-12.1021666666667,42.615,-16.4048333333333,0.952,0.9719375,-0.457675,0.1078625,3.83133333333333,6.27033333333333,9.2895,464.89375,1,1,0,1
24-May-2018 14:38:35,128.181818181818,0.0908714285714286,-0.882571428571428,-0.389657142857143,0.57,-0.6255,0.275333333333333,0.201,0,0,0,0,0,0,0,-0.475433333333333,-0.8633,0.16725,35.3045,18.732125,8.972625,0.80075,0.6154,-0.879766666666667,0.1074,-22.2387142857143,-37.8034285714286,107.570428571429,509.4642,0,1,0,0
24-May-2018 14:38:35,128.181818181818,0.0908714285714286,-0.882571428571428,-0.389657142857143,0.57,-0.6255,0.275333333333333,0.201,0,0,0,0,0,0,0,-0.475433333333333,-0.8633,0.16725,35.3045,18.732125,8.972625,0.80075,0.6154,-0.879766666666667,0.1074,-22.2387142857143,-37.8034285714286,107.570428571429,509.4642,0,1,0,0
24-May-2018 14:38:35,128.181818181818,0.0908714285714286,-0.882571428571428,-0.389657142857143,0.57,-0.6255,0.275333333333333,0.201,0,0,0,0,0,0,0,-0.475433333333333,-0.8633,0.16725,35.3045,18.732125,8.972625,0.80075,0.6154,-0.879766666666667,0.1074,-22.2387142857143,-37.8034285714286,107.570428571429,509.4642,0,1,0,0
24-May-2018 14:38:35,128.181818181818,0.0908714285714286,-0.882571428571428,-0.389657142857143,0.57,-0.6255,0.275333333333333,0.201,0,0,0,0,0,0,0,-0.475433333333333,-0.8633,0.16725,35.3045,18.732125,8.972625,0.80075,0.6154,-0.879766666666667,0.1074,-22.2387142857143,-37.8034285714286,107.570428571429,509.4642,0,1,0,0
24-May-2018 14:38:36,103.1,0.0908714285714286,-0.882571428571428,-0.389657142857143,0.57,-0.6255,0.275333333333333,0.201,0,0,0,0,0,0,0,-0.363183333333333,-0.963,-0.0719833333333333,-2.9018,59.544,3.6216,1.9135,-0.644725,-0.409625,0.404375,9.939,-3.31283333333333,4.18716666666667,589.159,0.5,1,0,0
24-May-2018 14:38:36,103.1,0.0908714285714286,-0.882571428571428,-0.389657142857143,0.57,-0.6255,0.275333333333333,0.201,0,0,0,0,0,0,0,-0.363183333333333,-0.963,-0.0719833333333333,-2.9018,59.544,3.6216,1.9135,-0.644725,-0.409625,0.404375,9.939,-3.31283333333333,4.18716666666667,589.159,0.5,1,0,0
24-May-2018 14:38:36,103.1,0.0908714285714286,-0.882571428571428,-0.389657142857143,0.57,-0.6255,0.275333333333333,0.201,0,0,0,0,0,0,0,-0.363183333333333,-0.963,-0.0719833333333333,-2.9018,59.544,3.6216,1.9135,-0.644725,-0.409625,0.404375,9.939,-3.31283333333333,4.18716666666667,589.159,0.5,1,0,0
24-May-2018 14:38:36,103.1,0.0908714285714286,-0.882571428571428,-0.389657142857143,0.57,-0.6255,0.275333333333333,0.201,0,0,0,0,0,0,0,-0.363183333333333,-0.963,-0.0719833333333333,-2.9018,59.544,3.6216,1.9135,-0.644725,-0.409625,0.404375,9.939,-3.31283333333333,4.18716666666667,589.159,0.5,1,0,0
24-May-2018 14:38:37,87.3333333333333,0.0908714285714286,-0.882571428571428,-0.389657142857143,0.57,-0.6255,0.275333333333333,0.201,0,0,0,0,0,0,0,-0.36598,-0.91598,0.02086,47.1385714285714,19.7807142857143,26.9701428571429,2.6985,0.807583333333333,-0.639116666666667,0.121666666666667,26.8395,17.389,-122.873166666667,624.133,1,1,0.5,1
24-May-2018 14:38:37,87.3333333333333,0.0908714285714286,-0.882571428571428,-0.389657142857143,0.57,-0.6255,0.275333333333333,0.201,0,0,0,0,0,0,0,-0.36598,-0.91598,0.02086,47.1385714285714,19.7807142857143,26.9701428571429,2.6985,0.807583333333333,-0.639116666666667,0.121666666666667,26.8395,17.389,-122.873166666667,624.133,1,1,0.5,1
24-May-2018 14:38:37,87.3333333333333,0.0908714285714286,-0.882571428571428,-0.389657142857143,0.57,-0.6255,0.275333333333333,0.201,0,0,0,0,0,0,0,-0.36598,-0.91598,0.02086,47.1385714285714,19.7807142857143,26.9701428571429,2.6985,0.807583333333333,-0.639116666666667,0.121666666666667,26.8395,17.389,-122.873166666667,624.133,1,1,0.5,1
24-May-2018 14:38:37,87.3333333333333,0.0908714285714286,-0.882571428571428,-0.389657142857143,0.57,-0.6255,0.275333333333333,0.201,0,0,0,0,0,0,0,-0.36598,-0.91598,0.02086,47.1385714285714,19.7807142857143,26.9701428571429,2.6985,0.807583333333333,-0.639116666666667,0.121666666666667,26.8395,17.389,-122.873166666667,624.133,1,1,0.5,1
24-May-2018 14:38:38,-964.6,0.0908714285714286,-0.882571428571428,-0.389657142857143,0.57,-0.6255,0.275333333333333,0.201,0,0,0,0,0,0,0,-0.2998,-0.920971428571429,-0.0532,-7.717,51.4742857142857,-10.8282857142857,3.24825,0.9397,-0.446533333333333,0.03765,-68.9274285714286,41.3501428571428,22.5357142857143,425.20125,1,0,1,1
24-May-2018 14:38:38,-964.6,0.0908714285714286,-0.882571428571428,-0.389657142857143,0.57,-0.6255,0.275333333333333,0.201,0,0,0,0,0,0,0,-0.2998,-0.920971428571429,-0.0532,-7.717,51.4742857142857,-10.8282857142857,3.24825,0.9397,-0.446533333333333,0.03765,-68.9274285714286,41.3501428571428,22.5357142857143,425.20125,1,0,1,1
24-May-2018 14:38:38,-964.6,0.0908714285714286,-0.882571428571428,-0.389657142857143,0.57,-0.6255,0.275333333333333,0.201,0,0,0,0,0,0,0,-0.2998,-0.920971428571429,-0.0532,-7.717,51.4742857142857,-10.8282857142857,3.24825,0.9397,-0.446533333333333,0.03765,-68.9274285714286,41.3501428571428,22.5357142857143,425.20125,1,0,1,1
24-May-2018 14:38:38,-964.6,0.0908714285714286,-0.882571428571428,-0.389657142857143,0.57,-0.6255,0.275333333333333,0.201,0,0,0,0,0,0,0,-0.2998,-0.920971428571429,-0.0532,-7.717,51.4742857142857,-10.8282857142857,3.24825,0.9397,-0.446533333333333,0.03765,-68.9274285714286,41.3501428571428,22.5357142857143,425.20125,1,0,1,1
24-May-2018 14:38:39,-2048,0.0908714285714286,-0.882571428571428,-0.389657142857143,0.57,-0.6255,0.275333333333333,0.201,0,0,0,0,0,0,0,-0.432966666666667,-0.862166666666667,0.0147333333333333,8.53833333333333,-8.37166666666667,16.095,2.02633333333333,0.842871428571429,-0.511671428571429,0.122714285714286,19.3291666666667,14.126,11.5345,493.623,1,0,1,1
24-May-2018 14:38:39,-2048,0.0908714285714286,-0.882571428571428,-0.389657142857143,0.57,-0.6255,0.275333333333333,0.201,0,0,0,0,0,0,0,-0.432966666666667,-0.862166666666667,0.0147333333333333,8.53833333333333,-8.37166666666667,16.095,2.02633333333333,0.842871428571429,-0.511671428571429,0.122714285714286,19.3291666666667,14.126,11.5345,493.623,1,0,1,1
24-May-2018 14:38:39,-2048,0.0908714285714286,-0.882571428571428,-0.389657142857143,0.57,-0.6255,0.275333333333333,0.201,0,0,0,0,0,0,0,-0.432966666666667,-0.862166666666667,0.0147333333333333,8.53833333333333,-8.37166666666667,16.095,2.02633333333333,0.842871428571429,-0.511671428571429,0.122714285714286,19.3291666666667,14.126,11.5345,493.623,1,0,1,1
24-May-2018 14:38:39,-2048,0.0908714285714286,-0.882571428571428,-0.389657142857143,0.57,-0.6255,0.275333333333333,0.201,0,0,0,0,0,0,0,-0.432966666666667,-0.862166666666667,0.0147333333333333,8.53833333333333,-8.37166666666667,16.095,2.02633333333333,0.842871428571429,-0.511671428571429,0.122714285714286,19.3291666666667,14.126,11.5345,493.623,1,0,1,1
24-May-2018 14:38:40,-2035.1,0.0908714285714286,-0.882571428571428,-0.389657142857143,0.57,-0.6255,0.275333333333333,0.201,0,0,0,0,0,0,0,-0.239575,-1.034125,-0.039725,9.43271428571429,0.521,-0.985714285714288,2.277,0.949916666666667,-0.55665,0.109916666666667,-66.2411428571428,14.0851428571429,-38.9015714285714,703.561666666667,1,1,1,0.5
24-May-2018 14:38:40,-2035.1,0.0908714285714286,-0.882571428571428,-0.389657142857143,0.57,-0.6255,0.275333333333333,0.201,0,0,0,0,0,0,0,-0.239575,-1.034125,-0.039725,9.43271428571429,0.521,-0.985714285714288,2.277,0.949916666666667,-0.55665,0.109916666666667,-66.2411428571428,14.0851428571429,-38.9015714285714,703.561666666667,1,1,1,0.5
24-May-2018 14:38:40,-2035.1,0.0908714285714286,-0.882571428571428,-0.389657142857143,0.57,-0.6255,0.275333333333333,0.201,0,0,0,0,0,0,0,-0.239575,-1.034125,-0.039725,9.43271428571429,0.521,-0.985714285714288,2.277,0.949916666666667,-0.55665,0.109916666666667,-66.2411428571428,14.0851428571429,-38.9015714285714,703.561666666667,1,1,1,0.5
24-May-2018 14:38:40,-2035.1,0.0908714285714286,-0.882571428571428,-0.389657142857143,0.57,-0.6255,0.275333333333333,0.201,0,0,0,0,0,0,0,-0.239575,-1.034125,-0.039725,9.43271428571429,0.521,-0.985714285714288,2.277,0.949916666666667,-0.55665,0.109916666666667,-66.2411428571428,14.0851428571429,-38.9015714285714,703.561666666667,1,1,1,0.5
24-May-2018 14:38:41,-1590,0.0908714285714286,-0.882571428571428,-0.389657142857143,0.57,-0.6255,0.275333333333333,0.201,0,0,0,0,0,0,0,-0.581385714285714,-0.868685714285714,0.121828571428571,-1.57057142857143,36.2611428571429,-0.795714285714285,1.78775,0.933816666666667,-0.509716666666667,0.0932666666666667,-9.7765,12.063,-1.61599999999999,699.9036,1,1,1,0
24-May-2018 14:38:41,-1590,0.0908714285714286,-0.882571428571428,-0.389657142857143,0.57,-0.6255,0.275333333333333,0.201,0,0,0,0,0,0,0,-0.581385714285714,-0.868685714285714,0.121828571428571,-1.57057142857143,36.2611428571429,-0.795714285714285,1.78775,0.933816666666667,-0.509716666666667,0.0932666666666667,-9.7765,12.063,-1.61599999999999,699.9036,1,1,1,0
24-May-2018 14:38:41,-1590,0.0908714285714286,-0.882571428571428,-0.389657142857143,0.57,-0.6255,0.275333333333333,0.201,0,0,0,0,0,0,0,-0.581385714285714,-0.868685714285714,0.121828571428571,-1.57057142857143,36.2611428571429,-0.795714285714285,1.78775,0.933816666666667,-0.509716666666667,0.0932666666666667,-9.7765,12.063,-1.61599999999999,699.9036,1,1,1,0
24-May-2018 14:38:41,-1590,0.0908714285714286,-0.882571428571428,-0.389657142857143,0.57,-0.6255,0.275333333333333,0.201,0,0,0,0,0,0,0,-0.581385714285714,-0.868685714285714,0.121828571428571,-1.57057142857143,36.2611428571429,-0.795714285714285,1.78775,0.933816666666667,-0.509716666666667,0.0932666666666667,-9.7765,12.063,-1.61599999999999,699.9036,1,1,1,0
24-May-2018 14:38:42,-1082.1,0.0908714285714286,-0.882571428571428,-0.389657142857143,0.57,-0.6255,0.275333333333333,0.201,0,0,0,0,0,0,0,-0.3567,-0.9338125,-0.00735,46.8316666666667,65.045,25.008,1.359,0.95162,-0.35182,0.12384,-21.8465714285714,3.95457142857142,-22.2725714285714,786.844,1,1,1,0
24-May-2018 14:38:42,-1082.1,0.0908714285714286,-0.882571428571428,-0.389657142857143,0.57,-0.6255,0.275333333333333,0.201,0,0,0,0,0,0,0,-0.3567,-0.9338125,-0.00735,46.8316666666667,65.045,25.008,1.359,0.95162,-0.35182,0.12384,-21.8465714285714,3.95457142857142,-22.2725714285714,786.844,1,1,1,0
24-May-2018 14:38:42,-1082.1,0.0908714285714286,-0.882571428571428,-0.389657142857143,0.57,-0.6255,0.275333333333333,0.201,0,0,0,0,0,0,0,-0.3567,-0.9338125,-0.00735,46.8316666666667,65.045,25.008,1.359,0.95162,-0.35182,0.12384,-21.8465714285714,3.95457142857142,-22.2725714285714,786.844,1,1,1,0
24-May-2018 14:38:42,-1082.1,0.0908714285714286,-0.882571428571428,-0.389657142857143,0.57,-0.6255,0.275333333333333,0.201,0,0,0,0,0,0,0,-0.3567,-0.9338125,-0.00735,46.8316666666667,65.045,25.008,1.359,0.95162,-0.35182,0.12384,-21.8465714285714,3.95457142857142,-22.2725714285714,786.844,1,1,1,0
24-May-2018 14:38:43,-772.285714285714,0.0908714285714286,-0.882571428571428,-0.389657142857143,0.57,-0.6255,0.275333333333333,0.201,0,0,0,0,0,0,0,-0.338866666666667,-0.9193,0.0240166666666667,-4.08285714285714,37.2364285714286,-6.73171428571429,1.3625,0.962633333333333,-0.490416666666667,0.0467833333333333,-35.5744285714286,10.601,-13.1438571428571,688.1485,1,1,1,1
24-May-2018 14:38:43,-772.285714285714,0.0908714285714286,-0.882571428571428,-0.389657142857143,0.57,-0.6255,0.275333333333333,0.201,0,0,0,0,0,0,0,-0.338866666666667,-0.9193,0.0240166666666667,-4.08285714285714,37.2364285714286,-6.73171428571429,1.3625,0.962633333333333,-0.490416666666667,0.0467833333333333,-35.5744285714286,10.601,-13.1438571428571,688.1485,1,1,1,1
24-May-2018 14:38:43,-772.285714285714,0.0908714285714286,-0.882571428571428,-0.389657142857143,0.57,-0.6255,0.275333333333333,0.201,0,0,0,0,0,0,0,-0.338866666666667,-0.9193,0.0240166666666667,-4.08285714285714,37.2364285714286,-6.73171428571429,1.3625,0.962633333333333,-0.490416666666667,0.0467833333333333,-35.5744285714286,10.601,-13.1438571428571,688.1485,1,1,1,1
24-May-2018 14:38:43,-772.285714285714,0.0908714285714286,-0.882571428571428,-0.389657142857143,0.57,-0.6255,0.275333333333333,0.201,0,0,0,0,0,0,0,-0.338866666666667,-0.9193,0.0240166666666667,-4.08285714285714,37.2364285714286,-6.73171428571429,1.3625,0.962633333333333,-0.490416666666667,0.0467833333333333,-35.5744285714286,10.601,-13.1438571428571,688.1485,1,1,1,1
24-May-2018 14:38:44,-549.5,0.0908714285714286,-0.882571428571428,-0.389657142857143,0.57,-0.6255,0.275333333333333,0.201,0,0,0,0,0,0,0,-0.3875125,-0.9249125,0.0711125,9.9155,-24.705,28.2,0.975166666666667,0.83982,-0.4887,0.10888,-15.1525,16.057,35.935,742.414,1,0,1,1
24-May-2018 14:38:44,-549.5,0.0908714285714286,-0.882571428571428,-0.389657142857143,0.57,-0.6255,0.275333333333333,0.201,0,0,0,0,0,0,0,-0.3875125,-0.9249125,0.0711125,9.9155,-24.705,28.2,0.975166666666667,0.83982,-0.4887,0.10888,-15.1525,16.057,35.935,742.414,1,0,1,1
24-May-2018 14:38:44,-549.5,0.0908714285714286,-0.882571428571428,-0.389657142857143,0.57,-0.6255,0.275333333333333,0.201,0,0,0,0,0,0,0,-0.3875125,-0.9249125,0.0711125,9.9155,-24.705,28.2,0.975166666666667,0.83982,-0.4887,0.10888,-15.1525,16.057,35.935,742.414,1,0,1,1
24-May-2018 14:38:44,-549.5,0.0908714285714286,-0.882571428571428,-0.389657142857143,0.57,-0.6255,0.275333333333333,0.201,0,0,0,0,0,0,0,-0.3875125,-0.9249125,0.0711125,9.9155,-24.705,28.2,0.975166666666667,0.83982,-0.4887,0.10888,-15.1525,16.057,35.935,742.414,1,0,1,1
24-May-2018 14:38:45,-363.3,0.0908714285714286,-0.882571428571428,-0.389657142857143,0.57,-0.6255,0.275333333333333,0.201,0,0,0,0,0,0,0,-0.337542857142857,-0.873328571428571,-0.0443,-35.3833333333333,-0.633333333333334,-24.21,1.08525,0.879983333333333,-0.501133333333333,0.0875666666666667,-57.4283333333333,15.488,-57.5393333333333,683.084,1,1,1,1
24-May-2018 14:38:45,-363.3,0.0908714285714286,-0.882571428571428,-0.389657142857143,0.57,-0.6255,0.275333333333333,0.201,0,0,0,0,0,0,0,-0.337542857142857,-0.873328571428571,-0.0443,-35.3833333333333,-0.633333333333334,-24.21,1.08525,0.879983333333333,-0.501133333333333,0.0875666666666667,-57.4283333333333,15.488,-57.5393333333333,683.084,1,1,1,1
24-May-2018 14:38:45,-363.3,0.0908714285714286,-0.882571428571428,-0.389657142857143,0.57,-0.6255,0.275333333333333,0.201,0,0,0,0,0,0,0,-0.337542857142857,-0.873328571428571,-0.0443,-35.3833333333333,-0.633333333333334,-24.21,1.08525,0.879983333333333,-0.501133333333333,0.0875666666666667,-57.4283333333333,15.488,-57.5393333333333,683.084,1,1,1,1
24-May-2018 14:38:45,-363.3,0.0908714285714286,-0.882571428571428,-0.389657142857143,0.57,-0.6255,0.275333333333333,0.201,0,0,0,0,0,0,0,-0.337542857142857,-0.873328571428571,-0.0443,-35.3833333333333,-0.633333333333334,-24.21,1.08525,0.879983333333333,-0.501133333333333,0.0875666666666667,-57.4283333333333,15.488,-57.5393333333333,683.084,1,1,1,1
24-May-2018 14:38:46,-238.333333333333,0.0908714285714286,-0.882571428571428,-0.389657142857143,0.57,-0.6255,0.275333333333333,0.201,0,0,0,0,0,0,0,-0.351,-0.96164,0.12474,16.89,-8.128,27.972,0.961333333333333,0.87752,-0.4801,0.0236,-24.868,27.4695,22.561,498.366,1,1,0,1
24-May-2018 14:38:46,-238.333333333333,0.0908714285714286,-0.882571428571428,-0.389657142857143,0.57,-0.6255,0.275333333333333,0.201,0,0,0,0,0,0,0,-0.351,-0.96164,0.12474,16.89,-8.128,27.972,0.961333333333333,0.87752,-0.4801,0.0236,-24.868,27.4695,22.561,498.366,1,1,0,1
24-May-2018 14:38:46,-238.333333333333,0.0908714285714286,-0.882571428571428,-0.389657142857143,0.57,-0.6255,0.275333333333333,0.201,0,0,0,0,0,0,0,-0.351,-0.96164,0.12474,16.89,-8.128,27.972,0.961333333333333,0.87752,-0.4801,0.0236,-24.868,27.4695,22.561,498.366,1,1,0,1
24-May-2018 14:38:46,-238.333333333333,0.0908714285714286,-0.882571428571428,-0.389657142857143,0.57,-0.6255,0.275333333333333,0.201,0,0,0,0,0,0,0,-0.351,-0.96164,0.12474,16.89,-8.128,27.972,0.961333333333333,0.87752,-0.4801,0.0236,-24.868,27.4695,22.561,498.366,1,1,0,1
24-May-2018 14:38:47,-151.5,0.0908714285714286,-0.882571428571428,-0.389657142857143,0.57,-0.6255,0.275333333333333,0.201,0,0,0,0,0,0,0,-0.279433333333333,-0.861583333333333,-0.100866666666667,-13.8828571428571,22.3125714285714,-3.19585714285714,1.054,0.958542857142857,-0.467585714285714,0.0923857142857143,-20.4146,1.6708,-20.5976,469.37325,1,1,0,1
24-May-2018 14:38:47,-151.5,0.0908714285714286,-0.882571428571428,-0.389657142857143,0.57,-0.6255,0.275333333333333,0.201,0,0,0,0,0,0,0,-0.279433333333333,-0.861583333333333,-0.100866666666667,-13.8828571428571,22.3125714285714,-3.19585714285714,1.054,0.958542857142857,-0.467585714285714,0.0923857142857143,-20.4146,1.6708,-20.5976,469.37325,1,1,0,1
24-May-2018 14:38:47,-151.5,0.0908714285714286,-0.882571428571428,-0.389657142857143,0.57,-0.6255,0.275333333333333,0.201,0,0,0,0,0,0,0,-0.279433333333333,-0.861583333333333,-0.100866666666667,-13.8828571428571,22.3125714285714,-3.19585714285714,1.054,0.958542857142857,-0.467585714285714,0.0923857142857143,-20.4146,1.6708,-20.5976,469.37325,1,1,0,1
24-May-2018 14:38:47,-151.5,0.0908714285714286,-0.882571428571428,-0.389657142857143,0.57,-0.6255,0.275333333333333,0.201,0,0,0,0,0,0,0,-0.279433333333333,-0.861583333333333,-0.100866666666667,-13.8828571428571,22.3125714285714,-3.19585714285714,1.054,0.958542857142857,-0.467585714285714,0.0923857142857143,-20.4146,1.6708,-20.5976,469.37325,1,1,0,1
24-May-2018 14:38:48,-88.1,0.0908714285714286,-0.882571428571428,-0.389657142857143,0.57,-0.6255,0.275333333333333,0.201,0,0,0,0,0,0,0,-0.40335,-0.88945,0.0166666666666667,28.3425,33.9316666666667,5.83333333333333,1.0456,0.911228571428571,-0.514714285714286,0.0285,-3.087,14.031875,-1.402375,467.897333333333,1,1,0,1
24-May-2018 14:38:48,-88.1,0.0908714285714286,-0.882571428571428,-0.389657142857143,0.57,-0.6255,0.275333333333333,0.201,0,0,0,0,0,0,0,-0.40335,-0.88945,0.0166666666666667,28.3425,33.9316666666667,5.83333333333333,1.0456,0.911228571428571,-0.514714285714286,0.0285,-3.087,14.031875,-1.402375,467.897333333333,1,1,0,1
24-May-2018 14:38:48,-88.1,0.0908714285714286,-0.882571428571428,-0.389657142857143,0.57,-0.6255,0.275333333333333,0.201,0,0,0,0,0,0,0,-0.40335,-0.88945,0.0166666666666667,28.3425,33.9316666666667,5.83333333333333,1.0456,0.911228571428571,-0.514714285714286,0.0285,-3.087,14.031875,-1.402375,467.897333333333,1,1,0,1
24-May-2018 14:38:48,-88.1,0.0908714285714286,-0.882571428571428,-0.389657142857143,0.57,-0.6255,0.275333333333333,0.201,0,0,0,0,0,0,0,-0.40335,-0.88945,0.0166666666666667,28.3425,33.9316666666667,5.83333333333333,1.0456,0.911228571428571,-0.514714285714286,0.0285,-3.087,14.031875,-1.402375,467.897333333333,1,1,0,1
24-May-2018 14:38:49,73.4545454545455,0.0908714285714286,-0.882571428571428,-0.389657142857143,0.57,-0.6255,0.275333333333333,0.201,0,0,0,0,0,0,0,-0.3975125,-0.9565875,-0.1195875,0.0207500000000005,47.845,-1.84325,2.25333333333333,0.972533333333333,-0.44075,0.109416666666667,-14.5854,3.183,0.634399999999999,445.578,1,1,0,1
24-May-2018 14:38:49,73.4545454545455,0.0908714285714286,-0.882571428571428,-0.389657142857143,0.57,-0.6255,0.275333333333333,0.201,0,0,0,0,0,0,0,-0.3975125,-0.9565875,-0.1195875,0.0207500000000005,47.845,-1.84325,2.25333333333333,0.972533333333333,-0.44075,0.109416666666667,-14.5854,3.183,0.634399999999999,445.578,1,1,0,1
24-May-2018 14:38:49,73.4545454545455,0.0908714285714286,-0.882571428571428,-0.389657142857143,0.57,-0.6255,0.275333333333333,0.201,0,0,0,0,0,0,0,-0.3975125,-0.9565875,-0.1195875,0.0207500000000005,47.845,-1.84325,2.25333333333333,0.972533333333333,-0.44075,0.109416666666667,-14.5854,3.183,0.634399999999999,445.578,1,1,0,1
24-May-2018 14:38:49,73.4545454545455,0.0908714285714286,-0.882571428571428,-0.389657142857143,0.57,-0.6255,0.275333333333333,0.201,0,0,0,0,0,0,0,-0.3975125,-0.9565875,-0.1195875,0.0207500000000005,47.845,-1.84325,2.25333333333333,0.972533333333333,-0.44075,0.109416666666667,-14.5854,3.183,0.634399999999999,445.578,1,1,0,1
24-May-2018 14:38:50,1993.6,0.0908714285714286,-0.882571428571428,-0.389657142857143,0.57,-0.6255,0.275333333333333,0.201,0,0,0,0,0,0,0,-0.4531,-0.84776,0.19872,31.7633333333333,8.60333333333333,16.4008333333333,2.7405,0.94832,-0.4596,-0.01864,-35.815625,14.573125,-5.815625,435.032666666667,1,1,0,1
24-May-2018 14:38:50,1993.6,0.0908714285714286,-0.882571428571428,-0.389657142857143,0.57,-0.6255,0.275333333333333,0.201,0,0,0,0,0,0,0,-0.4531,-0.84776,0.19872,31.7633333333333,8.60333333333333,16.4008333333333,2.7405,0.94832,-0.4596,-0.01864,-35.815625,14.573125,-5.815625,435.032666666667,1,1,0,1
24-May-2018 14:38:50,1993.6,0.0908714285714286,-0.882571428571428,-0.389657142857143,0.57,-0.6255,0.275333333333333,0.201,0,0,0,0,0,0,0,-0.4531,-0.84776,0.19872,31.7633333333333,8.60333333333333,16.4008333333333,2.7405,0.94832,-0.4596,-0.01864,-35.815625,14.573125,-5.815625,435.032666666667,1,1,0,1
24-May-2018 14:38:50,1993.6,0.0908714285714286,-0.882571428571428,-0.389657142857143,0.57,-0.6255,0.275333333333333,0.201,0,0,0,0,0,0,0,-0.4531,-0.84776,0.19872,31.7633333333333,8.60333333333333,16.4008333333333,2.7405,0.94832,-0.4596,-0.01864,-35.815625,14.573125,-5.815625,435.032666666667,1,1,0,1
24-May-2018 14:38:51,2047,0.0908714285714286,-0.882571428571428,-0.389657142857143,0.57,-0.6255,0.275333333333333,0.201,0,0,0,0,0,0,0,-0.2951,-0.993475,0.029225,-16.6266666666667,18.3366666666667,-8.98333333333333,3.2542,1.02601666666667,-0.3494,0.10955,-18.6586666666667,3.618,-5.40666666666667,456.4276,1,1,1,1
24-May-2018 14:38:51,2047,0.0908714285714286,-0.882571428571428,-0.389657142857143,0.57,-0.6255,0.275333333333333,0.201,0,0,0,0,0,0,0,-0.2951,-0.993475,0.029225,-16.6266666666667,18.3366666666667,-8.98333333333333,3.2542,1.02601666666667,-0.3494,0.10955,-18.6586666666667,3.618,-5.40666666666667,456.4276,1,1,1,1
24-May-2018 14:38:51,2047,0.0908714285714286,-0.882571428571428,-0.389657142857143,0.57,-0.6255,0.275333333333333,0.201,0,0,0,0,0,0,0,-0.2951,-0.993475,0.029225,-16.6266666666667,18.3366666666667,-8.98333333333333,3.2542,1.02601666666667,-0.3494,0.10955,-18.6586666666667,3.618,-5.40666666666667,456.4276,1,1,1,1
24-May-2018 14:38:51,2047,0.0908714285714286,-0.882571428571428,-0.389657142857143,0.57,-0.6255,0.275333333333333,0.201,0,0,0,0,0,0,0,-0.2951,-0.993475,0.029225,-16.6266666666667,18.3366666666667,-8.98333333333333,3.2542,1.02601666666667,-0.3494,0.10955,-18.6586666666667,3.618,-5.40666666666667,456.4276,1,1,1,1
24-May-2018 14:38:52,2022,0.0908714285714286,-0.882571428571428,-0.389657142857143,0.57,-0.6255,0.275333333333333,0.201,0,0,0,0,0,0,0,-0.360933333333333,-0.9332,-0.0354166666666667,36.2481666666667,-0.923333333333331,32.905,2.251,0.90774,-0.4705,-0.01488,-31.5854285714286,22.77,-4.59928571428571,486.336,1,0,1,1
24-May-2018 14:38:52,2022,0.0908714285714286,-0.882571428571428,-0.389657142857143,0.57,-0.6255,0.275333333333333,0.201,0,0,0,0,0,0,0,-0.360933333333333,-0.9332,-0.0354166666666667,36.2481666666667,-0.923333333333331,32.905,2.251,0.90774,-0.4705,-0.01488,-31.5854285714286,22.77,-4.59928571428571,486.336,1,0,1,1
24-May-2018 14:38:52,2022,0.0908714285714286,-0.882571428571428,-0.389657142857143,0.57,-0.6255,0.275333333333333,0.201,0,0,0,0,0,0,0,-0.360933333333333,-0.9332,-0.0354166666666667,36.2481666666667,-0.923333333333331,32.905,2.251,0.90774,-0.4705,-0.01488,-31.5854285714286,22.77,-4.59928571428571,486.336,1,0,1,1
24-May-2018 14:38:52,2022,0.0908714285714286,-0.882571428571428,-0.389657142857143,0.57,-0.6255,0.275333333333333,0.201,0,0,0,0,0,0,0,-0.360933333333333,-0.9332,-0.0354166666666667,36.2481666666667,-0.923333333333331,32.905,2.251,0.90774,-0.4705,-0.01488,-31.5854285714286,22.77,-4.59928571428571,486.336,1,0,1,1
24-May-2018 14:38:53,1813.5,0.0908714285714286,-0.882571428571428,-0.389657142857143,0.57,-0.6255,0.275333333333333,0.201,0,0,0,0,0,0,0,-0.360933333333333,-0.9332,-0.0354166666666667,36.2481666666667,-0.923333333333331,32.905,2.251,0.865,-0.4382,0.1072,-31.5854285714286,22.77,-4.59928571428571,486.336,1,1,1,1
24-May-2018 14:38:53,1813.5,0.0908714285714286,-0.882571428571428,-0.389657142857143,0.57,-0.6255,0.275333333333333,0.201,0,0,0,0,0,0,0,-0.360933333333333,-0.9332,-0.0354166666666667,36.2481666666667,-0.923333333333331,32.905,2.251,0.865,-0.4382,0.1072,-31.5854285714286,22.77,-4.59928571428571,486.336,1,1,1,1
24-May-2018 14:38:53,1813.5,0.0908714285714286,-0.882571428571428,-0.389657142857143,0.57,-0.6255,0.275333333333333,0.201,0,0,0,0,0,0,0,-0.360933333333333,-0.9332,-0.0354166666666667,36.2481666666667,-0.923333333333331,32.905,2.251,0.865,-0.4382,0.1072,-31.5854285714286,22.77,-4.59928571428571,486.336,1,1,1,1
24-May-2018 14:38:53,1813.5,0.0908714285714286,-0.882571428571428,-0.389657142857143,0.57,-0.6255,0.275333333333333,0.201,0,0,0,0,0,0,0,0,0,0,0,0,0,0,0.865,-0.4382,0.1072,0,0,0,0,1,1,1,1
24-May-2018 14:38:54,1522,0.0908714285714286,-0.882571428571428,-0.389657142857143,0.57,-0.6255,0.275333333333333,0.201,0,0,0,0,0,0,0,-0.2781,-0.942985714285714,-0.0230285714285714,11.28875,19.8475,-1.0185,2.15233333333333,0.958466666666667,-0.333666666666667,0.0882833333333333,-29.1565,15.6096666666667,10.7825,742.471,0,1,1,0
24-May-2018 14:38:54,1522,0.0908714285714286,-0.882571428571428,-0.389657142857143,0.57,-0.6255,0.275333333333333,0.201,0,0,0,0,0,0,0,-0.2781,-0.942985714285714,-0.0230285714285714,11.28875,19.8475,-1.0185,2.15233333333333,0.958466666666667,-0.333666666666667,0.0882833333333333,-29.1565,15.6096666666667,10.7825,742.471,0,1,1,0
24-May-2018 14:38:54,1522,0.0908714285714286,-0.882571428571428,-0.389657142857143,0.57,-0.6255,0.275333333333333,0.201,0,0,0,0,0,0,0,-0.2781,-0.942985714285714,-0.0230285714285714,11.28875,19.8475,-1.0185,2.15233333333333,0.958466666666667,-0.333666666666667,0.0882833333333333,-29.1565,15.6096666666667,10.7825,742.471,0,1,1,0
24-May-2018 14:38:54,1522,0.0908714285714286,-0.882571428571428,-0.389657142857143,0.57,-0.6255,0.275333333333333,0.201,0,0,0,0,0,0,0,-0.2781,-0.942985714285714,-0.0230285714285714,11.28875,19.8475,-1.0185,2.15233333333333,0.958466666666667,-0.333666666666667,0.0882833333333333,-29.1565,15.6096666666667,10.7825,742.471,0,1,1,0
24-May-2018 14:38:55,1125.88888888889,0.0908714285714286,-0.882571428571428,-0.389657142857143,0.57,-0.6255,0.275333333333333,0.201,0,0,0,0,0,0,0,-0.385233333333333,-0.869133333333333,-0.00203333333333334,31.7832857142857,67.4428571428572,19.8767142857143,1.4404,0.894216666666667,-0.480766666666667,0.03415,-22.141875,7.416125,-6.51675,751.044,1,1,1,1
24-May-2018 14:38:55,1125.88888888889,0.0908714285714286,-0.882571428571428,-0.389657142857143,0.57,-0.6255,0.275333333333333,0.201,0,0,0,0,0,0,0,-0.385233333333333,-0.869133333333333,-0.00203333333333334,31.7832857142857,67.4428571428572,19.8767142857143,1.4404,0.894216666666667,-0.480766666666667,0.03415,-22.141875,7.416125,-6.51675,751.044,1,1,1,1
24-May-2018 14:38:55,1125.88888888889,0.0908714285714286,-0.882571428571428,-0.389657142857143,0.57,-0.6255,0.275333333333333,0.201,0,0,0,0,0,0,0,-0.385233333333333,-0.869133333333333,-0.00203333333333334,31.7832857142857,67.4428571428572,19.8767142857143,1.4404,0.894216666666667,-0.480766666666667,0.03415,-22.141875,7.416125,-6.51675,751.044,1,1,1,1
24-May-2018 14:38:55,1125.88888888889,0.0908714285714286,-0.882571428571428,-0.389657142857143,0.57,-0.6255,0.275333333333333,0.201,0,0,0,0,0,0,0,-0.385233333333333,-0.869133333333333,-0.00203333333333334,31.7832857142857,67.4428571428572,19.8767142857143,1.4404,0.894216666666667,-0.480766666666667,0.03415,-22.141875,7.416125,-6.51675,751.044,1,1,1,1
24-May-2018 14:38:56,793.181818181818,0.0908714285714286,-0.882571428571428,-0.389657142857143,0.57,-0.6255,0.275333333333333,0.201,0,0,0,0,0,0,0,-0.436566666666667,-0.862233333333333,0.132566666666667,38.3626,9.9166,20.0606,1.3564,0.951685714285714,-0.373314285714286,0.0766714285714286,-0.386499999999999,23.5773333333333,8.252,762.683,0,0,1,1
24-May-2018 14:38:56,793.181818181818,0.0908714285714286,-0.882571428571428,-0.389657142857143,0.57,-0.6255,0.275333333333333,0.201,0,0,0,0,0,0,0,-0.436566666666667,-0.862233333333333,0.132566666666667,38.3626,9.9166,20.0606,1.3564,0.951685714285714,-0.373314285714286,0.0766714285714286,-0.386499999999999,23.5773333333333,8.252,762.683,0,0,1,1
24-May-2018 14:38:56,793.181818181818,0.0908714285714286,-0.882571428571428,-0.389657142857143,0.57,-0.6255,0.275333333333333,0.201,0,0,0,0,0,0,0,-0.436566666666667,-0.862233333333333,0.132566666666667,38.3626,9.9166,20.0606,1.3564,0.951685714285714,-0.373314285714286,0.0766714285714286,-0.386499999999999,23.5773333333333,8.252,762.683,0,0,1,1
24-May-2018 14:38:56,793.181818181818,0.0908714285714286,-0.882571428571428,-0.389657142857143,0.57,-0.6255,0.275333333333333,0.201,0,0,0,0,0,0,0,-0.436566666666667,-0.862233333333333,0.132566666666667,38.3626,9.9166,20.0606,1.3564,0.951685714285714,-0.373314285714286,0.0766714285714286,-0.386499999999999,23.5773333333333,8.252,762.683,0,0,1,1
24-May-2018 14:38:57,552.5,0.0908714285714286,-0.882571428571428,-0.389657142857143,0.57,-0.6255,0.275333333333333,0.201,0,0,0,0,0,0,0,-0.53974,-0.93912,-0.02008,-23.4424285714286,18.6818571428571,-19.6442857142857,1.38325,0.9402,-0.462457142857143,0.0136571428571429,-5.68714285714286,11.9425714285714,-4.068,763.763,1,0,1,1
24-May-2018 14:38:57,552.5,0.0908714285714286,-0.882571428571428,-0.389657142857143,0.57,-0.6255,0.275333333333333,0.201,0,0,0,0,0,0,0,-0.53974,-0.93912,-0.02008,-23.4424285714286,18.6818571428571,-19.6442857142857,1.38325,0.9402,-0.462457142857143,0.0136571428571429,-5.68714285714286,11.9425714285714,-4.068,763.763,1,0,1,1
24-May-2018 14:38:57,552.5,0.0908714285714286,-0.882571428571428,-0.389657142857143,0.57,-0.6255,0.275333333333333,0.201,0,0,0,0,0,0,0,-0.53974,-0.93912,-0.02008,-23.4424285714286,18.6818571428571,-19.6442857142857,1.38325,0.9402,-0.462457142857143,0.0136571428571429,-5.68714285714286,11.9425714285714,-4.068,763.763,1,0,1,1
24-May-2018 14:38:57,552.5,0.0908714285714286,-0.882571428571428,-0.389657142857143,0.57,-0.6255,0.275333333333333,0.201,0,0,0,0,0,0,0,-0.53974,-0.93912,-0.02008,-23.4424285714286,18.6818571428571,-19.6442857142857,1.38325,0.9402,-0.462457142857143,0.0136571428571429,-5.68714285714286,11.9425714285714,-4.068,763.763,1,0,1,1
24-May-2018 14:38:58,391.363636363636,0.0908714285714286,-0.882571428571428,-0.389657142857143,0.57,-0.6255,0.275333333333333,0.201,0,0,0,0,0,0,0,-0.386171428571429,-0.945542857142857,0.1592,16.1966666666667,9.71333333333333,9.67166666666667,1.0116,1.03204,-0.39156,0.06908,-39.9585,23.2925,4.9795,737.1474,1,1,1,1
24-May-2018 14:38:58,391.363636363636,0.0908714285714286,-0.882571428571428,-0.389657142857143,0.57,-0.6255,0.275333333333333,0.201,0,0,0,0,0,0,0,-0.386171428571429,-0.945542857142857,0.1592,16.1966666666667,9.71333333333333,9.67166666666667,1.0116,1.03204,-0.39156,0.06908,-39.9585,23.2925,4.9795,737.1474,1,1,1,1
24-May-2018 14:38:58,391.363636363636,0.0908714285714286,-0.882571428571428,-0.389657142857143,0.57,-0.6255,0.275333333333333,0.201,0,0,0,0,0,0,0,-0.386171428571429,-0.945542857142857,0.1592,16.1966666666667,9.71333333333333,9.67166666666667,1.0116,1.03204,-0.39156,0.06908,-39.9585,23.2925,4.9795,737.1474,1,1,1,1
24-May-2018 14:38:58,391.363636363636,0.0908714285714286,-0.882571428571428,-0.389657142857143,0.57,-0.6255,0.275333333333333,0.201,0,0,0,0,0,0,0,-0.386171428571429,-0.945542857142857,0.1592,16.1966666666667,9.71333333333333,9.67166666666667,1.0116,1.03204,-0.39156,0.06908,-39.9585,23.2925,4.9795,737.1474,1,1,1,1
24-May-2018 14:38:59,-52.5555555555556,0.0908714285714286,-0.882571428571428,-0.389657142857143,0.57,-0.6255,0.275333333333333,0.201,0,0,0,0,0,0,0,-0.3927,-0.925966666666667,-0.131166666666667,12.108375,3.50875,-3.185,0.942,0.908271428571428,-0.389557142857143,0.0542571428571429,-78.4654285714286,27.3518571428571,-26.1145714285714,508.877,1,1,1,1
24-May-2018 14:38:59,-52.5555555555556,0.0908714285714286,-0.882571428571428,-0.389657142857143,0.57,-0.6255,0.275333333333333,0.201,0,0,0,0,0,0,0,-0.3927,-0.925966666666667,-0.131166666666667,12.108375,3.50875,-3.185,0.942,0.908271428571428,-0.389557142857143,0.0542571428571429,-78.4654285714286,27.3518571428571,-26.1145714285714,508.877,1,1,1,1
24-May-2018 14:38:59,-52.5555555555556,0.0908714285714286,-0.882571428571428,-0.389657142857143,0.57,-0.6255,0.275333333333333,0.201,0,0,0,0,0,0,0,-0.3927,-0.925966666666667,-0.131166666666667,12.108375,3.50875,-3.185,0.942,0.908271428571428,-0.389557142857143,0.0542571428571429,-78.4654285714286,27.3518571428571,-26.1145714285714,508.877,1,1,1,1
24-May-2018 14:38:59,-52.5555555555556,0.0908714285714286,-0.882571428571428,-0.389657142857143,0.57,-0.6255,0.275333333333333,0.201,0,0,0,0,0,0,0,-0.3927,-0.925966666666667,-0.131166666666667,12.108375,3.50875,-3.185,0.942,0.908271428571428,-0.389557142857143,0.0542571428571429,-78.4654285714286,27.3518571428571,-26.1145714285714,508.877,1,1,1,1
24-May-2018 14:39:00,-2048,0.0908714285714286,-0.882571428571428,-0.389657142857143,0.57,-0.6255,0.275333333333333,0.201,0,0,0,0,0,0,0,-0.40334,-0.87512,0.22818,26.6164285714286,9.43342857142857,5.25842857142857,0.9405,1.0043,-0.4607,0.0643333333333333,-27.8555,18.6788333333333,30.9146666666667,458.2385,0,1,0,1
24-May-2018 14:39:00,-2048,0.0908714285714286,-0.882571428571428,-0.389657142857143,0.57,-0.6255,0.275333333333333,0.201,0,0,0,0,0,0,0,-0.40334,-0.87512,0.22818,26.6164285714286,9.43342857142857,5.25842857142857,0.9405,1.0043,-0.4607,0.0643333333333333,-27.8555,18.6788333333333,30.9146666666667,458.2385,0,1,0,1
24-May-2018 14:39:00,-2048,0.0908714285714286,-0.882571428571428,-0.389657142857143,0.57,-0.6255,0.275333333333333,0.201,0,0,0,0,0,0,0,-0.40334,-0.87512,0.22818,26.6164285714286,9.43342857142857,5.25842857142857,0.9405,1.0043,-0.4607,0.0643333333333333,-27.8555,18.6788333333333,30.9146666666667,458.2385,0,1,0,1
24-May-2018 14:39:00,-2048,0.0908714285714286,-0.882571428571428,-0.389657142857143,0.57,-0.6255,0.275333333333333,0.201,0,0,0,0,0,0,0,-0.40334,-0.87512,0.22818,26.6164285714286,9.43342857142857,5.25842857142857,0.9405,1.0043,-0.4607,0.0643333333333333,-27.8555,18.6788333333333,30.9146666666667,458.2385,0,1,0,1
24-May-2018 14:39:01,-2048,0.0908714285714286,-0.882571428571428,-0.389657142857143,0.57,-0.6255,0.275333333333333,0.201,0,0,0,0,0,0,0,-0.354157142857143,-0.934171428571429,0.0463285714285714,44.6216666666667,37.5788333333333,8.85883333333333,1.007,0.944157142857143,-0.429585714285714,0.0834142857142857,-17.797375,1.8675,-25.449375,449.736,0,1,0,0
24-May-2018 14:39:01,-2048,0.0908714285714286,-0.882571428571428,-0.389657142857143,0.57,-0.6255,0.275333333333333,0.201,0,0,0,0,0,0,0,-0.354157142857143,-0.934171428571429,0.0463285714285714,44.6216666666667,37.5788333333333,8.85883333333333,1.007,0.944157142857143,-0.429585714285714,0.0834142857142857,-17.797375,1.8675,-25.449375,449.736,0,1,0,0
24-May-2018 14:39:01,-2048,0.0908714285714286,-0.882571428571428,-0.389657142857143,0.57,-0.6255,0.275333333333333,0.201,0,0,0,0,0,0,0,-0.354157142857143,-0.934171428571429,0.0463285714285714,44.6216666666667,37.5788333333333,8.85883333333333,1.007,0.944157142857143,-0.429585714285714,0.0834142857142857,-17.797375,1.8675,-25.449375,449.736,0,1,0,0
24-May-2018 14:39:01,-2048,0.0908714285714286,-0.882571428571428,-0.389657142857143,0.57,-0.6255,0.275333333333333,0.201,0,0,0,0,0,0,0,-0.354157142857143,-0.934171428571429,0.0463285714285714,44.6216666666667,37.5788333333333,8.85883333333333,1.007,0.944157142857143,-0.429585714285714,0.0834142857142857,-17.797375,1.8675,-25.449375,449.736,0,1,0,0
24-May-2018 14:39:02,-1842.9,0.0908714285714286,-0.882571428571428,-0.389657142857143,0.57,-0.6255,0.275333333333333,0.201,0,0,0,0,0,0,0,-0.40705,-0.9634,-0.0395666666666667,-17.2118333333333,44.63,-14.7116666666667,2.1254,0.999614285714286,-0.501714285714286,0.00594285714285715,30.7318571428571,-21.6115714285714,-24.6157142857143,423.267,1,1,0,0
24-May-2018 14:39:02,-1842.9,0.0908714285714286,-0.882571428571428,-0.389657142857143,0.57,-0.6255,0.275333333333333,0.201,0,0,0,0,0,0,0,-0.40705,-0.9634,-0.0395666666666667,-17.2118333333333,44.63,-14.7116666666667,2.1254,0.999614285714286,-0.501714285714286,0.00594285714285715,30.7318571428571,-21.6115714285714,-24.6157142857143,423.267,1,1,0,0
24-May-2018 14:39:02,-1842.9,0.0908714285714286,-0.882571428571428,-0.389657142857143,0.57,-0.6255,0.275333333333333,0.201,0,0,0,0,0,0,0,-0.40705,-0.9634,-0.0395666666666667,-17.2118333333333,44.63,-14.7116666666667,2.1254,0.999614285714286,-0.501714285714286,0.00594285714285715,30.7318571428571,-21.6115714285714,-24.6157142857143,423.267,1,1,0,0
24-May-2018 14:39:02,-1842.9,0.0908714285714286,-0.882571428571428,-0.389657142857143,0.57,-0.6255,0.275333333333333,0.201,0,0,0,0,0,0,0,-0.40705,-0.9634,-0.0395666666666667,-17.2118333333333,44.63,-14.7116666666667,2.1254,0.999614285714286,-0.501714285714286,0.00594285714285715,30.7318571428571,-21.6115714285714,-24.6157142857143,423.267,1,1,0,0
24-May-2018 14:39:03,-1273.6,0.0908714285714286,-0.882571428571428,-0.389657142857143,0.57,-0.6255,0.275333333333333,0.201,0,0,0,0,0,0,0,-0.404525,-0.8517875,0.17455,34.5038571428571,23.691,16.0611428571429,2.731,0.98875,-0.4495,0.0286833333333333,-27.93225,16.7075,4.7485,448.738333333333,1,1,0,1
24-May-2018 14:39:03,-1273.6,0.0908714285714286,-0.882571428571428,-0.389657142857143,0.57,-0.6255,0.275333333333333,0.201,0,0,0,0,0,0,0,-0.404525,-0.8517875,0.17455,34.5038571428571,23.691,16.0611428571429,2.731,0.98875,-0.4495,0.0286833333333333,-27.93225,16.7075,4.7485,448.738333333333,1,1,0,1
24-May-2018 14:39:03,-1273.6,0.0908714285714286,-0.882571428571428,-0.389657142857143,0.57,-0.6255,0.275333333333333,0.201,0,0,0,0,0,0,0,-0.404525,-0.8517875,0.17455,34.5038571428571,23.691,16.0611428571429,2.731,0.98875,-0.4495,0.0286833333333333,-27.93225,16.7075,4.7485,448.738333333333,1,1,0,1
24-May-2018 14:39:03,-1273.6,0.0908714285714286,-0.882571428571428,-0.389657142857143,0.57,-0.6255,0.275333333333333,0.201,0,0,0,0,0,0,0,-0.404525,-0.8517875,0.17455,34.5038571428571,23.691,16.0611428571429,2.731,0.98875,-0.4495,0.0286833333333333,-27.93225,16.7075,4.7485,448.738333333333,1,1,0,1
24-May-2018 14:39:04,-877.555555555556,0.0908714285714286,-0.882571428571428,-0.389657142857143,0.57,-0.6255,0.275333333333333,0.201,0,0,0,0,0,0,0,-0.40616,-0.95472,-0.11658,14.354,38.37,15.0298571428571,2.8512,0.895971428571429,-0.503785714285714,-0.0057,-60.8522,26.0612,-19.183,477.328,1,0,1,1
24-May-2018 14:39:04,-877.555555555556,0.0908714285714286,-0.882571428571428,-0.389657142857143,0.57,-0.6255,0.275333333333333,0.201,0,0,0,0,0,0,0,-0.40616,-0.95472,-0.11658,14.354,38.37,15.0298571428571,2.8512,0.895971428571429,-0.503785714285714,-0.0057,-60.8522,26.0612,-19.183,477.328,1,0,1,1
24-May-2018 14:39:04,-877.555555555556,0.0908714285714286,-0.882571428571428,-0.389657142857143,0.57,-0.6255,0.275333333333333,0.201,0,0,0,0,0,0,0,-0.40616,-0.95472,-0.11658,14.354,38.37,15.0298571428571,2.8512,0.895971428571429,-0.503785714285714,-0.0057,-60.8522,26.0612,-19.183,477.328,1,0,1,1
24-May-2018 14:39:04,-877.555555555556,0.0908714285714286,-0.882571428571428,-0.389657142857143,0.57,-0.6255,0.275333333333333,0.201,0,0,0,0,0,0,0,-0.40616,-0.95472,-0.11658,14.354,38.37,15.0298571428571,2.8512,0.895971428571429,-0.503785714285714,-0.0057,-60.8522,26.0612,-19.183,477.328,1,0,1,1
24-May-2018 14:39:05,-601.2,0.0908714285714286,-0.882571428571428,-0.389657142857143,0.57,-0.6255,0.275333333333333,0.201,0,0,0,0,0,0,0,-0.38976,-0.86972,0.16878,-31.7775,32.5895,-35.3075,2.26475,0.990433333333333,-0.3153,0.0674,-35.426,22.408625,12.10375,544.789,1,1,1,1
24-May-2018 14:39:05,-601.2,0.0908714285714286,-0.882571428571428,-0.389657142857143,0.57,-0.6255,0.275333333333333,0.201,0,0,0,0,0,0,0,-0.38976,-0.86972,0.16878,-31.7775,32.5895,-35.3075,2.26475,0.990433333333333,-0.3153,0.0674,-35.426,22.408625,12.10375,544.789,1,1,1,1
24-May-2018 14:39:05,-601.2,0.0908714285714286,-0.882571428571428,-0.389657142857143,0.57,-0.6255,0.275333333333333,0.201,0,0,0,0,0,0,0,-0.38976,-0.86972,0.16878,-31.7775,32.5895,-35.3075,2.26475,0.990433333333333,-0.3153,0.0674,-35.426,22.408625,12.10375,544.789,1,1,1,1
24-May-2018 14:39:05,-601.2,0.0908714285714286,-0.882571428571428,-0.389657142857143,0.57,-0.6255,0.275333333333333,0.201,0,0,0,0,0,0,0,-0.38976,-0.86972,0.16878,-31.7775,32.5895,-35.3075,2.26475,0.990433333333333,-0.3153,0.0674,-35.426,22.408625,12.10375,544.789,1,1,1,1
24-May-2018 14:39:06,-398.1,0.0908714285714286,-0.882571428571428,-0.389657142857143,0.57,-0.6255,0.275333333333333,0.201,0,0,0,0,0,0,0,-0.364416666666667,-0.951583333333333,0.0217166666666667,15.9264,10.414,1.074,1.6528,0.929985714285714,-0.454285714285714,0.0777857142857143,-41.5143333333333,25.6808333333333,-4.065,542.6405,1,1,1,1
24-May-2018 14:39:06,-398.1,0.0908714285714286,-0.882571428571428,-0.389657142857143,0.57,-0.6255,0.275333333333333,0.201,0,0,0,0,0,0,0,-0.364416666666667,-0.951583333333333,0.0217166666666667,15.9264,10.414,1.074,1.6528,0.929985714285714,-0.454285714285714,0.0777857142857143,-41.5143333333333,25.6808333333333,-4.065,542.6405,1,1,1,1
24-May-2018 14:39:06,-398.1,0.0908714285714286,-0.882571428571428,-0.389657142857143,0.57,-0.6255,0.275333333333333,0.201,0,0,0,0,0,0,0,-0.364416666666667,-0.951583333333333,0.0217166666666667,15.9264,10.414,1.074,1.6528,0.929985714285714,-0.454285714285714,0.0777857142857143,-41.5143333333333,25.6808333333333,-4.065,542.6405,1,1,1,1
24-May-2018 14:39:06,-398.1,0.0908714285714286,-0.882571428571428,-0.389657142857143,0.57,-0.6255,0.275333333333333,0.201,0,0,0,0,0,0,0,-0.364416666666667,-0.951583333333333,0.0217166666666667,15.9264,10.414,1.074,1.6528,0.929985714285714,-0.454285714285714,0.0777857142857143,-41.5143333333333,25.6808333333333,-4.065,542.6405,1,1,1,1
24-May-2018 14:39:07,-252.181818181818,0.0908714285714286,-0.882571428571428,-0.389657142857143,0.57,-0.6255,0.275333333333333,0.201,0,0,0,0,0,0,0,-0.277342857142857,-0.977885714285714,-0.0211285714285714,19.278,64.2533333333333,-1.6305,1.411,0.947228571428571,-0.383957142857143,0.1064,-17.68275,13.91125,-3.208875,751.212,1,1,1,1
24-May-2018 14:39:07,-252.181818181818,0.0908714285714286,-0.882571428571428,-0.389657142857143,0.57,-0.6255,0.275333333333333,0.201,0,0,0,0,0,0,0,-0.277342857142857,-0.977885714285714,-0.0211285714285714,19.278,64.2533333333333,-1.6305,1.411,0.947228571428571,-0.383957142857143,0.1064,-17.68275,13.91125,-3.208875,751.212,1,1,1,1
24-May-2018 14:39:07,-252.181818181818,0.0908714285714286,-0.882571428571428,-0.389657142857143,0.57,-0.6255,0.275333333333333,0.201,0,0,0,0,0,0,0,-0.277342857142857,-0.977885714285714,-0.0211285714285714,19.278,64.2533333333333,-1.6305,1.411,0.947228571428571,-0.383957142857143,0.1064,-17.68275,13.91125,-3.208875,751.212,1,1,1,1
24-May-2018 14:39:07,-252.181818181818,0.0908714285714286,-0.882571428571428,-0.389657142857143,0.57,-0.6255,0.275333333333333,0.201,0,0,0,0,0,0,0,-0.277342857142857,-0.977885714285714,-0.0211285714285714,19.278,64.2533333333333,-1.6305,1.411,0.947228571428571,-0.383957142857143,0.1064,-17.68275,13.91125,-3.208875,751.212,1,1,1,1
24-May-2018 14:39:08,-157,0.0908714285714286,-0.882571428571428,-0.389657142857143,0.57,-0.6255,0.275333333333333,0.201,0,0,0,0,0,0,0,-0.336583333333333,-0.9311,0.117716666666667,-6.09883333333333,40.9116666666667,-5.07833333333333,1.27333333333333,0.90982,-0.48184,0.18642,-13.4754444444444,-1.32755555555556,-10.5345555555556,843.652,1,1,1,0
24-May-2018 14:39:08,-157,0.0908714285714286,-0.882571428571428,-0.389657142857143,0.57,-0.6255,0.275333333333333,0.201,0,0,0,0,0,0,0,-0.336583333333333,-0.9311,0.117716666666667,-6.09883333333333,40.9116666666667,-5.07833333333333,1.27333333333333,0.90982,-0.48184,0.18642,-13.4754444444444,-1.32755555555556,-10.5345555555556,843.652,1,1,1,0
24-May-2018 14:39:08,-157,0.0908714285714286,-0.882571428571428,-0.389657142857143,0.57,-0.6255,0.275333333333333,0.201,0,0,0,0,0,0,0,-0.336583333333333,-0.9311,0.117716666666667,-6.09883333333333,40.9116666666667,-5.07833333333333,1.27333333333333,0.90982,-0.48184,0.18642,-13.4754444444444,-1.32755555555556,-10.5345555555556,843.652,1,1,1,0
24-May-2018 14:39:08,-157,0.0908714285714286,-0.882571428571428,-0.389657142857143,0.57,-0.6255,0.275333333333333,0.201,0,0,0,0,0,0,0,-0.336583333333333,-0.9311,0.117716666666667,-6.09883333333333,40.9116666666667,-5.07833333333333,1.27333333333333,0.90982,-0.48184,0.18642,-13.4754444444444,-1.32755555555556,-10.5345555555556,843.652,1,1,1,0
24-May-2018 14:39:09,-104.333333333333,0.0908714285714286,-0.882571428571428,-0.389657142857143,0.57,-0.6255,0.275333333333333,0.201,0,0,0,0,0,0,0,-0.316657142857143,-0.914385714285714,-0.0346142857142857,29.2385714285714,-7.40571428571429,20.033,0.7965,0.9573375,-0.461475,0.0256375,-26.0091428571429,17.5177142857143,-28.9365714285714,835.463,1,0,1,0
24-May-2018 14:39:09,-104.333333333333,0.0908714285714286,-0.882571428571428,-0.389657142857143,0.57,-0.6255,0.275333333333333,0.201,0,0,0,0,0,0,0,-0.316657142857143,-0.914385714285714,-0.0346142857142857,29.2385714285714,-7.40571428571429,20.033,0.7965,0.9573375,-0.461475,0.0256375,-26.0091428571429,17.5177142857143,-28.9365714285714,835.463,1,0,1,0
24-May-2018 14:39:09,-104.333333333333,0.0908714285714286,-0.882571428571428,-0.389657142857143,0.57,-0.6255,0.275333333333333,0.201,0,0,0,0,0,0,0,-0.316657142857143,-0.914385714285714,-0.0346142857142857,29.2385714285714,-7.40571428571429,20.033,0.7965,0.9573375,-0.461475,0.0256375,-26.0091428571429,17.5177142857143,-28.9365714285714,835.463,1,0,1,0
24-May-2018 14:39:09,-104.333333333333,0.0908714285714286,-0.882571428571428,-0.389657142857143,0.57,-0.6255,0.275333333333333,0.201,0,0,0,0,0,0,0,-0.316657142857143,-0.914385714285714,-0.0346142857142857,29.2385714285714,-7.40571428571429,20.033,0.7965,0.9573375,-0.461475,0.0256375,-26.0091428571429,17.5177142857143,-28.9365714285714,835.463,1,0,1,0
24-May-2018 14:39:10,970.818181818182,0.0908714285714286,-0.882571428571428,-0.389657142857143,0.57,-0.6255,0.275333333333333,0.201,0,0,0,0,0,0,0,-0.418733333333333,-0.85355,0.0475666666666667,-14.048,23.6242,-7.8658,0.933666666666667,1.01938333333333,-0.43805,0.0721666666666667,-41.1377777777778,31.8767777777778,-4.40988888888889,579.842333333333,0,0,1,0
24-May-2018 14:39:10,970.818181818182,0.0908714285714286,-0.882571428571428,-0.389657142857143,0.57,-0.6255,0.275333333333333,0.201,0,0,0,0,0,0,0,-0.418733333333333,-0.85355,0.0475666666666667,-14.048,23.6242,-7.8658,0.933666666666667,1.01938333333333,-0.43805,0.0721666666666667,-41.1377777777778,31.8767777777778,-4.40988888888889,579.842333333333,0,0,1,0
24-May-2018 14:39:10,970.818181818182,0.0908714285714286,-0.882571428571428,-0.389657142857143,0.57,-0.6255,0.275333333333333,0.201,0,0,0,0,0,0,0,-0.418733333333333,-0.85355,0.0475666666666667,-14.048,23.6242,-7.8658,0.933666666666667,1.01938333333333,-0.43805,0.0721666666666667,-41.1377777777778,31.8767777777778,-4.40988888888889,579.842333333333,0,0,1,0
24-May-2018 14:39:10,970.818181818182,0.0908714285714286,-0.882571428571428,-0.389657142857143,0.57,-0.6255,0.275333333333333,0.201,0,0,0,0,0,0,0,-0.418733333333333,-0.85355,0.0475666666666667,-14.048,23.6242,-7.8658,0.933666666666667,1.01938333333333,-0.43805,0.0721666666666667,-41.1377777777778,31.8767777777778,-4.40988888888889,579.842333333333,0,0,1,0
24-May-2018 14:39:11,2047,0.0908714285714286,-0.882571428571428,-0.389657142857143,0.57,-0.6255,0.275333333333333,0.201,0,0,0,0,0,0,0,-0.34102,-0.88544,0.10506,41.7683333333333,56.6916666666667,-2.09983333333333,0.841,0.974557142857143,-0.444428571428571,0.0657142857142857,-44.695,20.8638333333333,2.01216666666667,490.076666666667,1,1,1,1
24-May-2018 14:39:11,2047,0.0908714285714286,-0.882571428571428,-0.389657142857143,0.57,-0.6255,0.275333333333333,0.201,0,0,0,0,0,0,0,-0.34102,-0.88544,0.10506,41.7683333333333,56.6916666666667,-2.09983333333333,0.841,0.974557142857143,-0.444428571428571,0.0657142857142857,-44.695,20.8638333333333,2.01216666666667,490.076666666667,1,1,1,1
24-May-2018 14:39:11,2047,0.0908714285714286,-0.882571428571428,-0.389657142857143,0.57,-0.6255,0.275333333333333,0.201,0,0,0,0,0,0,0,-0.34102,-0.88544,0.10506,41.7683333333333,56.6916666666667,-2.09983333333333,0.841,0.974557142857143,-0.444428571428571,0.0657142857142857,-44.695,20.8638333333333,2.01216666666667,490.076666666667,1,1,1,1
24-May-2018 14:39:11,2047,0.0908714285714286,-0.882571428571428,-0.389657142857143,0.57,-0.6255,0.275333333333333,0.201,0,0,0,0,0,0,0,-0.34102,-0.88544,0.10506,41.7683333333333,56.6916666666667,-2.09983333333333,0.841,0.974557142857143,-0.444428571428571,0.0657142857142857,-44.695,20.8638333333333,2.01216666666667,490.076666666667,1,1,1,1
24-May-2018 14:39:12,2047,0.0908714285714286,-0.882571428571428,-0.389657142857143,0.57,-0.6255,0.275333333333333,0.201,0,0,0,0,0,0,0,-0.4083,-0.97636,-0.03784,18.8821666666667,0.944999999999996,11.7268333333333,2.1235,0.94135,-0.3067,-0.00631666666666667,15.947,-13.23075,-4.663875,490.011666666667,0,0,1,1
24-May-2018 14:39:12,2047,0.0908714285714286,-0.882571428571428,-0.389657142857143,0.57,-0.6255,0.275333333333333,0.201,0,0,0,0,0,0,0,-0.4083,-0.97636,-0.03784,18.8821666666667,0.944999999999996,11.7268333333333,2.1235,0.94135,-0.3067,-0.00631666666666667,15.947,-13.23075,-4.663875,490.011666666667,0,0,1,1
24-May-2018 14:39:12,2047,0.0908714285714286,-0.882571428571428,-0.389657142857143,0.57,-0.6255,0.275333333333333,0.201,0,0,0,0,0,0,0,-0.4083,-0.97636,-0.03784,18.8821666666667,0.944999999999996,11.7268333333333,2.1235,0.94135,-0.3067,-0.00631666666666667,15.947,-13.23075,-4.663875,490.011666666667,0,0,1,1
24-May-2018 14:39:12,2047,0.0908714285714286,-0.882571428571428,-0.389657142857143,0.57,-0.6255,0.275333333333333,0.201,0,0,0,0,0,0,0,-0.4083,-0.97636,-0.03784,18.8821666666667,0.944999999999996,11.7268333333333,2.1235,0.94135,-0.3067,-0.00631666666666667,15.947,-13.23075,-4.663875,490.011666666667,0,0,1,1
24-May-2018 14:39:13,315.181818181818,0.0908714285714286,-0.882571428571428,-0.389657142857143,0.57,-0.6255,0.275333333333333,0.201,0,0,0,0,0,0,0,-0.3738125,-0.989525,0.131075,-9.822,24.512,-3.3242,2.49275,0.924,-0.421757142857143,0.123085714285714,-16.3311666666667,8.59766666666667,-13.4653333333333,462.148333333333,1,1,1,1
24-May-2018 14:39:13,315.181818181818,0.0908714285714286,-0.882571428571428,-0.389657142857143,0.57,-0.6255,0.275333333333333,0.201,0,0,0,0,0,0,0,-0.3738125,-0.989525,0.131075,-9.822,24.512,-3.3242,2.49275,0.924,-0.421757142857143,0.123085714285714,-16.3311666666667,8.59766666666667,-13.4653333333333,462.148333333333,1,1,1,1
24-May-2018 14:39:13,315.181818181818,0.0908714285714286,-0.882571428571428,-0.389657142857143,0.57,-0.6255,0.275333333333333,0.201,0,0,0,0,0,0,0,-0.3738125,-0.989525,0.131075,-9.822,24.512,-3.3242,2.49275,0.924,-0.421757142857143,0.123085714285714,-16.3311666666667,8.59766666666667,-13.4653333333333,462.148333333333,1,1,1,1
24-May-2018 14:39:13,315.181818181818,0.0908714285714286,-0.882571428571428,-0.389657142857143,0.57,-0.6255,0.275333333333333,0.201,0,0,0,0,0,0,0,-0.3738125,-0.989525,0.131075,-9.822,24.512,-3.3242,2.49275,0.924,-0.421757142857143,0.123085714285714,-16.3311666666667,8.59766666666667,-13.4653333333333,462.148333333333,1,1,1,1
24-May-2018 14:39:14,-26.1,0.0908714285714286,-0.882571428571428,-0.389657142857143,0.57,-0.6255,0.275333333333333,0.201,0,0,0,0,0,0,0,-0.3442,-0.9759,0.14072,-2.59357142857143,-4.07228571428571,-4.87942857142857,2.6455,0.939642857142857,-0.449614285714286,0.0586857142857143,12.2156666666667,22.2966666666667,32.3066666666667,499.682,1,1,1,1
24-May-2018 14:39:14,-26.1,0.0908714285714286,-0.882571428571428,-0.389657142857143,0.57,-0.6255,0.275333333333333,0.201,0,0,0,0,0,0,0,-0.3442,-0.9759,0.14072,-2.59357142857143,-4.07228571428571,-4.87942857142857,2.6455,0.939642857142857,-0.449614285714286,0.0586857142857143,12.2156666666667,22.2966666666667,32.3066666666667,499.682,1,1,1,1
24-May-2018 14:39:14,-26.1,0.0908714285714286,-0.882571428571428,-0.389657142857143,0.57,-0.6255,0.275333333333333,0.201,0,0,0,0,0,0,0,-0.3442,-0.9759,0.14072,-2.59357142857143,-4.07228571428571,-4.87942857142857,2.6455,0.939642857142857,-0.449614285714286,0.0586857142857143,12.2156666666667,22.2966666666667,32.3066666666667,499.682,1,1,1,1
24-May-2018 14:39:14,-26.1,0.0908714285714286,-0.882571428571428,-0.389657142857143,0.57,-0.6255,0.275333333333333,0.201,0,0,0,0,0,0,0,-0.3442,-0.9759,0.14072,-2.59357142857143,-4.07228571428571,-4.87942857142857,2.6455,0.939642857142857,-0.449614285714286,0.0586857142857143,12.2156666666667,22.2966666666667,32.3066666666667,499.682,1,1,1,1
24-May-2018 14:39:15,213.090909090909,0.0908714285714286,-0.882571428571428,-0.389657142857143,0.57,-0.6255,0.275333333333333,0.201,0,0,0,0,0,0,0,-0.3337,-0.956366666666667,0.06175,-1.11566666666667,-7.00516666666667,-1.19483333333333,2.817,0.617466666666667,-0.4041,0.395233333333333,-24.0741666666667,73.6076666666667,-3.4135,620.92825,1,1,1,1
24-May-2018 14:39:15,213.090909090909,0.0908714285714286,-0.882571428571428,-0.389657142857143,0.57,-0.6255,0.275333333333333,0.201,0,0,0,0,0,0,0,-0.3337,-0.956366666666667,0.06175,-1.11566666666667,-7.00516666666667,-1.19483333333333,2.817,0.617466666666667,-0.4041,0.395233333333333,-24.0741666666667,73.6076666666667,-3.4135,620.92825,1,1,1,1
24-May-2018 14:39:15,213.090909090909,0.0908714285714286,-0.882571428571428,-0.389657142857143,0.57,-0.6255,0.275333333333333,0.201,0,0,0,0,0,0,0,-0.3337,-0.956366666666667,0.06175,-1.11566666666667,-7.00516666666667,-1.19483333333333,2.817,0.617466666666667,-0.4041,0.395233333333333,-24.0741666666667,73.6076666666667,-3.4135,620.92825,1,1,1,1
24-May-2018 14:39:15,213.090909090909,0.0908714285714286,-0.882571428571428,-0.389657142857143,0.57,-0.6255,0.275333333333333,0.201,0,0,0,0,0,0,0,-0.3337,-0.956366666666667,0.06175,-1.11566666666667,-7.00516666666667,-1.19483333333333,2.817,0.617466666666667,-0.4041,0.395233333333333,-24.0741666666667,73.6076666666667,-3.4135,620.92825,1,1,1,1
24-May-2018 14:39:16,2047,0.0908714285714286,-0.882571428571428,-0.389657142857143,0.57,-0.6255,0.275333333333333,0.201,0,0,0,0,0,0,0,-0.345225,-0.95455,0.0883,0.818,1.329875,0.35225,3.105,1.0354,-0.53564,-0.0423,-45.7605,18.26225,-9.305,700.775,1,1,1,1
24-May-2018 14:39:16,2047,0.0908714285714286,-0.882571428571428,-0.389657142857143,0.57,-0.6255,0.275333333333333,0.201,0,0,0,0,0,0,0,-0.345225,-0.95455,0.0883,0.818,1.329875,0.35225,3.105,1.0354,-0.53564,-0.0423,-45.7605,18.26225,-9.305,700.775,1,1,1,1
24-May-2018 14:39:16,2047,0.0908714285714286,-0.882571428571428,-0.389657142857143,0.57,-0.6255,0.275333333333333,0.201,0,0,0,0,0,0,0,-0.345225,-0.95455,0.0883,0.818,1.329875,0.35225,3.105,1.0354,-0.53564,-0.0423,-45.7605,18.26225,-9.305,700.775,1,1,1,1
24-May-2018 14:39:16,2047,0.0908714285714286,-0.882571428571428,-0.389657142857143,0.57,-0.6255,0.275333333333333,0.201,0,0,0,0,0,0,0,-0.345225,-0.95455,0.0883,0.818,1.329875,0.35225,3.105,1.0354,-0.53564,-0.0423,-45.7605,18.26225,-9.305,700.775,1,1,1,1
24-May-2018 14:39:17,2047,0.0908714285714286,-0.882571428571428,-0.389657142857143,0.57,-0.6255,0.275333333333333,0.201,0,0,0,0,0,0,0,-0.33765,-0.956683333333333,0.07955,-1.82666666666667,-2.01966666666667,-1.215,2.89975,0.9569,-0.30198,0.16116,-11.1076666666667,4.01433333333334,16.6666666666667,481.768,1,1,1,1
24-May-2018 14:39:17,2047,0.0908714285714286,-0.882571428571428,-0.389657142857143,0.57,-0.6255,0.275333333333333,0.201,0,0,0,0,0,0,0,-0.33765,-0.956683333333333,0.07955,-1.82666666666667,-2.01966666666667,-1.215,2.89975,0.9569,-0.30198,0.16116,-11.1076666666667,4.01433333333334,16.6666666666667,481.768,1,1,1,1
24-May-2018 14:39:17,2047,0.0908714285714286,-0.882571428571428,-0.389657142857143,0.57,-0.6255,0.275333333333333,0.201,0,0,0,0,0,0,0,-0.33765,-0.956683333333333,0.07955,-1.82666666666667,-2.01966666666667,-1.215,2.89975,0.9569,-0.30198,0.16116,-11.1076666666667,4.01433333333334,16.6666666666667,481.768,1,1,1,1
24-May-2018 14:39:17,2047,0.0908714285714286,-0.882571428571428,-0.389657142857143,0.57,-0.6255,0.275333333333333,0.201,0,0,0,0,0,0,0,-0.33765,-0.956683333333333,0.07955,-1.82666666666667,-2.01966666666667,-1.215,2.89975,0.9569,-0.30198,0.16116,-11.1076666666667,4.01433333333334,16.6666666666667,481.768,1,1,1,1
24-May-2018 14:39:18,1745.18181818182,0.0908714285714286,-0.882571428571428,-0.389657142857143,0.57,-0.6255,0.275333333333333,0.201,0,0,0,0,0,0,0,-0.32855,-0.9585,0.0678166666666667,-0.40225,0.840875,-0.052,1.9665,0.972314285714286,-0.540114285714286,-0.00615714285714286,-102.437,14.7474285714286,-25.965,577.3825,0,1,1,1
24-May-2018 14:39:18,1745.18181818182,0.0908714285714286,-0.882571428571428,-0.389657142857143,0.57,-0.6255,0.275333333333333,0.201,0,0,0,0,0,0,0,-0.32855,-0.9585,0.0678166666666667,-0.40225,0.840875,-0.052,1.9665,0.972314285714286,-0.540114285714286,-0.00615714285714286,-102.437,14.7474285714286,-25.965,577.3825,0,1,1,1
24-May-2018 14:39:18,1745.18181818182,0.0908714285714286,-0.882571428571428,-0.389657142857143,0.57,-0.6255,0.275333333333333,0.201,0,0,0,0,0,0,0,-0.32855,-0.9585,0.0678166666666667,-0.40225,0.840875,-0.052,1.9665,0.972314285714286,-0.540114285714286,-0.00615714285714286,-102.437,14.7474285714286,-25.965,577.3825,0,1,1,1
24-May-2018 14:39:18,1745.18181818182,0.0908714285714286,-0.882571428571428,-0.389657142857143,0.57,-0.6255,0.275333333333333,0.201,0,0,0,0,0,0,0,-0.32855,-0.9585,0.0678166666666667,-0.40225,0.840875,-0.052,1.9665,0.972314285714286,-0.540114285714286,-0.00615714285714286,-102.437,14.7474285714286,-25.965,577.3825,0,1,1,1
24-May-2018 14:39:19,1263.28571428571,0.0908714285714286,-0.882571428571428,-0.389657142857143,0.57,-0.6255,0.275333333333333,0.201,0,0,0,0,0,0,0,-0.322775,-0.960125,0.0678,-1.0466,-4.352,-0.558,1.899,1.017375,-0.4935,0.060325,49.7194,14.9878,14.3782,677.920666666667,0,1,1,1
24-May-2018 14:39:19,1263.28571428571,0.0908714285714286,-0.882571428571428,-0.389657142857143,0.57,-0.6255,0.275333333333333,0.201,0,0,0,0,0,0,0,-0.322775,-0.960125,0.0678,-1.0466,-4.352,-0.558,1.899,1.017375,-0.4935,0.060325,49.7194,14.9878,14.3782,677.920666666667,0,1,1,1
24-May-2018 14:39:19,1263.28571428571,0.0908714285714286,-0.882571428571428,-0.389657142857143,0.57,-0.6255,0.275333333333333,0.201,0,0,0,0,0,0,0,-0.322775,-0.960125,0.0678,-1.0466,-4.352,-0.558,1.899,1.017375,-0.4935,0.060325,49.7194,14.9878,14.3782,677.920666666667,0,1,1,1
24-May-2018 14:39:19,1263.28571428571,0.0908714285714286,-0.882571428571428,-0.389657142857143,0.57,-0.6255,0.275333333333333,0.201,0,0,0,0,0,0,0,-0.322775,-0.960125,0.0678,-1.0466,-4.352,-0.558,1.899,1.017375,-0.4935,0.060325,49.7194,14.9878,14.3782,677.920666666667,0,1,1,1
24-May-2018 14:39:20,937.7,0.0908714285714286,-0.882571428571428,-0.389657142857143,0.57,-0.6255,0.275333333333333,0.201,0,0,0,0,0,0,0,-0.325757142857143,-0.957271428571429,0.0743714285714286,-0.120333333333333,-0.921666666666667,-0.138333333333333,3.3038,0.903714285714286,-0.378,0.100042857142857,-50.0162857142857,-1.43728571428571,-9.68614285714286,806.6265,1,1,1,1
24-May-2018 14:39:20,937.7,0.0908714285714286,-0.882571428571428,-0.389657142857143,0.57,-0.6255,0.275333333333333,0.201,0,0,0,0,0,0,0,-0.325757142857143,-0.957271428571429,0.0743714285714286,-0.120333333333333,-0.921666666666667,-0.138333333333333,3.3038,0.903714285714286,-0.378,0.100042857142857,-50.0162857142857,-1.43728571428571,-9.68614285714286,806.6265,1,1,1,1
24-May-2018 14:39:20,937.7,0.0908714285714286,-0.882571428571428,-0.389657142857143,0.57,-0.6255,0.275333333333333,0.201,0,0,0,0,0,0,0,-0.325757142857143,-0.957271428571429,0.0743714285714286,-0.120333333333333,-0.921666666666667,-0.138333333333333,3.3038,0.903714285714286,-0.378,0.100042857142857,-50.0162857142857,-1.43728571428571,-9.68614285714286,806.6265,1,1,1,1
24-May-2018 14:39:20,937.7,0.0908714285714286,-0.882571428571428,-0.389657142857143,0.57,-0.6255,0.275333333333333,0.201,0,0,0,0,0,0,0,-0.325757142857143,-0.957271428571429,0.0743714285714286,-0.120333333333333,-0.921666666666667,-0.138333333333333,3.3038,0.903714285714286,-0.378,0.100042857142857,-50.0162857142857,-1.43728571428571,-9.68614285714286,806.6265,1,1,1,1
24-May-2018 14:39:21,661.6,0.0908714285714286,-0.882571428571428,-0.389657142857143,0.57,-0.6255,0.275333333333333,0.201,0,0,0,0,0,0,0,-0.33586,-0.95556,0.08242,0.357857142857143,-0.718571428571429,0.279142857142857,3.31775,0.961566666666667,-0.487383333333333,0.0247666666666667,-20.647625,5.10675,-18.689125,701.878,0,1,1,1
24-May-2018 14:39:21,661.6,0.0908714285714286,-0.882571428571428,-0.389657142857143,0.57,-0.6255,0.275333333333333,0.201,0,0,0,0,0,0,0,-0.33586,-0.95556,0.08242,0.357857142857143,-0.718571428571429,0.279142857142857,3.31775,0.961566666666667,-0.487383333333333,0.0247666666666667,-20.647625,5.10675,-18.689125,701.878,0,1,1,1
24-May-2018 14:39:21,661.6,0.0908714285714286,-0.882571428571428,-0.389657142857143,0.57,-0.6255,0.275333333333333,0.201,0,0,0,0,0,0,0,-0.33586,-0.95556,0.08242,0.357857142857143,-0.718571428571429,0.279142857142857,3.31775,0.961566666666667,-0.487383333333333,0.0247666666666667,-20.647625,5.10675,-18.689125,701.878,0,1,1,1
24-May-2018 14:39:21,661.6,0.0908714285714286,-0.882571428571428,-0.389657142857143,0.57,-0.6255,0.275333333333333,0.201,0,0,0,0,0,0,0,-0.33586,-0.95556,0.08242,0.357857142857143,-0.718571428571429,0.279142857142857,3.31775,0.961566666666667,-0.487383333333333,0.0247666666666667,-20.647625,5.10675,-18.689125,701.878,0,1,1,1
24-May-2018 14:39:22,472.8,0.0908714285714286,-0.882571428571428,-0.389657142857143,0.57,-0.6255,0.275333333333333,0.201,0,0,0,0,0,0,0,-0.339683333333333,-0.952483333333333,0.104433333333333,0.7442,-1.568,-0.058,3.3565,0.955416666666666,-0.225783333333333,-0.01515,-42.413,27.6654285714286,-3.26642857142857,790.493,0,1,1,1
24-May-2018 14:39:22,472.8,0.0908714285714286,-0.882571428571428,-0.389657142857143,0.57,-0.6255,0.275333333333333,0.201,0,0,0,0,0,0,0,-0.339683333333333,-0.952483333333333,0.104433333333333,0.7442,-1.568,-0.058,3.3565,0.955416666666666,-0.225783333333333,-0.01515,-42.413,27.6654285714286,-3.26642857142857,790.493,0,1,1,1
24-May-2018 14:39:22,472.8,0.0908714285714286,-0.882571428571428,-0.389657142857143,0.57,-0.6255,0.275333333333333,0.201,0,0,0,0,0,0,0,-0.339683333333333,-0.952483333333333,0.104433333333333,0.7442,-1.568,-0.058,3.3565,0.955416666666666,-0.225783333333333,-0.01515,-42.413,27.6654285714286,-3.26642857142857,790.493,0,1,1,1
24-May-2018 14:39:22,472.8,0.0908714285714286,-0.882571428571428,-0.389657142857143,0.57,-0.6255,0.275333333333333,0.201,0,0,0,0,0,0,0,-0.339683333333333,-0.952483333333333,0.104433333333333,0.7442,-1.568,-0.058,3.3565,0.955416666666666,-0.225783333333333,-0.01515,-42.413,27.6654285714286,-3.26642857142857,790.493,0,1,1,1
24-May-2018 14:39:23,341.8,0.0908714285714286,-0.882571428571428,-0.389657142857143,0.57,-0.6255,0.275333333333333,0.201,0,0,0,0,0,0,0,-0.3415,-0.957666666666667,0.08375,-1.546,-4.106,-0.776,3.353,0.995816666666667,-0.31425,-0.34695,-134.529166666667,2.48983333333334,26.9613333333333,443.473333333333,0,1,1,1
24-May-2018 14:39:23,341.8,0.0908714285714286,-0.882571428571428,-0.389657142857143,0.57,-0.6255,0.275333333333333,0.201,0,0,0,0,0,0,0,-0.3415,-0.957666666666667,0.08375,-1.546,-4.106,-0.776,3.353,0.995816666666667,-0.31425,-0.34695,-134.529166666667,2.48983333333334,26.9613333333333,443.473333333333,0,1,1,1
24-May-2018 14:39:23,341.8,0.0908714285714286,-0.882571428571428,-0.389657142857143,0.57,-0.6255,0.275333333333333,0.201,0,0,0,0,0,0,0,-0.3415,-0.957666666666667,0.08375,-1.546,-4.106,-0.776,3.353,0.995816666666667,-0.31425,-0.34695,-134.529166666667,2.48983333333334,26.9613333333333,443.473333333333,0,1,1,1
24-May-2018 14:39:23,341.8,0.0908714285714286,-0.882571428571428,-0.389657142857143,0.57,-0.6255,0.275333333333333,0.201,0,0,0,0,0,0,0,-0.3415,-0.957666666666667,0.08375,-1.546,-4.106,-0.776,3.353,0.995816666666667,-0.31425,-0.34695,-134.529166666667,2.48983333333334,26.9613333333333,443.473333333333,0,1,1,1
24-May-2018 14:39:24,250.6,0.0908714285714286,-0.882571428571428,-0.389657142857143,0.57,-0.6255,0.275333333333333,0.201,0,0,0,0,0,0,0,-0.3504,-0.951271428571428,0.109957142857143,-1.41,-1.676,-0.714,3.26625,0.9206375,-0.4238625,-0.2147625,32.805,-15.8448571428571,8.11842857142857,222.791,0,1,1,1
24-May-2018 14:39:24,250.6,0.0908714285714286,-0.882571428571428,-0.389657142857143,0.57,-0.6255,0.275333333333333,0.201,0,0,0,0,0,0,0,-0.3504,-0.951271428571428,0.109957142857143,-1.41,-1.676,-0.714,3.26625,0.9206375,-0.4238625,-0.2147625,32.805,-15.8448571428571,8.11842857142857,222.791,0,1,1,1
24-May-2018 14:39:24,250.6,0.0908714285714286,-0.882571428571428,-0.389657142857143,0.57,-0.6255,0.275333333333333,0.201,0,0,0,0,0,0,0,-0.3504,-0.951271428571428,0.109957142857143,-1.41,-1.676,-0.714,3.26625,0.9206375,-0.4238625,-0.2147625,32.805,-15.8448571428571,8.11842857142857,222.791,0,1,1,1
24-May-2018 14:39:24,250.6,0.0908714285714286,-0.882571428571428,-0.389657142857143,0.57,-0.6255,0.275333333333333,0.201,0,0,0,0,0,0,0,-0.3504,-0.951271428571428,0.109957142857143,-1.41,-1.676,-0.714,3.26625,0.9206375,-0.4238625,-0.2147625,32.805,-15.8448571428571,8.11842857142857,222.791,0,1,1,1
24-May-2018 14:39:25,188.9,0.0908714285714286,-0.882571428571428,-0.389657142857143,0.57,-0.6255,0.275333333333333,0.201,0,0,0,0,0,0,0,-0.342342857142857,-0.953071428571429,0.0994571428571429,-0.583333333333333,-0.848666666666667,-0.555,3.294,0.9515,-0.286771428571429,-0.1355,-9.817,-0.403874999999999,-3.087,329.805,0,1,1,1
24-May-2018 14:39:25,188.9,0.0908714285714286,-0.882571428571428,-0.389657142857143,0.57,-0.6255,0.275333333333333,0.201,0,0,0,0,0,0,0,-0.342342857142857,-0.953071428571429,0.0994571428571429,-0.583333333333333,-0.848666666666667,-0.555,3.294,0.9515,-0.286771428571429,-0.1355,-9.817,-0.403874999999999,-3.087,329.805,0,1,1,1
24-May-2018 14:39:25,188.9,0.0908714285714286,-0.882571428571428,-0.389657142857143,0.57,-0.6255,0.275333333333333,0.201,0,0,0,0,0,0,0,-0.342342857142857,-0.953071428571429,0.0994571428571429,-0.583333333333333,-0.848666666666667,-0.555,3.294,0.9515,-0.286771428571429,-0.1355,-9.817,-0.403874999999999,-3.087,329.805,0,1,1,1
24-May-2018 14:39:25,188.9,0.0908714285714286,-0.882571428571428,-0.389657142857143,0.57,-0.6255,0.275333333333333,0.201,0,0,0,0,0,0,0,-0.342342857142857,-0.953071428571429,0.0994571428571429,-0.583333333333333,-0.848666666666667,-0.555,3.294,0.9515,-0.286771428571429,-0.1355,-9.817,-0.403874999999999,-3.087,329.805,0,1,1,1
24-May-2018 14:39:26,146,0.0908714285714286,-0.882571428571428,-0.389657142857143,0.57,-0.6255,0.275333333333333,0.201,0,0,0,0,0,0,0,-0.343425,-0.95265,0.102225,0.265166666666667,-0.291333333333333,0.315333333333333,3.26583333333333,0.975471428571429,-0.279342857142857,-0.261814285714286,-49.4308888888889,37.4998888888889,10.5081111111111,344.7,1,1,1,1
24-May-2018 14:39:26,146,0.0908714285714286,-0.882571428571428,-0.389657142857143,0.57,-0.6255,0.275333333333333,0.201,0,0,0,0,0,0,0,-0.343425,-0.95265,0.102225,0.265166666666667,-0.291333333333333,0.315333333333333,3.26583333333333,0.975471428571429,-0.279342857142857,-0.261814285714286,-49.4308888888889,37.4998888888889,10.5081111111111,344.7,1,1,1,1
24-May-2018 14:39:26,146,0.0908714285714286,-0.882571428571428,-0.389657142857143,0.57,-0.6255,0.275333333333333,0.201,0,0,0,0,0,0,0,-0.343425,-0.95265,0.102225,0.265166666666667,-0.291333333333333,0.315333333333333,3.26583333333333,0.975471428571429,-0.279342857142857,-0.261814285714286,-49.4308888888889,37.4998888888889,10.5081111111111,344.7,1,1,1,1
24-May-2018 14:39:26,146,0.0908714285714286,-0.882571428571428,-0.389657142857143,0.57,-0.6255,0.275333333333333,0.201,0,0,0,0,0,0,0,-0.343425,-0.95265,0.102225,0.265166666666667,-0.291333333333333,0.315333333333333,3.26583333333333,0.975471428571429,-0.279342857142857,-0.261814285714286,-49.4308888888889,37.4998888888889,10.5081111111111,344.7,1,1,1,1
24-May-2018 14:39:27,118.25,0.0908714285714286,-0.882571428571428,-0.389657142857143,0.57,-0.6255,0.275333333333333,0.201,0,0,0,0,0,0,0,-0.345914285714286,-0.952414285714286,0.115371428571429,0.233,-0.2412,-0.2416,3.318,0.95085,-0.3888,0.00113333333333334,-6.13228571428571,-3.71085714285714,-5.418,461.291666666667,0,1,1,1
24-May-2018 14:39:27,118.25,0.0908714285714286,-0.882571428571428,-0.389657142857143,0.57,-0.6255,0.275333333333333,0.201,0,0,0,0,0,0,0,-0.345914285714286,-0.952414285714286,0.115371428571429,0.233,-0.2412,-0.2416,3.318,0.95085,-0.3888,0.00113333333333334,-6.13228571428571,-3.71085714285714,-5.418,461.291666666667,0,1,1,1
24-May-2018 14:39:27,118.25,0.0908714285714286,-0.882571428571428,-0.389657142857143,0.57,-0.6255,0.275333333333333,0.201,0,0,0,0,0,0,0,-0.345914285714286,-0.952414285714286,0.115371428571429,0.233,-0.2412,-0.2416,3.318,0.95085,-0.3888,0.00113333333333334,-6.13228571428571,-3.71085714285714,-5.418,461.291666666667,0,1,1,1
24-May-2018 14:39:27,118.25,0.0908714285714286,-0.882571428571428,-0.389657142857143,0.57,-0.6255,0.275333333333333,0.201,0,0,0,0,0,0,0,-0.345914285714286,-0.952414285714286,0.115371428571429,0.233,-0.2412,-0.2416,3.318,0.95085,-0.3888,0.00113333333333334,-6.13228571428571,-3.71085714285714,-5.418,461.291666666667,0,1,1,1
24-May-2018 14:39:28,100.111111111111,0.0908714285714286,-0.882571428571428,-0.389657142857143,0.57,-0.6255,0.275333333333333,0.201,0,0,0,0,0,0,0,-0.341916666666667,-0.953966666666667,0.114283333333333,-0.848,-0.86,-0.532,3.223,0.942516666666667,-0.373366666666667,0.00846666666666667,32.561125,6.4785,10.9605,540.555,1,1,1,1
24-May-2018 14:39:28,100.111111111111,0.0908714285714286,-0.882571428571428,-0.389657142857143,0.57,-0.6255,0.275333333333333,0.201,0,0,0,0,0,0,0,-0.341916666666667,-0.953966666666667,0.114283333333333,-0.848,-0.86,-0.532,3.223,0.942516666666667,-0.373366666666667,0.00846666666666667,32.561125,6.4785,10.9605,540.555,1,1,1,1
24-May-2018 14:39:28,100.111111111111,0.0908714285714286,-0.882571428571428,-0.389657142857143,0.57,-0.6255,0.275333333333333,0.201,0,0,0,0,0,0,0,-0.341916666666667,-0.953966666666667,0.114283333333333,-0.848,-0.86,-0.532,3.223,0.942516666666667,-0.373366666666667,0.00846666666666667,32.561125,6.4785,10.9605,540.555,1,1,1,1
24-May-2018 14:39:28,100.111111111111,0.0908714285714286,-0.882571428571428,-0.389657142857143,0.57,-0.6255,0.275333333333333,0.201,0,0,0,0,0,0,0,-0.341916666666667,-0.953966666666667,0.114283333333333,-0.848,-0.86,-0.532,3.223,0.942516666666667,-0.373366666666667,0.00846666666666667,32.561125,6.4785,10.9605,540.555,1,1,1,1
24-May-2018 14:39:29,85.8888888888889,0.0908714285714286,-0.882571428571428,-0.389657142857143,0.57,-0.6255,0.275333333333333,0.201,0,0,0,0,0,0,0,-0.335566666666667,-0.95575,0.109533333333333,-0.646857142857143,-0.946142857142857,-0.335571428571429,3.214,0.9787,-0.40986,0.00796,-1.81883333333333,-2.7845,-14.2583333333333,500.227333333333,1,1,1,1
24-May-2018 14:39:29,85.8888888888889,0.0908714285714286,-0.882571428571428,-0.389657142857143,0.57,-0.6255,0.275333333333333,0.201,0,0,0,0,0,0,0,-0.335566666666667,-0.95575,0.109533333333333,-0.646857142857143,-0.946142857142857,-0.335571428571429,3.214,0.9787,-0.40986,0.00796,-1.81883333333333,-2.7845,-14.2583333333333,500.227333333333,1,1,1,1
24-May-2018 14:39:29,85.8888888888889,0.0908714285714286,-0.882571428571428,-0.389657142857143,0.57,-0.6255,0.275333333333333,0.201,0,0,0,0,0,0,0,-0.335566666666667,-0.95575,0.109533333333333,-0.646857142857143,-0.946142857142857,-0.335571428571429,3.214,0.9787,-0.40986,0.00796,-1.81883333333333,-2.7845,-14.2583333333333,500.227333333333,1,1,1,1
24-May-2018 14:39:29,85.8888888888889,0.0908714285714286,-0.882571428571428,-0.389657142857143,0.57,-0.6255,0.275333333333333,0.201,0,0,0,0,0,0,0,-0.335566666666667,-0.95575,0.109533333333333,-0.646857142857143,-0.946142857142857,-0.335571428571429,3.214,0.9787,-0.40986,0.00796,-1.81883333333333,-2.7845,-14.2583333333333,500.227333333333,1,1,1,1
24-May-2018 14:39:30,75.2,0.0908714285714286,-0.882571428571428,-0.389657142857143,0.57,-0.6255,0.275333333333333,0.201,0,0,0,0,0,0,0,-0.335642857142857,-0.954971428571429,0.108557142857143,-0.2776,-0.922,0.0128,3.1876,0.9703875,-0.3739375,0.004375,4.1615,-3.796,-2.6675,545.6294,1,1,1,1
24-May-2018 14:39:30,75.2,0.0908714285714286,-0.882571428571428,-0.389657142857143,0.57,-0.6255,0.275333333333333,0.201,0,0,0,0,0,0,0,-0.335642857142857,-0.954971428571429,0.108557142857143,-0.2776,-0.922,0.0128,3.1876,0.9703875,-0.3739375,0.004375,4.1615,-3.796,-2.6675,545.6294,1,1,1,1
24-May-2018 14:39:30,75.2,0.0908714285714286,-0.882571428571428,-0.389657142857143,0.57,-0.6255,0.275333333333333,0.201,0,0,0,0,0,0,0,-0.335642857142857,-0.954971428571429,0.108557142857143,-0.2776,-0.922,0.0128,3.1876,0.9703875,-0.3739375,0.004375,4.1615,-3.796,-2.6675,545.6294,1,1,1,1
24-May-2018 14:39:30,75.2,0.0908714285714286,-0.882571428571428,-0.389657142857143,0.57,-0.6255,0.275333333333333,0.201,0,0,0,0,0,0,0,-0.335642857142857,-0.954971428571429,0.108557142857143,-0.2776,-0.922,0.0128,3.1876,0.9703875,-0.3739375,0.004375,4.1615,-3.796,-2.6675,545.6294,1,1,1,1
