TIME,HELMET_RAW,BELT_ACC_X,BELT_ACC_Y,BELT_ACC_Z,BELT_ANG_X,BELT_ANG_Y,BELT_ANG_Z,BELT_LUMINOSITY,NECK_ACC_X,NECK_ACC_Y,NECK_ACC_Z,NECK_ANG_X,NECK_ANG_Y,NECK_ANG_Z,NECK_LUMINOSITY,PCKT_ACC_X,PCKT_ACC_Y,PCKT_ACC_Z,PCKT_ANG_X,PCKT_ANG_Y,PCKT_ANG_Z,PCKT_LUMINOSITY,WRST_ACC_X,WRST_ACC_Y,WRST_ACC_Z,WRST_ANG_X,WRST_ANG_Y,WRST_ANG_Z,WRST_LUMINOSITY,IR_1,IR_2,IR_3,IR_4
24-May-2018 14:37:31,-531.636363636364,0.0908714285714286,-0.882571428571428,-0.389657142857143,0.57,-0.6255,0.275333333333333,0.201,0,0,0,0,0,0,0,-0.364571428571429,-0.859414285714286,0.199242857142857,10.9827142857143,24.5912857142857,-3.81714285714286,2.61233333333333,0.96825,-0.410625,0.048625,-50.033,10.453,-6.74214285714286,448.98975,1,1,1,1
24-May-2018 14:37:31,-531.636363636364,0.0908714285714286,-0.882571428571428,-0.389657142857143,0.57,-0.6255,0.275333333333333,0.201,0,0,0,0,0,0,0,-0.364571428571429,-0.859414285714286,0.199242857142857,10.9827142857143,24.5912857142857,-3.81714285714286,2.61233333333333,0.96825,-0.410625,0.048625,-50.033,10.453,-6.74214285714286,448.98975,1,1,1,1
24-May-2018 14:37:31,-531.636363636364,0.0908714285714286,-0.882571428571428,-0.389657142857143,0.57,-0.6255,0.275333333333333,0.201,0,0,0,0,0,0,0,-0.364571428571429,-0.859414285714286,0.199242857142857,10.9827142857143,24.5912857142857,-3.81714285714286,2.61233333333333,0.96825,-0.410625,0.048625,-50.033,10.453,-6.74214285714286,448.98975,1,1,1,1
24-May-2018 14:37:31,-531.636363636364,0.0908714285714286,-0.882571428571428,-0.389657142857143,0.57,-0.6255,0.275333333333333,0.201,0,0,0,0,0,0,0,-0.364571428571429,-0.859414285714286,0.199242857142857,10.9827142857143,24.5912857142857,-3.81714285714286,2.61233333333333,0.96825,-0.410625,0.048625,-50.033,10.453,-6.74214285714286,448.98975,1,1,1,1
24-May-2018 14:37:32,-334.181818181818,0.0908714285714286,-0.882571428571428,-0.389657142857143,0.57,-0.6255,0.275333333333333,0.201,0,0,0,0,0,0,0,-0.36535,-0.92475,-0.1738,7.04614285714286,36.1442857142857,-4.18228571428571,2.82275,0.895214285714286,-0.467928571428571,0.0232857142857143,-46.807,24.2073333333333,19.807,396.445,1,1,1,1
24-May-2018 14:37:32,-334.181818181818,0.0908714285714286,-0.882571428571428,-0.389657142857143,0.57,-0.6255,0.275333333333333,0.201,0,0,0,0,0,0,0,-0.36535,-0.92475,-0.1738,7.04614285714286,36.1442857142857,-4.18228571428571,2.82275,0.895214285714286,-0.467928571428571,0.0232857142857143,-46.807,24.2073333333333,19.807,396.445,1,1,1,1
24-May-2018 14:37:32,-334.181818181818,0.0908714285714286,-0.882571428571428,-0.389657142857143,0.57,-0.6255,0.275333333333333,0.201,0,0,0,0,0,0,0,-0.36535,-0.92475,-0.1738,7.04614285714286,36.1442857142857,-4.18228571428571,2.82275,0.895214285714286,-0.467928571428571,0.0232857142857143,-46.807,24.2073333333333,19.807,396.445,1,1,1,1
24-May-2018 14:37:32,-334.181818181818,0.0908714285714286,-0.882571428571428,-0.389657142857143,0.57,-0.6255,0.275333333333333,0.201,0,0,0,0,0,0,0,-0.36535,-0.92475,-0.1738,7.04614285714286,36.1442857142857,-4.18228571428571,2.82275,0.895214285714286,-0.467928571428571,0.0232857142857143,-46.807,24.2073333333333,19.807,396.445,1,1,1,1
24-May-2018 14:37:33,-208.9,0.0908714285714286,-0.882571428571428,-0.389657142857143,0.57,-0.6255,0.275333333333333,0.201,0,0,0,0,0,0,0,-0.374157142857143,-0.900742857142857,0.1104,16.2212857142857,29.5057142857143,13.5857142857143,2.622,0.951066666666667,-0.380716666666667,0.115733333333333,-41.8293333333333,12.6118333333333,-21.4023333333333,496.065,1,0,0,0
24-May-2018 14:37:33,-208.9,0.0908714285714286,-0.882571428571428,-0.389657142857143,0.57,-0.6255,0.275333333333333,0.201,0,0,0,0,0,0,0,-0.374157142857143,-0.900742857142857,0.1104,16.2212857142857,29.5057142857143,13.5857142857143,2.622,0.951066666666667,-0.380716666666667,0.115733333333333,-41.8293333333333,12.6118333333333,-21.4023333333333,496.065,1,0,0,0
24-May-2018 14:37:33,-208.9,0.0908714285714286,-0.882571428571428,-0.389657142857143,0.57,-0.6255,0.275333333333333,0.201,0,0,0,0,0,0,0,-0.374157142857143,-0.900742857142857,0.1104,16.2212857142857,29.5057142857143,13.5857142857143,2.622,0.951066666666667,-0.380716666666667,0.115733333333333,-41.8293333333333,12.6118333333333,-21.4023333333333,496.065,1,0,0,0
24-May-2018 14:37:33,-208.9,0.0908714285714286,-0.882571428571428,-0.389657142857143,0.57,-0.6255,0.275333333333333,0.201,0,0,0,0,0,0,0,-0.374157142857143,-0.900742857142857,0.1104,16.2212857142857,29.5057142857143,13.5857142857143,2.622,0.951066666666667,-0.380716666666667,0.115733333333333,-41.8293333333333,12.6118333333333,-21.4023333333333,496.065,1,0,0,0
24-May-2018 14:37:34,-123.636363636364,0.0908714285714286,-0.882571428571428,-0.389657142857143,0.57,-0.6255,0.275333333333333,0.201,0,0,0,0,0,0,0,-0.28765,-0.9583,-0.105725,25.0102857142857,21.2292857142857,8.54642857142857,1.786,0.9237,-0.479285714285714,0.0376571428571429,-10.6967142857143,11.9861428571429,4.32914285714286,643.362333333333,1,0,1,0
24-May-2018 14:37:34,-123.636363636364,0.0908714285714286,-0.882571428571428,-0.389657142857143,0.57,-0.6255,0.275333333333333,0.201,0,0,0,0,0,0,0,-0.28765,-0.9583,-0.105725,25.0102857142857,21.2292857142857,8.54642857142857,1.786,0.9237,-0.479285714285714,0.0376571428571429,-10.6967142857143,11.9861428571429,4.32914285714286,643.362333333333,1,0,1,0
24-May-2018 14:37:34,-123.636363636364,0.0908714285714286,-0.882571428571428,-0.389657142857143,0.57,-0.6255,0.275333333333333,0.201,0,0,0,0,0,0,0,-0.28765,-0.9583,-0.105725,25.0102857142857,21.2292857142857,8.54642857142857,1.786,0.9237,-0.479285714285714,0.0376571428571429,-10.6967142857143,11.9861428571429,4.32914285714286,643.362333333333,1,0,1,0
24-May-2018 14:37:34,-123.636363636364,0.0908714285714286,-0.882571428571428,-0.389657142857143,0.57,-0.6255,0.275333333333333,0.201,0,0,0,0,0,0,0,-0.28765,-0.9583,-0.105725,25.0102857142857,21.2292857142857,8.54642857142857,1.786,0.9237,-0.479285714285714,0.0376571428571429,-10.6967142857143,11.9861428571429,4.32914285714286,643.362333333333,1,0,1,0
24-May-2018 14:37:35,-68.7777777777778,0.0908714285714286,-0.882571428571428,-0.389657142857143,0.57,-0.6255,0.275333333333333,0.201,0,0,0,0,0,0,0,-0.2815,-0.828216666666667,0.0518833333333333,-22.5644285714286,-15.8904285714286,-5.14028571428571,1.5005,0.95572,-0.41312,0.12808,-25.183,3.68916666666667,-1.6565,746.366,1,1,1,0
24-May-2018 14:37:35,-68.7777777777778,0.0908714285714286,-0.882571428571428,-0.389657142857143,0.57,-0.6255,0.275333333333333,0.201,0,0,0,0,0,0,0,-0.2815,-0.828216666666667,0.0518833333333333,-22.5644285714286,-15.8904285714286,-5.14028571428571,1.5005,0.95572,-0.41312,0.12808,-25.183,3.68916666666667,-1.6565,746.366,1,1,1,0
24-May-2018 14:37:35,-68.7777777777778,0.0908714285714286,-0.882571428571428,-0.389657142857143,0.57,-0.6255,0.275333333333333,0.201,0,0,0,0,0,0,0,-0.2815,-0.828216666666667,0.0518833333333333,-22.5644285714286,-15.8904285714286,-5.14028571428571,1.5005,0.95572,-0.41312,0.12808,-25.183,3.68916666666667,-1.6565,746.366,1,1,1,0
24-May-2018 14:37:35,-68.7777777777778,0.0908714285714286,-0.882571428571428,-0.389657142857143,0.57,-0.6255,0.275333333333333,0.201,0,0,0,0,0,0,0,-0.2815,-0.828216666666667,0.0518833333333333,-22.5644285714286,-15.8904285714286,-5.14028571428571,1.5005,0.95572,-0.41312,0.12808,-25.183,3.68916666666667,-1.6565,746.366,1,1,1,0
24-May-2018 14:37:36,790.6,0.0908714285714286,-0.882571428571428,-0.389657142857143,0.57,-0.6255,0.275333333333333,0.201,0,0,0,0,0,0,0,-0.263242857142857,-0.967671428571429,0.106342857142857,22.8838571428571,9.92714285714286,9.20114285714286,1.39075,0.925433333333333,-0.43925,0.0013,-9.66042857142857,9.84328571428571,0.993,731.155,0,1,1,0
24-May-2018 14:37:36,790.6,0.0908714285714286,-0.882571428571428,-0.389657142857143,0.57,-0.6255,0.275333333333333,0.201,0,0,0,0,0,0,0,-0.263242857142857,-0.967671428571429,0.106342857142857,22.8838571428571,9.92714285714286,9.20114285714286,1.39075,0.925433333333333,-0.43925,0.0013,-9.66042857142857,9.84328571428571,0.993,731.155,0,1,1,0
24-May-2018 14:37:36,790.6,0.0908714285714286,-0.882571428571428,-0.389657142857143,0.57,-0.6255,0.275333333333333,0.201,0,0,0,0,0,0,0,-0.263242857142857,-0.967671428571429,0.106342857142857,22.8838571428571,9.92714285714286,9.20114285714286,1.39075,0.925433333333333,-0.43925,0.0013,-9.66042857142857,9.84328571428571,0.993,731.155,0,1,1,0
24-May-2018 14:37:36,790.6,0.0908714285714286,-0.882571428571428,-0.389657142857143,0.57,-0.6255,0.275333333333333,0.201,0,0,0,0,0,0,0,-0.263242857142857,-0.967671428571429,0.106342857142857,22.8838571428571,9.92714285714286,9.20114285714286,1.39075,0.925433333333333,-0.43925,0.0013,-9.66042857142857,9.84328571428571,0.993,731.155,0,1,1,0
24-May-2018 14:37:37,2047,0.0908714285714286,-0.882571428571428,-0.389657142857143,0.57,-0.6255,0.275333333333333,0.201,0,0,0,0,0,0,0,-0.30678,-0.9862,-0.06864,8.81314285714286,52.3385714285714,7.57557142857143,1.42325,0.977033333333333,-0.40965,0.111366666666667,-11.4461428571429,13.5538571428571,19.5731428571429,734.1954,0,1,1,1
24-May-2018 14:37:37,2047,0.0908714285714286,-0.882571428571428,-0.389657142857143,0.57,-0.6255,0.275333333333333,0.201,0,0,0,0,0,0,0,-0.30678,-0.9862,-0.06864,8.81314285714286,52.3385714285714,7.57557142857143,1.42325,0.977033333333333,-0.40965,0.111366666666667,-11.4461428571429,13.5538571428571,19.5731428571429,734.1954,0,1,1,1
24-May-2018 14:37:37,2047,0.0908714285714286,-0.882571428571428,-0.389657142857143,0.57,-0.6255,0.275333333333333,0.201,0,0,0,0,0,0,0,-0.30678,-0.9862,-0.06864,8.81314285714286,52.3385714285714,7.57557142857143,1.42325,0.977033333333333,-0.40965,0.111366666666667,-11.4461428571429,13.5538571428571,19.5731428571429,734.1954,0,1,1,1
24-May-2018 14:37:37,2047,0.0908714285714286,-0.882571428571428,-0.389657142857143,0.57,-0.6255,0.275333333333333,0.201,0,0,0,0,0,0,0,-0.30678,-0.9862,-0.06864,8.81314285714286,52.3385714285714,7.57557142857143,1.42325,0.977033333333333,-0.40965,0.111366666666667,-11.4461428571429,13.5538571428571,19.5731428571429,734.1954,0,1,1,1
24-May-2018 14:37:38,2022,0.0908714285714286,-0.882571428571428,-0.389657142857143,0.57,-0.6255,0.275333333333333,0.201,0,0,0,0,0,0,0,-0.4328,-0.961416666666667,0.1631,1.42166666666667,23.68,-3.08983333333333,1.465,0.88822,-0.4623,0.02478,-62.1646666666667,23.2418333333333,-32.185,651.15425,0,0,1,1
24-May-2018 14:37:38,2022,0.0908714285714286,-0.882571428571428,-0.389657142857143,0.57,-0.6255,0.275333333333333,0.201,0,0,0,0,0,0,0,-0.4328,-0.961416666666667,0.1631,1.42166666666667,23.68,-3.08983333333333,1.465,0.88822,-0.4623,0.02478,-62.1646666666667,23.2418333333333,-32.185,651.15425,0,0,1,1
24-May-2018 14:37:38,2022,0.0908714285714286,-0.882571428571428,-0.389657142857143,0.57,-0.6255,0.275333333333333,0.201,0,0,0,0,0,0,0,-0.4328,-0.961416666666667,0.1631,1.42166666666667,23.68,-3.08983333333333,1.465,0.88822,-0.4623,0.02478,-62.1646666666667,23.2418333333333,-32.185,651.15425,0,0,1,1
24-May-2018 14:37:38,2022,0.0908714285714286,-0.882571428571428,-0.389657142857143,0.57,-0.6255,0.275333333333333,0.201,0,0,0,0,0,0,0,-0.4328,-0.961416666666667,0.1631,1.42166666666667,23.68,-3.08983333333333,1.465,0.88822,-0.4623,0.02478,-62.1646666666667,23.2418333333333,-32.185,651.15425,0,0,1,1
24-May-2018 14:37:39,403,0.0908714285714286,-0.882571428571428,-0.389657142857143,0.57,-0.6255,0.275333333333333,0.201,0,0,0,0,0,0,0,-0.292183333333333,-0.960066666666667,-0.115883333333333,22.5821666666667,32.2333333333333,20.915,0.8874,0.99194,-0.41938,-0.06606,-27.445875,17.637375,10.670625,477.812,1,0,1,1
24-May-2018 14:37:39,403,0.0908714285714286,-0.882571428571428,-0.389657142857143,0.57,-0.6255,0.275333333333333,0.201,0,0,0,0,0,0,0,-0.292183333333333,-0.960066666666667,-0.115883333333333,22.5821666666667,32.2333333333333,20.915,0.8874,0.99194,-0.41938,-0.06606,-27.445875,17.637375,10.670625,477.812,1,0,1,1
24-May-2018 14:37:39,403,0.0908714285714286,-0.882571428571428,-0.389657142857143,0.57,-0.6255,0.275333333333333,0.201,0,0,0,0,0,0,0,-0.292183333333333,-0.960066666666667,-0.115883333333333,22.5821666666667,32.2333333333333,20.915,0.8874,0.99194,-0.41938,-0.06606,-27.445875,17.637375,10.670625,477.812,1,0,1,1
24-May-2018 14:37:39,403,0.0908714285714286,-0.882571428571428,-0.389657142857143,0.57,-0.6255,0.275333333333333,0.201,0,0,0,0,0,0,0,-0.292183333333333,-0.960066666666667,-0.115883333333333,22.5821666666667,32.2333333333333,20.915,0.8874,0.99194,-0.41938,-0.06606,-27.445875,17.637375,10.670625,477.812,1,0,1,1
24-May-2018 14:37:40,1364.4,0.0908714285714286,-0.882571428571428,-0.389657142857143,0.57,-0.6255,0.275333333333333,0.201,0,0,0,0,0,0,0,-0.3753,-0.94496,0.14414,-21.7983333333333,8.45466666666667,-8.88166666666667,0.99775,0.964571428571429,-0.379285714285714,0.0471571428571429,-48.5122,15.5242,-4.622,463.037333333333,1,1,1,1
24-May-2018 14:37:40,1364.4,0.0908714285714286,-0.882571428571428,-0.389657142857143,0.57,-0.6255,0.275333333333333,0.201,0,0,0,0,0,0,0,-0.3753,-0.94496,0.14414,-21.7983333333333,8.45466666666667,-8.88166666666667,0.99775,0.964571428571429,-0.379285714285714,0.0471571428571429,-48.5122,15.5242,-4.622,463.037333333333,1,1,1,1
24-May-2018 14:37:40,1364.4,0.0908714285714286,-0.882571428571428,-0.389657142857143,0.57,-0.6255,0.275333333333333,0.201,0,0,0,0,0,0,0,-0.3753,-0.94496,0.14414,-21.7983333333333,8.45466666666667,-8.88166666666667,0.99775,0.964571428571429,-0.379285714285714,0.0471571428571429,-48.5122,15.5242,-4.622,463.037333333333,1,1,1,1
24-May-2018 14:37:40,1364.4,0.0908714285714286,-0.882571428571428,-0.389657142857143,0.57,-0.6255,0.275333333333333,0.201,0,0,0,0,0,0,0,-0.3753,-0.94496,0.14414,-21.7983333333333,8.45466666666667,-8.88166666666667,0.99775,0.964571428571429,-0.379285714285714,0.0471571428571429,-48.5122,15.5242,-4.622,463.037333333333,1,1,1,1
24-May-2018 14:37:41,1470.5,0.0908714285714286,-0.882571428571428,-0.389657142857143,0.57,-0.6255,0.275333333333333,0.201,0,0,0,0,0,0,0,-0.26775,-0.9486,-0.156,6.175,36.2766666666667,-6.77233333333333,0.906,1.0169,-0.362766666666667,0.0545,-8.872,23.232,10.945,462.108,1,1,0,1
24-May-2018 14:37:41,1470.5,0.0908714285714286,-0.882571428571428,-0.389657142857143,0.57,-0.6255,0.275333333333333,0.201,0,0,0,0,0,0,0,-0.26775,-0.9486,-0.156,6.175,36.2766666666667,-6.77233333333333,0.906,1.0169,-0.362766666666667,0.0545,-8.872,23.232,10.945,462.108,1,1,0,1
24-May-2018 14:37:41,1470.5,0.0908714285714286,-0.882571428571428,-0.389657142857143,0.57,-0.6255,0.275333333333333,0.201,0,0,0,0,0,0,0,-0.26775,-0.9486,-0.156,6.175,36.2766666666667,-6.77233333333333,0.906,1.0169,-0.362766666666667,0.0545,-8.872,23.232,10.945,462.108,1,1,0,1
24-May-2018 14:37:41,1470.5,0.0908714285714286,-0.882571428571428,-0.389657142857143,0.57,-0.6255,0.275333333333333,0.201,0,0,0,0,0,0,0,-0.26775,-0.9486,-0.156,6.175,36.2766666666667,-6.77233333333333,0.906,1.0169,-0.362766666666667,0.0545,-8.872,23.232,10.945,462.108,1,1,0,1
24-May-2018 14:37:42,1030.6,0.0908714285714286,-0.882571428571428,-0.389657142857143,0.57,-0.6255,0.275333333333333,0.201,0,0,0,0,0,0,0,-0.48708,-0.93408,0.21166,43.0233333333333,-33.99,62.13,0.634,0.903633333333333,-0.481266666666667,0.0220666666666667,-12.0122,3.0366,0.3048,467.656,0,1,0,0
24-May-2018 14:37:42,1030.6,0.0908714285714286,-0.882571428571428,-0.389657142857143,0.57,-0.6255,0.275333333333333,0.201,0,0,0,0,0,0,0,-0.48708,-0.93408,0.21166,43.0233333333333,-33.99,62.13,0.634,0.903633333333333,-0.481266666666667,0.0220666666666667,-12.0122,3.0366,0.3048,467.656,0,1,0,0
24-May-2018 14:37:42,1030.6,0.0908714285714286,-0.882571428571428,-0.389657142857143,0.57,-0.6255,0.275333333333333,0.201,0,0,0,0,0,0,0,-0.48708,-0.93408,0.21166,43.0233333333333,-33.99,62.13,0.634,0.903633333333333,-0.481266666666667,0.0220666666666667,-12.0122,3.0366,0.3048,467.656,0,1,0,0
24-May-2018 14:37:42,1030.6,0.0908714285714286,-0.882571428571428,-0.389657142857143,0.57,-0.6255,0.275333333333333,0.201,0,0,0,0,0,0,0,-0.48708,-0.93408,0.21166,43.0233333333333,-33.99,62.13,0.634,0.903633333333333,-0.481266666666667,0.0220666666666667,-12.0122,3.0366,0.3048,467.656,0,1,0,0
24-May-2018 14:37:43,726.1,0.0908714285714286,-0.882571428571428,-0.389657142857143,0.57,-0.6255,0.275333333333333,0.201,0,0,0,0,0,0,0,-0.23215,-0.729433333333333,0.238616666666667,-25.9233333333333,18.14,-33.5691666666667,1.0872,0.8922875,-0.43685,0.174125,-19.1288571428571,16.777,4.07685714285714,448.68,1,1,0,0
24-May-2018 14:37:43,726.1,0.0908714285714286,-0.882571428571428,-0.389657142857143,0.57,-0.6255,0.275333333333333,0.201,0,0,0,0,0,0,0,-0.23215,-0.729433333333333,0.238616666666667,-25.9233333333333,18.14,-33.5691666666667,1.0872,0.8922875,-0.43685,0.174125,-19.1288571428571,16.777,4.07685714285714,448.68,1,1,0,0
24-May-2018 14:37:43,726.1,0.0908714285714286,-0.882571428571428,-0.389657142857143,0.57,-0.6255,0.275333333333333,0.201,0,0,0,0,0,0,0,-0.23215,-0.729433333333333,0.238616666666667,-25.9233333333333,18.14,-33.5691666666667,1.0872,0.8922875,-0.43685,0.174125,-19.1288571428571,16.777,4.07685714285714,448.68,1,1,0,0
24-May-2018 14:37:43,726.1,0.0908714285714286,-0.882571428571428,-0.389657142857143,0.57,-0.6255,0.275333333333333,0.201,0,0,0,0,0,0,0,-0.23215,-0.729433333333333,0.238616666666667,-25.9233333333333,18.14,-33.5691666666667,1.0872,0.8922875,-0.43685,0.174125,-19.1288571428571,16.777,4.07685714285714,448.68,1,1,0,0
24-May-2018 14:37:44,516.2,0.0908714285714286,-0.882571428571428,-0.389657142857143,0.57,-0.6255,0.275333333333333,0.201,0,0,0,0,0,0,0,-0.306428571428571,-0.945057142857143,-0.208385714285714,36.2918333333333,78.6233333333333,32.1508333333333,1.27966666666667,0.9424,-0.426016666666667,-0.0117666666666667,-2.89633333333333,0.61,2.5,468.3696,1,1,0,0
24-May-2018 14:37:44,516.2,0.0908714285714286,-0.882571428571428,-0.389657142857143,0.57,-0.6255,0.275333333333333,0.201,0,0,0,0,0,0,0,-0.306428571428571,-0.945057142857143,-0.208385714285714,36.2918333333333,78.6233333333333,32.1508333333333,1.27966666666667,0.9424,-0.426016666666667,-0.0117666666666667,-2.89633333333333,0.61,2.5,468.3696,1,1,0,0
24-May-2018 14:37:44,516.2,0.0908714285714286,-0.882571428571428,-0.389657142857143,0.57,-0.6255,0.275333333333333,0.201,0,0,0,0,0,0,0,-0.306428571428571,-0.945057142857143,-0.208385714285714,36.2918333333333,78.6233333333333,32.1508333333333,1.27966666666667,0.9424,-0.426016666666667,-0.0117666666666667,-2.89633333333333,0.61,2.5,468.3696,1,1,0,0
24-May-2018 14:37:44,516.2,0.0908714285714286,-0.882571428571428,-0.389657142857143,0.57,-0.6255,0.275333333333333,0.201,0,0,0,0,0,0,0,-0.306428571428571,-0.945057142857143,-0.208385714285714,36.2918333333333,78.6233333333333,32.1508333333333,1.27966666666667,0.9424,-0.426016666666667,-0.0117666666666667,-2.89633333333333,0.61,2.5,468.3696,1,1,0,0
24-May-2018 14:37:45,377.444444444444,0.0908714285714286,-0.882571428571428,-0.389657142857143,0.57,-0.6255,0.275333333333333,0.201,0,0,0,0,0,0,0,-0.42142,-0.85108,0.12816,-15.5356666666667,40.5716666666667,-27.2673333333333,3.12333333333333,0.964342857142857,-0.3474,0.0414428571428571,-36.7332857142857,11.3675714285714,-17.4825714285714,412.111,1,1,1,1
24-May-2018 14:37:45,377.444444444444,0.0908714285714286,-0.882571428571428,-0.389657142857143,0.57,-0.6255,0.275333333333333,0.201,0,0,0,0,0,0,0,-0.42142,-0.85108,0.12816,-15.5356666666667,40.5716666666667,-27.2673333333333,3.12333333333333,0.964342857142857,-0.3474,0.0414428571428571,-36.7332857142857,11.3675714285714,-17.4825714285714,412.111,1,1,1,1
24-May-2018 14:37:45,377.444444444444,0.0908714285714286,-0.882571428571428,-0.389657142857143,0.57,-0.6255,0.275333333333333,0.201,0,0,0,0,0,0,0,-0.42142,-0.85108,0.12816,-15.5356666666667,40.5716666666667,-27.2673333333333,3.12333333333333,0.964342857142857,-0.3474,0.0414428571428571,-36.7332857142857,11.3675714285714,-17.4825714285714,412.111,1,1,1,1
24-May-2018 14:37:45,377.444444444444,0.0908714285714286,-0.882571428571428,-0.389657142857143,0.57,-0.6255,0.275333333333333,0.201,0,0,0,0,0,0,0,-0.42142,-0.85108,0.12816,-15.5356666666667,40.5716666666667,-27.2673333333333,3.12333333333333,0.964342857142857,-0.3474,0.0414428571428571,-36.7332857142857,11.3675714285714,-17.4825714285714,412.111,1,1,1,1
24-May-2018 14:37:46,254.777777777778,0.0908714285714286,-0.882571428571428,-0.389657142857143,0.57,-0.6255,0.275333333333333,0.201,0,0,0,0,0,0,0,-0.279533333333333,-0.942683333333333,0.07975,47.14175,23.82,23.6275,2.9338,0.989825,-0.353675,-0.172825,-35.71625,26.2655,20.91475,349.251,1,1,1,1
24-May-2018 14:37:46,254.777777777778,0.0908714285714286,-0.882571428571428,-0.389657142857143,0.57,-0.6255,0.275333333333333,0.201,0,0,0,0,0,0,0,-0.279533333333333,-0.942683333333333,0.07975,47.14175,23.82,23.6275,2.9338,0.989825,-0.353675,-0.172825,-35.71625,26.2655,20.91475,349.251,1,1,1,1
24-May-2018 14:37:46,254.777777777778,0.0908714285714286,-0.882571428571428,-0.389657142857143,0.57,-0.6255,0.275333333333333,0.201,0,0,0,0,0,0,0,-0.279533333333333,-0.942683333333333,0.07975,47.14175,23.82,23.6275,2.9338,0.989825,-0.353675,-0.172825,-35.71625,26.2655,20.91475,349.251,1,1,1,1
24-May-2018 14:37:46,254.777777777778,0.0908714285714286,-0.882571428571428,-0.389657142857143,0.57,-0.6255,0.275333333333333,0.201,0,0,0,0,0,0,0,-0.279533333333333,-0.942683333333333,0.07975,47.14175,23.82,23.6275,2.9338,0.989825,-0.353675,-0.172825,-35.71625,26.2655,20.91475,349.251,1,1,1,1
24-May-2018 14:37:47,-832.5,0.0908714285714286,-0.882571428571428,-0.389657142857143,0.57,-0.6255,0.275333333333333,0.201,0,0,0,0,0,0,0,-0.4317375,-0.907375,0.0728125,-19.932,22.315,-19.145,2.48433333333333,0.91784,-0.3309,0.02986,-62.7424,25.6098,-24.3414,365.539,1,1,1,1
24-May-2018 14:37:47,-832.5,0.0908714285714286,-0.882571428571428,-0.389657142857143,0.57,-0.6255,0.275333333333333,0.201,0,0,0,0,0,0,0,-0.4317375,-0.907375,0.0728125,-19.932,22.315,-19.145,2.48433333333333,0.91784,-0.3309,0.02986,-62.7424,25.6098,-24.3414,365.539,1,1,1,1
24-May-2018 14:37:47,-832.5,0.0908714285714286,-0.882571428571428,-0.389657142857143,0.57,-0.6255,0.275333333333333,0.201,0,0,0,0,0,0,0,-0.4317375,-0.907375,0.0728125,-19.932,22.315,-19.145,2.48433333333333,0.91784,-0.3309,0.02986,-62.7424,25.6098,-24.3414,365.539,1,1,1,1
24-May-2018 14:37:47,-832.5,0.0908714285714286,-0.882571428571428,-0.389657142857143,0.57,-0.6255,0.275333333333333,0.201,0,0,0,0,0,0,0,-0.4317375,-0.907375,0.0728125,-19.932,22.315,-19.145,2.48433333333333,0.91784,-0.3309,0.02986,-62.7424,25.6098,-24.3414,365.539,1,1,1,1
24-May-2018 14:37:48,-2048,0.0908714285714286,-0.882571428571428,-0.389657142857143,0.57,-0.6255,0.275333333333333,0.201,0,0,0,0,0,0,0,-0.34728,-0.96796,0.11996,29.5458333333333,-0.265000000000001,17.8938333333333,1.752,1.0512,-0.25066,-0.0174,-22.6931666666667,14.1463333333333,12.2461666666667,589.7542,0,1,1,1
24-May-2018 14:37:48,-2048,0.0908714285714286,-0.882571428571428,-0.389657142857143,0.57,-0.6255,0.275333333333333,0.201,0,0,0,0,0,0,0,-0.34728,-0.96796,0.11996,29.5458333333333,-0.265000000000001,17.8938333333333,1.752,1.0512,-0.25066,-0.0174,-22.6931666666667,14.1463333333333,12.2461666666667,589.7542,0,1,1,1
24-May-2018 14:37:48,-2048,0.0908714285714286,-0.882571428571428,-0.389657142857143,0.57,-0.6255,0.275333333333333,0.201,0,0,0,0,0,0,0,-0.34728,-0.96796,0.11996,29.5458333333333,-0.265000000000001,17.8938333333333,1.752,1.0512,-0.25066,-0.0174,-22.6931666666667,14.1463333333333,12.2461666666667,589.7542,0,1,1,1
24-May-2018 14:37:48,-2048,0.0908714285714286,-0.882571428571428,-0.389657142857143,0.57,-0.6255,0.275333333333333,0.201,0,0,0,0,0,0,0,-0.34728,-0.96796,0.11996,29.5458333333333,-0.265000000000001,17.8938333333333,1.752,1.0512,-0.25066,-0.0174,-22.6931666666667,14.1463333333333,12.2461666666667,589.7542,0,1,1,1
24-May-2018 14:37:49,-2048,0.0908714285714286,-0.882571428571428,-0.389657142857143,0.57,-0.6255,0.275333333333333,0.201,0,0,0,0,0,0,0,-0.22054,-0.93912,-0.12524,0.872166666666666,54.915,-4.17883333333333,1.801,0.978228571428571,-0.417828571428571,-0.00211428571428572,-39.672375,15.175125,-4.443625,692.302666666667,1,1,1,1
24-May-2018 14:37:49,-2048,0.0908714285714286,-0.882571428571428,-0.389657142857143,0.57,-0.6255,0.275333333333333,0.201,0,0,0,0,0,0,0,-0.22054,-0.93912,-0.12524,0.872166666666666,54.915,-4.17883333333333,1.801,0.978228571428571,-0.417828571428571,-0.00211428571428572,-39.672375,15.175125,-4.443625,692.302666666667,1,1,1,1
24-May-2018 14:37:49,-2048,0.0908714285714286,-0.882571428571428,-0.389657142857143,0.57,-0.6255,0.275333333333333,0.201,0,0,0,0,0,0,0,-0.22054,-0.93912,-0.12524,0.872166666666666,54.915,-4.17883333333333,1.801,0.978228571428571,-0.417828571428571,-0.00211428571428572,-39.672375,15.175125,-4.443625,692.302666666667,1,1,1,1
24-May-2018 14:37:49,-2048,0.0908714285714286,-0.882571428571428,-0.389657142857143,0.57,-0.6255,0.275333333333333,0.201,0,0,0,0,0,0,0,-0.22054,-0.93912,-0.12524,0.872166666666666,54.915,-4.17883333333333,1.801,0.978228571428571,-0.417828571428571,-0.00211428571428572,-39.672375,15.175125,-4.443625,692.302666666667,1,1,1,1
24-May-2018 14:37:50,-1749.5,0.0908714285714286,-0.882571428571428,-0.389657142857143,0.57,-0.6255,0.275333333333333,0.201,0,0,0,0,0,0,0,-0.472533333333333,-0.930916666666667,0.146966666666667,16.773,48.4996666666667,-6.66866666666667,1.2412,1.02416666666667,-0.430683333333333,0.0534833333333333,-46.3618333333333,22.8353333333333,-3.79066666666667,698.1188,1,1,1,1
24-May-2018 14:37:50,-1749.5,0.0908714285714286,-0.882571428571428,-0.389657142857143,0.57,-0.6255,0.275333333333333,0.201,0,0,0,0,0,0,0,-0.472533333333333,-0.930916666666667,0.146966666666667,16.773,48.4996666666667,-6.66866666666667,1.2412,1.02416666666667,-0.430683333333333,0.0534833333333333,-46.3618333333333,22.8353333333333,-3.79066666666667,698.1188,1,1,1,1
24-May-2018 14:37:50,-1749.5,0.0908714285714286,-0.882571428571428,-0.389657142857143,0.57,-0.6255,0.275333333333333,0.201,0,0,0,0,0,0,0,-0.472533333333333,-0.930916666666667,0.146966666666667,16.773,48.4996666666667,-6.66866666666667,1.2412,1.02416666666667,-0.430683333333333,0.0534833333333333,-46.3618333333333,22.8353333333333,-3.79066666666667,698.1188,1,1,1,1
24-May-2018 14:37:50,-1749.5,0.0908714285714286,-0.882571428571428,-0.389657142857143,0.57,-0.6255,0.275333333333333,0.201,0,0,0,0,0,0,0,-0.472533333333333,-0.930916666666667,0.146966666666667,16.773,48.4996666666667,-6.66866666666667,1.2412,1.02416666666667,-0.430683333333333,0.0534833333333333,-46.3618333333333,22.8353333333333,-3.79066666666667,698.1188,1,1,1,1
24-May-2018 14:37:51,-1193.9,0.0908714285714286,-0.882571428571428,-0.389657142857143,0.57,-0.6255,0.275333333333333,0.201,0,0,0,0,0,0,0,-0.25925,-0.9777375,-0.06505,22.2306,24.3258,12.075,1.1748,0.9358,-0.396842857142857,0.0802,-19.238,-3.628125,-25.076125,558.98,1,1,1,1
24-May-2018 14:37:51,-1193.9,0.0908714285714286,-0.882571428571428,-0.389657142857143,0.57,-0.6255,0.275333333333333,0.201,0,0,0,0,0,0,0,-0.25925,-0.9777375,-0.06505,22.2306,24.3258,12.075,1.1748,0.9358,-0.396842857142857,0.0802,-19.238,-3.628125,-25.076125,558.98,1,1,1,1
24-May-2018 14:37:51,-1193.9,0.0908714285714286,-0.882571428571428,-0.389657142857143,0.57,-0.6255,0.275333333333333,0.201,0,0,0,0,0,0,0,-0.25925,-0.9777375,-0.06505,22.2306,24.3258,12.075,1.1748,0.9358,-0.396842857142857,0.0802,-19.238,-3.628125,-25.076125,558.98,1,1,1,1
24-May-2018 14:37:51,-1193.9,0.0908714285714286,-0.882571428571428,-0.389657142857143,0.57,-0.6255,0.275333333333333,0.201,0,0,0,0,0,0,0,-0.25925,-0.9777375,-0.06505,22.2306,24.3258,12.075,1.1748,0.9358,-0.396842857142857,0.0802,-19.238,-3.628125,-25.076125,558.98,1,1,1,1
24-May-2018 14:37:52,-807,0.0908714285714286,-0.882571428571428,-0.389657142857143,0.57,-0.6255,0.275333333333333,0.201,0,0,0,0,0,0,0,-0.3727,-0.962642857142857,0.0234571428571428,-16.6442857142857,18.82,-1.22114285714286,0.992,0.962966666666667,-0.48685,0.0652833333333333,27.5852,-8.744,31.7196,514.3954,1,1,0,1
24-May-2018 14:37:52,-807,0.0908714285714286,-0.882571428571428,-0.389657142857143,0.57,-0.6255,0.275333333333333,0.201,0,0,0,0,0,0,0,-0.3727,-0.962642857142857,0.0234571428571428,-16.6442857142857,18.82,-1.22114285714286,0.992,0.962966666666667,-0.48685,0.0652833333333333,27.5852,-8.744,31.7196,514.3954,1,1,0,1
24-May-2018 14:37:52,-807,0.0908714285714286,-0.882571428571428,-0.389657142857143,0.57,-0.6255,0.275333333333333,0.201,0,0,0,0,0,0,0,-0.3727,-0.962642857142857,0.0234571428571428,-16.6442857142857,18.82,-1.22114285714286,0.992,0.962966666666667,-0.48685,0.0652833333333333,27.5852,-8.744,31.7196,514.3954,1,1,0,1
24-May-2018 14:37:52,-807,0.0908714285714286,-0.882571428571428,-0.389657142857143,0.57,-0.6255,0.275333333333333,0.201,0,0,0,0,0,0,0,-0.3727,-0.962642857142857,0.0234571428571428,-16.6442857142857,18.82,-1.22114285714286,0.992,0.962966666666667,-0.48685,0.0652833333333333,27.5852,-8.744,31.7196,514.3954,1,1,0,1
24-May-2018 14:37:53,-550.333333333333,0.0908714285714286,-0.882571428571428,-0.389657142857143,0.57,-0.6255,0.275333333333333,0.201,0,0,0,0,0,0,0,-0.2967,-0.889085714285714,0.00842857142857142,8.13333333333333,27.555,5.68666666666667,0.90175,0.921625,-0.4404,0.129075,-44.407,5.03485714285714,-30.6621428571429,646.027,1,1,0,1
24-May-2018 14:37:53,-550.333333333333,0.0908714285714286,-0.882571428571428,-0.389657142857143,0.57,-0.6255,0.275333333333333,0.201,0,0,0,0,0,0,0,-0.2967,-0.889085714285714,0.00842857142857142,8.13333333333333,27.555,5.68666666666667,0.90175,0.921625,-0.4404,0.129075,-44.407,5.03485714285714,-30.6621428571429,646.027,1,1,0,1
24-May-2018 14:37:53,-550.333333333333,0.0908714285714286,-0.882571428571428,-0.389657142857143,0.57,-0.6255,0.275333333333333,0.201,0,0,0,0,0,0,0,-0.2967,-0.889085714285714,0.00842857142857142,8.13333333333333,27.555,5.68666666666667,0.90175,0.921625,-0.4404,0.129075,-44.407,5.03485714285714,-30.6621428571429,646.027,1,1,0,1
24-May-2018 14:37:53,-550.333333333333,0.0908714285714286,-0.882571428571428,-0.389657142857143,0.57,-0.6255,0.275333333333333,0.201,0,0,0,0,0,0,0,-0.2967,-0.889085714285714,0.00842857142857142,8.13333333333333,27.555,5.68666666666667,0.90175,0.921625,-0.4404,0.129075,-44.407,5.03485714285714,-30.6621428571429,646.027,1,1,0,1
24-May-2018 14:37:54,-371.1,0.0908714285714286,-0.882571428571428,-0.389657142857143,0.57,-0.6255,0.275333333333333,0.201,0,0,0,0,0,0,0,-0.306328571428571,-0.959342857142857,-0.0963428571428571,44.5104285714286,30.4484285714286,23.5878571428571,0.823333333333333,0.956375,-0.416175,-0.002125,-35.6505,16.8495,10,473.5242,1,1,0,1
24-May-2018 14:37:54,-371.1,0.0908714285714286,-0.882571428571428,-0.389657142857143,0.57,-0.6255,0.275333333333333,0.201,0,0,0,0,0,0,0,-0.306328571428571,-0.959342857142857,-0.0963428571428571,44.5104285714286,30.4484285714286,23.5878571428571,0.823333333333333,0.956375,-0.416175,-0.002125,-35.6505,16.8495,10,473.5242,1,1,0,1
24-May-2018 14:37:54,-371.1,0.0908714285714286,-0.882571428571428,-0.389657142857143,0.57,-0.6255,0.275333333333333,0.201,0,0,0,0,0,0,0,-0.306328571428571,-0.959342857142857,-0.0963428571428571,44.5104285714286,30.4484285714286,23.5878571428571,0.823333333333333,0.956375,-0.416175,-0.002125,-35.6505,16.8495,10,473.5242,1,1,0,1
24-May-2018 14:37:54,-371.1,0.0908714285714286,-0.882571428571428,-0.389657142857143,0.57,-0.6255,0.275333333333333,0.201,0,0,0,0,0,0,0,-0.306328571428571,-0.959342857142857,-0.0963428571428571,44.5104285714286,30.4484285714286,23.5878571428571,0.823333333333333,0.956375,-0.416175,-0.002125,-35.6505,16.8495,10,473.5242,1,1,0,1
24-May-2018 14:37:55,-249.625,0.0908714285714286,-0.882571428571428,-0.389657142857143,0.57,-0.6255,0.275333333333333,0.201,0,0,0,0,0,0,0,-0.390916666666667,-0.88875,0.0340666666666667,-11.7566666666667,40.6983333333333,-1.20866666666667,1.67716666666667,0.9509875,-0.3900875,0.0846625,-54.5982857142857,14.1114285714286,-9.93042857142857,519.075,1,1,1,1
24-May-2018 14:37:55,-249.625,0.0908714285714286,-0.882571428571428,-0.389657142857143,0.57,-0.6255,0.275333333333333,0.201,0,0,0,0,0,0,0,-0.390916666666667,-0.88875,0.0340666666666667,-11.7566666666667,40.6983333333333,-1.20866666666667,1.67716666666667,0.9509875,-0.3900875,0.0846625,-54.5982857142857,14.1114285714286,-9.93042857142857,519.075,1,1,1,1
24-May-2018 14:37:55,-249.625,0.0908714285714286,-0.882571428571428,-0.389657142857143,0.57,-0.6255,0.275333333333333,0.201,0,0,0,0,0,0,0,-0.390916666666667,-0.88875,0.0340666666666667,-11.7566666666667,40.6983333333333,-1.20866666666667,1.67716666666667,0.9509875,-0.3900875,0.0846625,-54.5982857142857,14.1114285714286,-9.93042857142857,519.075,1,1,1,1
24-May-2018 14:37:55,-249.625,0.0908714285714286,-0.882571428571428,-0.389657142857143,0.57,-0.6255,0.275333333333333,0.201,0,0,0,0,0,0,0,-0.390916666666667,-0.88875,0.0340666666666667,-11.7566666666667,40.6983333333333,-1.20866666666667,1.67716666666667,0.9509875,-0.3900875,0.0846625,-54.5982857142857,14.1114285714286,-9.93042857142857,519.075,1,1,1,1
24-May-2018 14:37:56,-167.666666666667,0.0908714285714286,-0.882571428571428,-0.389657142857143,0.57,-0.6255,0.275333333333333,0.201,0,0,0,0,0,0,0,-0.42298,-0.9314,0.15642,52.6768571428571,41.4347142857143,5.44571428571429,2.513,0.879616666666667,-0.497033333333333,0.0463166666666667,-22.5203333333333,18.3028333333333,1.07716666666667,436.8815,1,1,1,1
24-May-2018 14:37:56,-167.666666666667,0.0908714285714286,-0.882571428571428,-0.389657142857143,0.57,-0.6255,0.275333333333333,0.201,0,0,0,0,0,0,0,-0.42298,-0.9314,0.15642,52.6768571428571,41.4347142857143,5.44571428571429,2.513,0.879616666666667,-0.497033333333333,0.0463166666666667,-22.5203333333333,18.3028333333333,1.07716666666667,436.8815,1,1,1,1
24-May-2018 14:37:56,-167.666666666667,0.0908714285714286,-0.882571428571428,-0.389657142857143,0.57,-0.6255,0.275333333333333,0.201,0,0,0,0,0,0,0,-0.42298,-0.9314,0.15642,52.6768571428571,41.4347142857143,5.44571428571429,2.513,0.879616666666667,-0.497033333333333,0.0463166666666667,-22.5203333333333,18.3028333333333,1.07716666666667,436.8815,1,1,1,1
24-May-2018 14:37:56,-167.666666666667,0.0908714285714286,-0.882571428571428,-0.389657142857143,0.57,-0.6255,0.275333333333333,0.201,0,0,0,0,0,0,0,-0.42298,-0.9314,0.15642,52.6768571428571,41.4347142857143,5.44571428571429,2.513,0.879616666666667,-0.497033333333333,0.0463166666666667,-22.5203333333333,18.3028333333333,1.07716666666667,436.8815,1,1,1,1
24-May-2018 14:37:57,-90.5,0.0908714285714286,-0.882571428571428,-0.389657142857143,0.57,-0.6255,0.275333333333333,0.201,0,0,0,0,0,0,0,-0.380583333333333,-0.930633333333333,-0.0104,-4.08028571428571,59.2542857142857,-5.66728571428571,2.1265,0.90942,-0.43512,0.04582,-6.80877777777778,3.59066666666667,9.44455555555556,458.0495,1,1,1,1
24-May-2018 14:37:57,-90.5,0.0908714285714286,-0.882571428571428,-0.389657142857143,0.57,-0.6255,0.275333333333333,0.201,0,0,0,0,0,0,0,-0.380583333333333,-0.930633333333333,-0.0104,-4.08028571428571,59.2542857142857,-5.66728571428571,2.1265,0.90942,-0.43512,0.04582,-6.80877777777778,3.59066666666667,9.44455555555556,458.0495,1,1,1,1
24-May-2018 14:37:57,-90.5,0.0908714285714286,-0.882571428571428,-0.389657142857143,0.57,-0.6255,0.275333333333333,0.201,0,0,0,0,0,0,0,-0.380583333333333,-0.930633333333333,-0.0104,-4.08028571428571,59.2542857142857,-5.66728571428571,2.1265,0.90942,-0.43512,0.04582,-6.80877777777778,3.59066666666667,9.44455555555556,458.0495,1,1,1,1
24-May-2018 14:37:57,-90.5,0.0908714285714286,-0.882571428571428,-0.389657142857143,0.57,-0.6255,0.275333333333333,0.201,0,0,0,0,0,0,0,-0.380583333333333,-0.930633333333333,-0.0104,-4.08028571428571,59.2542857142857,-5.66728571428571,2.1265,0.90942,-0.43512,0.04582,-6.80877777777778,3.59066666666667,9.44455555555556,458.0495,1,1,1,1
24-May-2018 14:37:58,1959.33333333333,0.0908714285714286,-0.882571428571428,-0.389657142857143,0.57,-0.6255,0.275333333333333,0.201,0,0,0,0,0,0,0,-0.397157142857143,-0.944257142857143,0.0477142857142857,0.686999999999998,-31.971,9.45571428571429,1.49266666666667,0.9832,-0.393014285714286,0.0237,-31.6871666666667,4.80683333333333,-19.1666666666667,472.5155,1,0.5,1,1
24-May-2018 14:37:58,1959.33333333333,0.0908714285714286,-0.882571428571428,-0.389657142857143,0.57,-0.6255,0.275333333333333,0.201,0,0,0,0,0,0,0,-0.397157142857143,-0.944257142857143,0.0477142857142857,0.686999999999998,-31.971,9.45571428571429,1.49266666666667,0.9832,-0.393014285714286,0.0237,-31.6871666666667,4.80683333333333,-19.1666666666667,472.5155,1,0.5,1,1
24-May-2018 14:37:58,1959.33333333333,0.0908714285714286,-0.882571428571428,-0.389657142857143,0.57,-0.6255,0.275333333333333,0.201,0,0,0,0,0,0,0,-0.397157142857143,-0.944257142857143,0.0477142857142857,0.686999999999998,-31.971,9.45571428571429,1.49266666666667,0.9832,-0.393014285714286,0.0237,-31.6871666666667,4.80683333333333,-19.1666666666667,472.5155,1,0.5,1,1
24-May-2018 14:37:58,1959.33333333333,0.0908714285714286,-0.882571428571428,-0.389657142857143,0.57,-0.6255,0.275333333333333,0.201,0,0,0,0,0,0,0,-0.397157142857143,-0.944257142857143,0.0477142857142857,0.686999999999998,-31.971,9.45571428571429,1.49266666666667,0.9832,-0.393014285714286,0.0237,-31.6871666666667,4.80683333333333,-19.1666666666667,472.5155,1,0.5,1,1
24-May-2018 14:37:59,2047,0.0908714285714286,-0.882571428571428,-0.389657142857143,0.57,-0.6255,0.275333333333333,0.201,0,0,0,0,0,0,0,-0.266516666666667,-1.04953333333333,0.00233333333333334,-1.532,-4.39066666666667,-6.80133333333333,1.6774,0.9866,-0.347514285714286,0.0157714285714286,-2.980125,10.86125,12.454375,355.721,1,1,1,1
24-May-2018 14:37:59,2047,0.0908714285714286,-0.882571428571428,-0.389657142857143,0.57,-0.6255,0.275333333333333,0.201,0,0,0,0,0,0,0,-0.266516666666667,-1.04953333333333,0.00233333333333334,-1.532,-4.39066666666667,-6.80133333333333,1.6774,0.9866,-0.347514285714286,0.0157714285714286,-2.980125,10.86125,12.454375,355.721,1,1,1,1
24-May-2018 14:37:59,2047,0.0908714285714286,-0.882571428571428,-0.389657142857143,0.57,-0.6255,0.275333333333333,0.201,0,0,0,0,0,0,0,-0.266516666666667,-1.04953333333333,0.00233333333333334,-1.532,-4.39066666666667,-6.80133333333333,1.6774,0.9866,-0.347514285714286,0.0157714285714286,-2.980125,10.86125,12.454375,355.721,1,1,1,1
24-May-2018 14:37:59,2047,0.0908714285714286,-0.882571428571428,-0.389657142857143,0.57,-0.6255,0.275333333333333,0.201,0,0,0,0,0,0,0,-0.266516666666667,-1.04953333333333,0.00233333333333334,-1.532,-4.39066666666667,-6.80133333333333,1.6774,0.9866,-0.347514285714286,0.0157714285714286,-2.980125,10.86125,12.454375,355.721,1,1,1,1
24-May-2018 14:38:00,1939.2,0.0908714285714286,-0.882571428571428,-0.389657142857143,0.57,-0.6255,0.275333333333333,0.201,0,0,0,0,0,0,0,-0.422433333333333,-0.944266666666667,0.04205,-12.14,37.1,7.0085,2.1934,0.886533333333333,-0.500533333333333,0.0119666666666667,-62.2356666666667,28.8925,-18.4755,465.5228,1,1,1,0
24-May-2018 14:38:00,1939.2,0.0908714285714286,-0.882571428571428,-0.389657142857143,0.57,-0.6255,0.275333333333333,0.201,0,0,0,0,0,0,0,-0.422433333333333,-0.944266666666667,0.04205,-12.14,37.1,7.0085,2.1934,0.886533333333333,-0.500533333333333,0.0119666666666667,-62.2356666666667,28.8925,-18.4755,465.5228,1,1,1,0
24-May-2018 14:38:00,1939.2,0.0908714285714286,-0.882571428571428,-0.389657142857143,0.57,-0.6255,0.275333333333333,0.201,0,0,0,0,0,0,0,-0.422433333333333,-0.944266666666667,0.04205,-12.14,37.1,7.0085,2.1934,0.886533333333333,-0.500533333333333,0.0119666666666667,-62.2356666666667,28.8925,-18.4755,465.5228,1,1,1,0
24-May-2018 14:38:00,1939.2,0.0908714285714286,-0.882571428571428,-0.389657142857143,0.57,-0.6255,0.275333333333333,0.201,0,0,0,0,0,0,0,-0.422433333333333,-0.944266666666667,0.04205,-12.14,37.1,7.0085,2.1934,0.886533333333333,-0.500533333333333,0.0119666666666667,-62.2356666666667,28.8925,-18.4755,465.5228,1,1,1,0
24-May-2018 14:38:01,1408.9,0.0908714285714286,-0.882571428571428,-0.389657142857143,0.57,-0.6255,0.275333333333333,0.201,0,0,0,0,0,0,0,-0.310028571428571,-0.939285714285714,0.0560428571428571,44.9883333333333,83.2266666666667,7.21233333333333,1.643,0.9834,-0.4018375,0.0774625,-22.301875,6.25,1.173875,645.52,1,1,1,0
24-May-2018 14:38:01,1408.9,0.0908714285714286,-0.882571428571428,-0.389657142857143,0.57,-0.6255,0.275333333333333,0.201,0,0,0,0,0,0,0,-0.310028571428571,-0.939285714285714,0.0560428571428571,44.9883333333333,83.2266666666667,7.21233333333333,1.643,0.9834,-0.4018375,0.0774625,-22.301875,6.25,1.173875,645.52,1,1,1,0
24-May-2018 14:38:01,1408.9,0.0908714285714286,-0.882571428571428,-0.389657142857143,0.57,-0.6255,0.275333333333333,0.201,0,0,0,0,0,0,0,-0.310028571428571,-0.939285714285714,0.0560428571428571,44.9883333333333,83.2266666666667,7.21233333333333,1.643,0.9834,-0.4018375,0.0774625,-22.301875,6.25,1.173875,645.52,1,1,1,0
24-May-2018 14:38:01,1408.9,0.0908714285714286,-0.882571428571428,-0.389657142857143,0.57,-0.6255,0.275333333333333,0.201,0,0,0,0,0,0,0,-0.310028571428571,-0.939285714285714,0.0560428571428571,44.9883333333333,83.2266666666667,7.21233333333333,1.643,0.9834,-0.4018375,0.0774625,-22.301875,6.25,1.173875,645.52,1,1,1,0
24-May-2018 14:38:02,987.9,0.0908714285714286,-0.882571428571428,-0.389657142857143,0.57,-0.6255,0.275333333333333,0.201,0,0,0,0,0,0,0,-0.2493,-0.968616666666667,-0.1237,-2.51633333333333,13.6958333333333,-1.24783333333333,1.25566666666667,0.89565,-0.4504,0.046675,-37.805,31.1826,-18.2804,738.642,1,1,1,1
24-May-2018 14:38:02,987.9,0.0908714285714286,-0.882571428571428,-0.389657142857143,0.57,-0.6255,0.275333333333333,0.201,0,0,0,0,0,0,0,-0.2493,-0.968616666666667,-0.1237,-2.51633333333333,13.6958333333333,-1.24783333333333,1.25566666666667,0.89565,-0.4504,0.046675,-37.805,31.1826,-18.2804,738.642,1,1,1,1
24-May-2018 14:38:02,987.9,0.0908714285714286,-0.882571428571428,-0.389657142857143,0.57,-0.6255,0.275333333333333,0.201,0,0,0,0,0,0,0,-0.2493,-0.968616666666667,-0.1237,-2.51633333333333,13.6958333333333,-1.24783333333333,1.25566666666667,0.89565,-0.4504,0.046675,-37.805,31.1826,-18.2804,738.642,1,1,1,1
24-May-2018 14:38:02,987.9,0.0908714285714286,-0.882571428571428,-0.389657142857143,0.57,-0.6255,0.275333333333333,0.201,0,0,0,0,0,0,0,-0.2493,-0.968616666666667,-0.1237,-2.51633333333333,13.6958333333333,-1.24783333333333,1.25566666666667,0.89565,-0.4504,0.046675,-37.805,31.1826,-18.2804,738.642,1,1,1,1
24-May-2018 14:38:03,696.5,0.0908714285714286,-0.882571428571428,-0.389657142857143,0.57,-0.6255,0.275333333333333,0.201,0,0,0,0,0,0,0,-0.390628571428571,-0.920628571428571,0.237285714285714,5.94466666666667,2.49983333333333,1.8735,1.2615,0.941157142857143,-0.468357142857143,0.0692,14.695125,3.841625,22.614375,666.142,1,1,1,1
24-May-2018 14:38:03,696.5,0.0908714285714286,-0.882571428571428,-0.389657142857143,0.57,-0.6255,0.275333333333333,0.201,0,0,0,0,0,0,0,-0.390628571428571,-0.920628571428571,0.237285714285714,5.94466666666667,2.49983333333333,1.8735,1.2615,0.941157142857143,-0.468357142857143,0.0692,14.695125,3.841625,22.614375,666.142,1,1,1,1
24-May-2018 14:38:03,696.5,0.0908714285714286,-0.882571428571428,-0.389657142857143,0.57,-0.6255,0.275333333333333,0.201,0,0,0,0,0,0,0,-0.390628571428571,-0.920628571428571,0.237285714285714,5.94466666666667,2.49983333333333,1.8735,1.2615,0.941157142857143,-0.468357142857143,0.0692,14.695125,3.841625,22.614375,666.142,1,1,1,1
24-May-2018 14:38:03,696.5,0.0908714285714286,-0.882571428571428,-0.389657142857143,0.57,-0.6255,0.275333333333333,0.201,0,0,0,0,0,0,0,-0.390628571428571,-0.920628571428571,0.237285714285714,5.94466666666667,2.49983333333333,1.8735,1.2615,0.941157142857143,-0.468357142857143,0.0692,14.695125,3.841625,22.614375,666.142,1,1,1,1
24-May-2018 14:38:04,503.666666666667,0.0908714285714286,-0.882571428571428,-0.389657142857143,0.57,-0.6255,0.275333333333333,0.201,0,0,0,0,0,0,0,-0.3965,-0.881316666666667,0.232916666666667,-7.21142857142857,-4.67285714285714,4.66028571428571,1.3054,0.91558,-0.3536,0.06164,-77.9862,6.3048,-0.120399999999999,705.6116,1,1,1,1
24-May-2018 14:38:04,503.666666666667,0.0908714285714286,-0.882571428571428,-0.389657142857143,0.57,-0.6255,0.275333333333333,0.201,0,0,0,0,0,0,0,-0.3965,-0.881316666666667,0.232916666666667,-7.21142857142857,-4.67285714285714,4.66028571428571,1.3054,0.91558,-0.3536,0.06164,-77.9862,6.3048,-0.120399999999999,705.6116,1,1,1,1
24-May-2018 14:38:04,503.666666666667,0.0908714285714286,-0.882571428571428,-0.389657142857143,0.57,-0.6255,0.275333333333333,0.201,0,0,0,0,0,0,0,-0.3965,-0.881316666666667,0.232916666666667,-7.21142857142857,-4.67285714285714,4.66028571428571,1.3054,0.91558,-0.3536,0.06164,-77.9862,6.3048,-0.120399999999999,705.6116,1,1,1,1
24-May-2018 14:38:04,503.666666666667,0.0908714285714286,-0.882571428571428,-0.389657142857143,0.57,-0.6255,0.275333333333333,0.201,0,0,0,0,0,0,0,-0.3965,-0.881316666666667,0.232916666666667,-7.21142857142857,-4.67285714285714,4.66028571428571,1.3054,0.91558,-0.3536,0.06164,-77.9862,6.3048,-0.120399999999999,705.6116,1,1,1,1
24-May-2018 14:38:05,364.363636363636,0.0908714285714286,-0.882571428571428,-0.389657142857143,0.57,-0.6255,0.275333333333333,0.201,0,0,0,0,0,0,0,-0.4092375,-0.9311375,0.02845,-29.228,18.229,-20.4,1.35233333333333,0.948314285714286,-0.442385714285714,-0.0165428571428571,-71.50125,40.70875,-8.00287500000001,651.8125,0,1,1,1
24-May-2018 14:38:05,364.363636363636,0.0908714285714286,-0.882571428571428,-0.389657142857143,0.57,-0.6255,0.275333333333333,0.201,0,0,0,0,0,0,0,-0.4092375,-0.9311375,0.02845,-29.228,18.229,-20.4,1.35233333333333,0.948314285714286,-0.442385714285714,-0.0165428571428571,-71.50125,40.70875,-8.00287500000001,651.8125,0,1,1,1
24-May-2018 14:38:05,364.363636363636,0.0908714285714286,-0.882571428571428,-0.389657142857143,0.57,-0.6255,0.275333333333333,0.201,0,0,0,0,0,0,0,-0.4092375,-0.9311375,0.02845,-29.228,18.229,-20.4,1.35233333333333,0.948314285714286,-0.442385714285714,-0.0165428571428571,-71.50125,40.70875,-8.00287500000001,651.8125,0,1,1,1
24-May-2018 14:38:05,364.363636363636,0.0908714285714286,-0.882571428571428,-0.389657142857143,0.57,-0.6255,0.275333333333333,0.201,0,0,0,0,0,0,0,-0.4092375,-0.9311375,0.02845,-29.228,18.229,-20.4,1.35233333333333,0.948314285714286,-0.442385714285714,-0.0165428571428571,-71.50125,40.70875,-8.00287500000001,651.8125,0,1,1,1
24-May-2018 14:38:06,273.857142857143,0.0908714285714286,-0.882571428571428,-0.389657142857143,0.57,-0.6255,0.275333333333333,0.201,0,0,0,0,0,0,0,-0.3593,-0.918366666666667,0.0226333333333333,37.972,-1.20383333333333,25.9878333333333,0.8795,0.9657,-0.400183333333333,0.116366666666667,-20.1642857142857,6.89028571428571,10.9842857142857,486.4295,1,1,1,1
24-May-2018 14:38:06,273.857142857143,0.0908714285714286,-0.882571428571428,-0.389657142857143,0.57,-0.6255,0.275333333333333,0.201,0,0,0,0,0,0,0,-0.3593,-0.918366666666667,0.0226333333333333,37.972,-1.20383333333333,25.9878333333333,0.8795,0.9657,-0.400183333333333,0.116366666666667,-20.1642857142857,6.89028571428571,10.9842857142857,486.4295,1,1,1,1
24-May-2018 14:38:06,273.857142857143,0.0908714285714286,-0.882571428571428,-0.389657142857143,0.57,-0.6255,0.275333333333333,0.201,0,0,0,0,0,0,0,-0.3593,-0.918366666666667,0.0226333333333333,37.972,-1.20383333333333,25.9878333333333,0.8795,0.9657,-0.400183333333333,0.116366666666667,-20.1642857142857,6.89028571428571,10.9842857142857,486.4295,1,1,1,1
24-May-2018 14:38:06,273.857142857143,0.0908714285714286,-0.882571428571428,-0.389657142857143,0.57,-0.6255,0.275333333333333,0.201,0,0,0,0,0,0,0,-0.3593,-0.918366666666667,0.0226333333333333,37.972,-1.20383333333333,25.9878333333333,0.8795,0.9657,-0.400183333333333,0.116366666666667,-20.1642857142857,6.89028571428571,10.9842857142857,486.4295,1,1,1,1
24-May-2018 14:38:07,216.444444444444,0.0908714285714286,-0.882571428571428,-0.389657142857143,0.57,-0.6255,0.275333333333333,0.201,0,0,0,0,0,0,0,-0.317571428571429,-0.947685714285714,-0.0346428571428571,-13.8118571428571,13.4571428571429,-13.3242857142857,0.995,0.891933333333333,-0.526766666666667,0.0784,-30.2641666666667,0.2235,-28.445,513.015,1,1,1,1
24-May-2018 14:38:07,216.444444444444,0.0908714285714286,-0.882571428571428,-0.389657142857143,0.57,-0.6255,0.275333333333333,0.201,0,0,0,0,0,0,0,-0.317571428571429,-0.947685714285714,-0.0346428571428571,-13.8118571428571,13.4571428571429,-13.3242857142857,0.995,0.891933333333333,-0.526766666666667,0.0784,-30.2641666666667,0.2235,-28.445,513.015,1,1,1,1
24-May-2018 14:38:07,216.444444444444,0.0908714285714286,-0.882571428571428,-0.389657142857143,0.57,-0.6255,0.275333333333333,0.201,0,0,0,0,0,0,0,-0.317571428571429,-0.947685714285714,-0.0346428571428571,-13.8118571428571,13.4571428571429,-13.3242857142857,0.995,0.891933333333333,-0.526766666666667,0.0784,-30.2641666666667,0.2235,-28.445,513.015,1,1,1,1
24-May-2018 14:38:07,216.444444444444,0.0908714285714286,-0.882571428571428,-0.389657142857143,0.57,-0.6255,0.275333333333333,0.201,0,0,0,0,0,0,0,-0.317571428571429,-0.947685714285714,-0.0346428571428571,-13.8118571428571,13.4571428571429,-13.3242857142857,0.995,0.891933333333333,-0.526766666666667,0.0784,-30.2641666666667,0.2235,-28.445,513.015,1,1,1,1
24-May-2018 14:38:08,170.1,0.0908714285714286,-0.882571428571428,-0.389657142857143,0.57,-0.6255,0.275333333333333,0.201,0,0,0,0,0,0,0,-0.3549,-0.940271428571429,0.191,-4.0675,-9.6975,-10.42625,0.815,0.966514285714286,-0.372685714285714,0.0663285714285714,18.0662857142857,3.06614285714286,23.7282857142857,420.412333333333,0,1,0,0.5
24-May-2018 14:38:08,170.1,0.0908714285714286,-0.882571428571428,-0.389657142857143,0.57,-0.6255,0.275333333333333,0.201,0,0,0,0,0,0,0,-0.3549,-0.940271428571429,0.191,-4.0675,-9.6975,-10.42625,0.815,0.966514285714286,-0.372685714285714,0.0663285714285714,18.0662857142857,3.06614285714286,23.7282857142857,420.412333333333,0,1,0,0.5
24-May-2018 14:38:08,170.1,0.0908714285714286,-0.882571428571428,-0.389657142857143,0.57,-0.6255,0.275333333333333,0.201,0,0,0,0,0,0,0,-0.3549,-0.940271428571429,0.191,-4.0675,-9.6975,-10.42625,0.815,0.966514285714286,-0.372685714285714,0.0663285714285714,18.0662857142857,3.06614285714286,23.7282857142857,420.412333333333,0,1,0,0.5
24-May-2018 14:38:08,170.1,0.0908714285714286,-0.882571428571428,-0.389657142857143,0.57,-0.6255,0.275333333333333,0.201,0,0,0,0,0,0,0,-0.3549,-0.940271428571429,0.191,-4.0675,-9.6975,-10.42625,0.815,0.966514285714286,-0.372685714285714,0.0663285714285714,18.0662857142857,3.06614285714286,23.7282857142857,420.412333333333,0,1,0,0.5
24-May-2018 14:38:09,104.333333333333,0.0908714285714286,-0.882571428571428,-0.389657142857143,0.57,-0.6255,0.275333333333333,0.201,0,0,0,0,0,0,0,-0.382066666666667,-0.93795,-0.0189,-4.06657142857143,44.1942857142857,-5.53142857142857,0.93175,0.918214285714286,-0.380371428571429,0.0823571428571429,-77.641,8.26216666666667,-25.5995,478.333,0,1,0,0
24-May-2018 14:38:09,104.333333333333,0.0908714285714286,-0.882571428571428,-0.389657142857143,0.57,-0.6255,0.275333333333333,0.201,0,0,0,0,0,0,0,-0.382066666666667,-0.93795,-0.0189,-4.06657142857143,44.1942857142857,-5.53142857142857,0.93175,0.918214285714286,-0.380371428571429,0.0823571428571429,-77.641,8.26216666666667,-25.5995,478.333,0,1,0,0
24-May-2018 14:38:09,104.333333333333,0.0908714285714286,-0.882571428571428,-0.389657142857143,0.57,-0.6255,0.275333333333333,0.201,0,0,0,0,0,0,0,-0.382066666666667,-0.93795,-0.0189,-4.06657142857143,44.1942857142857,-5.53142857142857,0.93175,0.918214285714286,-0.380371428571429,0.0823571428571429,-77.641,8.26216666666667,-25.5995,478.333,0,1,0,0
24-May-2018 14:38:09,104.333333333333,0.0908714285714286,-0.882571428571428,-0.389657142857143,0.57,-0.6255,0.275333333333333,0.201,0,0,0,0,0,0,0,-0.382066666666667,-0.93795,-0.0189,-4.06657142857143,44.1942857142857,-5.53142857142857,0.93175,0.918214285714286,-0.380371428571429,0.0823571428571429,-77.641,8.26216666666667,-25.5995,478.333,0,1,0,0
24-May-2018 14:38:10,-760.8,0.0908714285714286,-0.882571428571428,-0.389657142857143,0.57,-0.6255,0.275333333333333,0.201,0,0,0,0,0,0,0,-0.479816666666667,-0.877316666666667,0.25095,5.8976,28.204,-1.1128,2.0765,0.9557,-0.4534,0.00845,-8.07933333333333,-9.7865,-2.56083333333333,422.811,1,1,0,1
24-May-2018 14:38:10,-760.8,0.0908714285714286,-0.882571428571428,-0.389657142857143,0.57,-0.6255,0.275333333333333,0.201,0,0,0,0,0,0,0,-0.479816666666667,-0.877316666666667,0.25095,5.8976,28.204,-1.1128,2.0765,0.9557,-0.4534,0.00845,-8.07933333333333,-9.7865,-2.56083333333333,422.811,1,1,0,1
24-May-2018 14:38:10,-760.8,0.0908714285714286,-0.882571428571428,-0.389657142857143,0.57,-0.6255,0.275333333333333,0.201,0,0,0,0,0,0,0,-0.479816666666667,-0.877316666666667,0.25095,5.8976,28.204,-1.1128,2.0765,0.9557,-0.4534,0.00845,-8.07933333333333,-9.7865,-2.56083333333333,422.811,1,1,0,1
24-May-2018 14:38:10,-760.8,0.0908714285714286,-0.882571428571428,-0.389657142857143,0.57,-0.6255,0.275333333333333,0.201,0,0,0,0,0,0,0,-0.479816666666667,-0.877316666666667,0.25095,5.8976,28.204,-1.1128,2.0765,0.9557,-0.4534,0.00845,-8.07933333333333,-9.7865,-2.56083333333333,422.811,1,1,0,1
24-May-2018 14:38:11,-1881.22222222222,0.0908714285714286,-0.882571428571428,-0.389657142857143,0.57,-0.6255,0.275333333333333,0.201,0,0,0,0,0,0,0,-0.31945,-0.953325,-0.104625,-3.40833333333333,46.49,-6.55666666666666,3.1044,0.9476625,-0.4209875,0.0985,-35.395375,16.7455,-2.507625,420.053,1,1,0,1
24-May-2018 14:38:11,-1881.22222222222,0.0908714285714286,-0.882571428571428,-0.389657142857143,0.57,-0.6255,0.275333333333333,0.201,0,0,0,0,0,0,0,-0.31945,-0.953325,-0.104625,-3.40833333333333,46.49,-6.55666666666666,3.1044,0.9476625,-0.4209875,0.0985,-35.395375,16.7455,-2.507625,420.053,1,1,0,1
24-May-2018 14:38:11,-1881.22222222222,0.0908714285714286,-0.882571428571428,-0.389657142857143,0.57,-0.6255,0.275333333333333,0.201,0,0,0,0,0,0,0,-0.31945,-0.953325,-0.104625,-3.40833333333333,46.49,-6.55666666666666,3.1044,0.9476625,-0.4209875,0.0985,-35.395375,16.7455,-2.507625,420.053,1,1,0,1
24-May-2018 14:38:11,-1881.22222222222,0.0908714285714286,-0.882571428571428,-0.389657142857143,0.57,-0.6255,0.275333333333333,0.201,0,0,0,0,0,0,0,-0.31945,-0.953325,-0.104625,-3.40833333333333,46.49,-6.55666666666666,3.1044,0.9476625,-0.4209875,0.0985,-35.395375,16.7455,-2.507625,420.053,1,1,0,1
24-May-2018 14:38:12,-2048,0.0908714285714286,-0.882571428571428,-0.389657142857143,0.57,-0.6255,0.275333333333333,0.201,0,0,0,0,0,0,0,-0.25952,-0.88076,0.11176,4.478,22.214,-7.064,2.737,0.940742857142857,-0.425814285714286,-0.0377428571428571,-52.047,30.7682,-6.7438,556.9965,1,1,1,1
24-May-2018 14:38:12,-2048,0.0908714285714286,-0.882571428571428,-0.389657142857143,0.57,-0.6255,0.275333333333333,0.201,0,0,0,0,0,0,0,-0.25952,-0.88076,0.11176,4.478,22.214,-7.064,2.737,0.940742857142857,-0.425814285714286,-0.0377428571428571,-52.047,30.7682,-6.7438,556.9965,1,1,1,1
24-May-2018 14:38:12,-2048,0.0908714285714286,-0.882571428571428,-0.389657142857143,0.57,-0.6255,0.275333333333333,0.201,0,0,0,0,0,0,0,-0.25952,-0.88076,0.11176,4.478,22.214,-7.064,2.737,0.940742857142857,-0.425814285714286,-0.0377428571428571,-52.047,30.7682,-6.7438,556.9965,1,1,1,1
24-May-2018 14:38:12,-2048,0.0908714285714286,-0.882571428571428,-0.389657142857143,0.57,-0.6255,0.275333333333333,0.201,0,0,0,0,0,0,0,-0.25952,-0.88076,0.11176,4.478,22.214,-7.064,2.737,0.940742857142857,-0.425814285714286,-0.0377428571428571,-52.047,30.7682,-6.7438,556.9965,1,1,1,1
24-May-2018 14:38:13,-2048,0.0908714285714286,-0.882571428571428,-0.389657142857143,0.57,-0.6255,0.275333333333333,0.201,0,0,0,0,0,0,0,-0.290316666666667,-1.02528333333333,-0.0650166666666667,9.31166666666667,18.175,17.9616666666667,1.92933333333333,0.952057142857143,-0.410842857142857,0.0576,-28.7108571428571,32.4041428571429,15.8797142857143,657.936,1,1,1,1
24-May-2018 14:38:13,-2048,0.0908714285714286,-0.882571428571428,-0.389657142857143,0.57,-0.6255,0.275333333333333,0.201,0,0,0,0,0,0,0,-0.290316666666667,-1.02528333333333,-0.0650166666666667,9.31166666666667,18.175,17.9616666666667,1.92933333333333,0.952057142857143,-0.410842857142857,0.0576,-28.7108571428571,32.4041428571429,15.8797142857143,657.936,1,1,1,1
24-May-2018 14:38:13,-2048,0.0908714285714286,-0.882571428571428,-0.389657142857143,0.57,-0.6255,0.275333333333333,0.201,0,0,0,0,0,0,0,-0.290316666666667,-1.02528333333333,-0.0650166666666667,9.31166666666667,18.175,17.9616666666667,1.92933333333333,0.952057142857143,-0.410842857142857,0.0576,-28.7108571428571,32.4041428571429,15.8797142857143,657.936,1,1,1,1
24-May-2018 14:38:13,-2048,0.0908714285714286,-0.882571428571428,-0.389657142857143,0.57,-0.6255,0.275333333333333,0.201,0,0,0,0,0,0,0,-0.290316666666667,-1.02528333333333,-0.0650166666666667,9.31166666666667,18.175,17.9616666666667,1.92933333333333,0.952057142857143,-0.410842857142857,0.0576,-28.7108571428571,32.4041428571429,15.8797142857143,657.936,1,1,1,1
24-May-2018 14:38:14,-1959.3,0.0908714285714286,-0.882571428571428,-0.389657142857143,0.57,-0.6255,0.275333333333333,0.201,0,0,0,0,0,0,0,-0.36772,-0.92728,0.03712,-19.865,30.7425,-11.8925,2.19525,0.97695,-0.467466666666667,0.02065,-5.17283333333333,-0.477833333333333,0.609833333333332,599.429333333333,1,1,1,1
24-May-2018 14:38:14,-1959.3,0.0908714285714286,-0.882571428571428,-0.389657142857143,0.57,-0.6255,0.275333333333333,0.201,0,0,0,0,0,0,0,-0.36772,-0.92728,0.03712,-19.865,30.7425,-11.8925,2.19525,0.97695,-0.467466666666667,0.02065,-5.17283333333333,-0.477833333333333,0.609833333333332,599.429333333333,1,1,1,1
24-May-2018 14:38:14,-1959.3,0.0908714285714286,-0.882571428571428,-0.389657142857143,0.57,-0.6255,0.275333333333333,0.201,0,0,0,0,0,0,0,-0.36772,-0.92728,0.03712,-19.865,30.7425,-11.8925,2.19525,0.97695,-0.467466666666667,0.02065,-5.17283333333333,-0.477833333333333,0.609833333333332,599.429333333333,1,1,1,1
24-May-2018 14:38:14,-1959.3,0.0908714285714286,-0.882571428571428,-0.389657142857143,0.57,-0.6255,0.275333333333333,0.201,0,0,0,0,0,0,0,-0.36772,-0.92728,0.03712,-19.865,30.7425,-11.8925,2.19525,0.97695,-0.467466666666667,0.02065,-5.17283333333333,-0.477833333333333,0.609833333333332,599.429333333333,1,1,1,1
24-May-2018 14:38:15,-1437.88888888889,0.0908714285714286,-0.882571428571428,-0.389657142857143,0.57,-0.6255,0.275333333333333,0.201,0,0,0,0,0,0,0,-0.351116666666667,-0.893366666666667,0.0969333333333333,25.5388333333333,23.2048333333333,8.9,1.65975,0.987525,-0.53515,0.0138,31.9377777777778,-13.1977777777778,5.86711111111111,558.205,1,1,1,1
24-May-2018 14:38:15,-1437.88888888889,0.0908714285714286,-0.882571428571428,-0.389657142857143,0.57,-0.6255,0.275333333333333,0.201,0,0,0,0,0,0,0,-0.351116666666667,-0.893366666666667,0.0969333333333333,25.5388333333333,23.2048333333333,8.9,1.65975,0.987525,-0.53515,0.0138,31.9377777777778,-13.1977777777778,5.86711111111111,558.205,1,1,1,1
24-May-2018 14:38:15,-1437.88888888889,0.0908714285714286,-0.882571428571428,-0.389657142857143,0.57,-0.6255,0.275333333333333,0.201,0,0,0,0,0,0,0,-0.351116666666667,-0.893366666666667,0.0969333333333333,25.5388333333333,23.2048333333333,8.9,1.65975,0.987525,-0.53515,0.0138,31.9377777777778,-13.1977777777778,5.86711111111111,558.205,1,1,1,1
24-May-2018 14:38:15,-1437.88888888889,0.0908714285714286,-0.882571428571428,-0.389657142857143,0.57,-0.6255,0.275333333333333,0.201,0,0,0,0,0,0,0,-0.351116666666667,-0.893366666666667,0.0969333333333333,25.5388333333333,23.2048333333333,8.9,1.65975,0.987525,-0.53515,0.0138,31.9377777777778,-13.1977777777778,5.86711111111111,558.205,1,1,1,1
24-May-2018 14:38:16,-995.6,0.0908714285714286,-0.882571428571428,-0.389657142857143,0.57,-0.6255,0.275333333333333,0.201,0,0,0,0,0,0,0,-0.323433333333333,-0.983366666666667,-0.109933333333333,16.426125,53.81375,6.990375,1.10966666666667,0.9887,-0.42975,0.0611333333333333,-1.6338,2.5,-12.5852,755.8565,0,1,1,1
24-May-2018 14:38:16,-995.6,0.0908714285714286,-0.882571428571428,-0.389657142857143,0.57,-0.6255,0.275333333333333,0.201,0,0,0,0,0,0,0,-0.323433333333333,-0.983366666666667,-0.109933333333333,16.426125,53.81375,6.990375,1.10966666666667,0.9887,-0.42975,0.0611333333333333,-1.6338,2.5,-12.5852,755.8565,0,1,1,1
24-May-2018 14:38:16,-995.6,0.0908714285714286,-0.882571428571428,-0.389657142857143,0.57,-0.6255,0.275333333333333,0.201,0,0,0,0,0,0,0,-0.323433333333333,-0.983366666666667,-0.109933333333333,16.426125,53.81375,6.990375,1.10966666666667,0.9887,-0.42975,0.0611333333333333,-1.6338,2.5,-12.5852,755.8565,0,1,1,1
24-May-2018 14:38:16,-995.6,0.0908714285714286,-0.882571428571428,-0.389657142857143,0.57,-0.6255,0.275333333333333,0.201,0,0,0,0,0,0,0,-0.323433333333333,-0.983366666666667,-0.109933333333333,16.426125,53.81375,6.990375,1.10966666666667,0.9887,-0.42975,0.0611333333333333,-1.6338,2.5,-12.5852,755.8565,0,1,1,1
24-May-2018 14:38:17,-695.5,0.0908714285714286,-0.882571428571428,-0.389657142857143,0.57,-0.6255,0.275333333333333,0.201,0,0,0,0,0,0,0,-0.369983333333333,-0.871166666666667,0.1994,-15.2916666666667,19.2533333333333,-12.72,1.2902,0.9002125,-0.4805,-0.1106125,-96.6708888888889,41.4026666666667,-16.9308888888889,531.387,1,1,1,1
24-May-2018 14:38:17,-695.5,0.0908714285714286,-0.882571428571428,-0.389657142857143,0.57,-0.6255,0.275333333333333,0.201,0,0,0,0,0,0,0,-0.369983333333333,-0.871166666666667,0.1994,-15.2916666666667,19.2533333333333,-12.72,1.2902,0.9002125,-0.4805,-0.1106125,-96.6708888888889,41.4026666666667,-16.9308888888889,531.387,1,1,1,1
24-May-2018 14:38:17,-695.5,0.0908714285714286,-0.882571428571428,-0.389657142857143,0.57,-0.6255,0.275333333333333,0.201,0,0,0,0,0,0,0,-0.369983333333333,-0.871166666666667,0.1994,-15.2916666666667,19.2533333333333,-12.72,1.2902,0.9002125,-0.4805,-0.1106125,-96.6708888888889,41.4026666666667,-16.9308888888889,531.387,1,1,1,1
24-May-2018 14:38:17,-695.5,0.0908714285714286,-0.882571428571428,-0.389657142857143,0.57,-0.6255,0.275333333333333,0.201,0,0,0,0,0,0,0,-0.369983333333333,-0.871166666666667,0.1994,-15.2916666666667,19.2533333333333,-12.72,1.2902,0.9002125,-0.4805,-0.1106125,-96.6708888888889,41.4026666666667,-16.9308888888889,531.387,1,1,1,1
24-May-2018 14:38:18,-483.8,0.0908714285714286,-0.882571428571428,-0.389657142857143,0.57,-0.6255,0.275333333333333,0.201,0,0,0,0,0,0,0,-0.361683333333333,-0.9029,-0.0274833333333333,33.5683333333333,11.7,30.0003333333333,1.0215,0.926925,-0.5721,0.142325,-6.382,38.5976666666667,40.8943333333333,484.746666666667,1,1,1,1
24-May-2018 14:38:18,-483.8,0.0908714285714286,-0.882571428571428,-0.389657142857143,0.57,-0.6255,0.275333333333333,0.201,0,0,0,0,0,0,0,-0.361683333333333,-0.9029,-0.0274833333333333,33.5683333333333,11.7,30.0003333333333,1.0215,0.926925,-0.5721,0.142325,-6.382,38.5976666666667,40.8943333333333,484.746666666667,1,1,1,1
24-May-2018 14:38:18,-483.8,0.0908714285714286,-0.882571428571428,-0.389657142857143,0.57,-0.6255,0.275333333333333,0.201,0,0,0,0,0,0,0,-0.361683333333333,-0.9029,-0.0274833333333333,33.5683333333333,11.7,30.0003333333333,1.0215,0.926925,-0.5721,0.142325,-6.382,38.5976666666667,40.8943333333333,484.746666666667,1,1,1,1
24-May-2018 14:38:18,-483.8,0.0908714285714286,-0.882571428571428,-0.389657142857143,0.57,-0.6255,0.275333333333333,0.201,0,0,0,0,0,0,0,-0.361683333333333,-0.9029,-0.0274833333333333,33.5683333333333,11.7,30.0003333333333,1.0215,0.926925,-0.5721,0.142325,-6.382,38.5976666666667,40.8943333333333,484.746666666667,1,1,1,1
24-May-2018 14:38:19,108,0.0908714285714286,-0.882571428571428,-0.389657142857143,0.57,-0.6255,0.275333333333333,0.201,0,0,0,0,0,0,0,-0.43332,-0.88132,0.0043,-17.75975,5.982,-17.955875,0.998666666666667,0.796133333333333,-0.3487,0.15305,19.627,-22.355,-13.032875,756.172,1,1,1,1
24-May-2018 14:38:19,108,0.0908714285714286,-0.882571428571428,-0.389657142857143,0.57,-0.6255,0.275333333333333,0.201,0,0,0,0,0,0,0,-0.43332,-0.88132,0.0043,-17.75975,5.982,-17.955875,0.998666666666667,0.796133333333333,-0.3487,0.15305,19.627,-22.355,-13.032875,756.172,1,1,1,1
24-May-2018 14:38:19,108,0.0908714285714286,-0.882571428571428,-0.389657142857143,0.57,-0.6255,0.275333333333333,0.201,0,0,0,0,0,0,0,-0.43332,-0.88132,0.0043,-17.75975,5.982,-17.955875,0.998666666666667,0.796133333333333,-0.3487,0.15305,19.627,-22.355,-13.032875,756.172,1,1,1,1
24-May-2018 14:38:19,108,0.0908714285714286,-0.882571428571428,-0.389657142857143,0.57,-0.6255,0.275333333333333,0.201,0,0,0,0,0,0,0,-0.43332,-0.88132,0.0043,-17.75975,5.982,-17.955875,0.998666666666667,0.796133333333333,-0.3487,0.15305,19.627,-22.355,-13.032875,756.172,1,1,1,1
24-May-2018 14:38:20,1883.09090909091,0.0908714285714286,-0.882571428571428,-0.389657142857143,0.57,-0.6255,0.275333333333333,0.201,0,0,0,0,0,0,0,-0.488185714285714,-0.891,0.0907714285714286,2.7935,0.703250000000001,7.5725,1.0465,0.94755,-0.3546875,0.10365,-19.669,1.95114285714286,1.59414285714286,480.16,1,1,0,1
24-May-2018 14:38:20,1883.09090909091,0.0908714285714286,-0.882571428571428,-0.389657142857143,0.57,-0.6255,0.275333333333333,0.201,0,0,0,0,0,0,0,-0.488185714285714,-0.891,0.0907714285714286,2.7935,0.703250000000001,7.5725,1.0465,0.94755,-0.3546875,0.10365,-19.669,1.95114285714286,1.59414285714286,480.16,1,1,0,1
24-May-2018 14:38:20,1883.09090909091,0.0908714285714286,-0.882571428571428,-0.389657142857143,0.57,-0.6255,0.275333333333333,0.201,0,0,0,0,0,0,0,-0.488185714285714,-0.891,0.0907714285714286,2.7935,0.703250000000001,7.5725,1.0465,0.94755,-0.3546875,0.10365,-19.669,1.95114285714286,1.59414285714286,480.16,1,1,0,1
24-May-2018 14:38:20,1883.09090909091,0.0908714285714286,-0.882571428571428,-0.389657142857143,0.57,-0.6255,0.275333333333333,0.201,0,0,0,0,0,0,0,-0.488185714285714,-0.891,0.0907714285714286,2.7935,0.703250000000001,7.5725,1.0465,0.94755,-0.3546875,0.10365,-19.669,1.95114285714286,1.59414285714286,480.16,1,1,0,1
24-May-2018 14:38:21,1202.55555555556,0.0908714285714286,-0.882571428571428,-0.389657142857143,0.57,-0.6255,0.275333333333333,0.201,0,0,0,0,0,0,0,-0.3645,-0.92994,-0.15986,-3.8496,33.546,-10.394,0.8405,0.9413875,-0.48985,0.0903625,30.8971428571429,0.601142857142858,13.7282857142857,395.711,1,1,0,1
24-May-2018 14:38:21,1202.55555555556,0.0908714285714286,-0.882571428571428,-0.389657142857143,0.57,-0.6255,0.275333333333333,0.201,0,0,0,0,0,0,0,-0.3645,-0.92994,-0.15986,-3.8496,33.546,-10.394,0.8405,0.9413875,-0.48985,0.0903625,30.8971428571429,0.601142857142858,13.7282857142857,395.711,1,1,0,1
24-May-2018 14:38:21,1202.55555555556,0.0908714285714286,-0.882571428571428,-0.389657142857143,0.57,-0.6255,0.275333333333333,0.201,0,0,0,0,0,0,0,-0.3645,-0.92994,-0.15986,-3.8496,33.546,-10.394,0.8405,0.9413875,-0.48985,0.0903625,30.8971428571429,0.601142857142858,13.7282857142857,395.711,1,1,0,1
24-May-2018 14:38:21,1202.55555555556,0.0908714285714286,-0.882571428571428,-0.389657142857143,0.57,-0.6255,0.275333333333333,0.201,0,0,0,0,0,0,0,-0.3645,-0.92994,-0.15986,-3.8496,33.546,-10.394,0.8405,0.9413875,-0.48985,0.0903625,30.8971428571429,0.601142857142858,13.7282857142857,395.711,1,1,0,1
24-May-2018 14:38:22,951.181818181818,0.0908714285714286,-0.882571428571428,-0.389657142857143,0.57,-0.6255,0.275333333333333,0.201,0,0,0,0,0,0,0,-0.401316666666667,-0.826983333333333,0.187216666666667,-9.37666666666667,6.24333333333333,-13.135,1.2128,0.925742857142857,-0.397028571428571,0.0900428571428571,-46.4545714285714,-5.392,-30.6008571428571,513.114666666667,0,1,0,0
24-May-2018 14:38:22,951.181818181818,0.0908714285714286,-0.882571428571428,-0.389657142857143,0.57,-0.6255,0.275333333333333,0.201,0,0,0,0,0,0,0,-0.401316666666667,-0.826983333333333,0.187216666666667,-9.37666666666667,6.24333333333333,-13.135,1.2128,0.925742857142857,-0.397028571428571,0.0900428571428571,-46.4545714285714,-5.392,-30.6008571428571,513.114666666667,0,1,0,0
24-May-2018 14:38:22,951.181818181818,0.0908714285714286,-0.882571428571428,-0.389657142857143,0.57,-0.6255,0.275333333333333,0.201,0,0,0,0,0,0,0,-0.401316666666667,-0.826983333333333,0.187216666666667,-9.37666666666667,6.24333333333333,-13.135,1.2128,0.925742857142857,-0.397028571428571,0.0900428571428571,-46.4545714285714,-5.392,-30.6008571428571,513.114666666667,0,1,0,0
24-May-2018 14:38:22,951.181818181818,0.0908714285714286,-0.882571428571428,-0.389657142857143,0.57,-0.6255,0.275333333333333,0.201,0,0,0,0,0,0,0,-0.401316666666667,-0.826983333333333,0.187216666666667,-9.37666666666667,6.24333333333333,-13.135,1.2128,0.925742857142857,-0.397028571428571,0.0900428571428571,-46.4545714285714,-5.392,-30.6008571428571,513.114666666667,0,1,0,0
24-May-2018 14:38:23,-2026.88888888889,0.0908714285714286,-0.882571428571428,-0.389657142857143,0.57,-0.6255,0.275333333333333,0.201,0,0,0,0,0,0,0,-0.34374,-0.92322,0.04806,20.1462857142857,37.3042857142857,13.5817142857143,2.34433333333333,0.939416666666667,-0.439533333333333,0.0395666666666667,18.889,-3.69244444444444,8.19788888888889,482.992,1,1,0,1
24-May-2018 14:38:23,-2026.88888888889,0.0908714285714286,-0.882571428571428,-0.389657142857143,0.57,-0.6255,0.275333333333333,0.201,0,0,0,0,0,0,0,-0.34374,-0.92322,0.04806,20.1462857142857,37.3042857142857,13.5817142857143,2.34433333333333,0.939416666666667,-0.439533333333333,0.0395666666666667,18.889,-3.69244444444444,8.19788888888889,482.992,1,1,0,1
24-May-2018 14:38:23,-2026.88888888889,0.0908714285714286,-0.882571428571428,-0.389657142857143,0.57,-0.6255,0.275333333333333,0.201,0,0,0,0,0,0,0,-0.34374,-0.92322,0.04806,20.1462857142857,37.3042857142857,13.5817142857143,2.34433333333333,0.939416666666667,-0.439533333333333,0.0395666666666667,18.889,-3.69244444444444,8.19788888888889,482.992,1,1,0,1
24-May-2018 14:38:23,-2026.88888888889,0.0908714285714286,-0.882571428571428,-0.389657142857143,0.57,-0.6255,0.275333333333333,0.201,0,0,0,0,0,0,0,-0.34374,-0.92322,0.04806,20.1462857142857,37.3042857142857,13.5817142857143,2.34433333333333,0.939416666666667,-0.439533333333333,0.0395666666666667,18.889,-3.69244444444444,8.19788888888889,482.992,1,1,0,1
24-May-2018 14:38:24,-521.818181818182,0.0908714285714286,-0.882571428571428,-0.389657142857143,0.57,-0.6255,0.275333333333333,0.201,0,0,0,0,0,0,0,-0.388166666666667,-0.876516666666666,0.000749999999999987,-12.33,31.3771428571429,-14.8031428571429,3.18966666666667,0.965128571428571,-0.4545,0.147071428571429,-27.56,27.0297142857143,3.737,465.143,1,1,1,1
24-May-2018 14:38:24,-521.818181818182,0.0908714285714286,-0.882571428571428,-0.389657142857143,0.57,-0.6255,0.275333333333333,0.201,0,0,0,0,0,0,0,-0.388166666666667,-0.876516666666666,0.000749999999999987,-12.33,31.3771428571429,-14.8031428571429,3.18966666666667,0.965128571428571,-0.4545,0.147071428571429,-27.56,27.0297142857143,3.737,465.143,1,1,1,1
24-May-2018 14:38:24,-521.818181818182,0.0908714285714286,-0.882571428571428,-0.389657142857143,0.57,-0.6255,0.275333333333333,0.201,0,0,0,0,0,0,0,-0.388166666666667,-0.876516666666666,0.000749999999999987,-12.33,31.3771428571429,-14.8031428571429,3.18966666666667,0.965128571428571,-0.4545,0.147071428571429,-27.56,27.0297142857143,3.737,465.143,1,1,1,1
24-May-2018 14:38:24,-521.818181818182,0.0908714285714286,-0.882571428571428,-0.389657142857143,0.57,-0.6255,0.275333333333333,0.201,0,0,0,0,0,0,0,-0.388166666666667,-0.876516666666666,0.000749999999999987,-12.33,31.3771428571429,-14.8031428571429,3.18966666666667,0.965128571428571,-0.4545,0.147071428571429,-27.56,27.0297142857143,3.737,465.143,1,1,1,1
24-May-2018 14:38:25,1422.2,0.0908714285714286,-0.882571428571428,-0.389657142857143,0.57,-0.6255,0.275333333333333,0.201,0,0,0,0,0,0,0,-0.29614,-1.0073,-0.10066,13.6434,26.248,18.3878,2.4055,0.909966666666667,-0.439316666666667,0.0614833333333333,-29.498,11.9038888888889,-8.12255555555556,415.924,1,1,1,1
24-May-2018 14:38:25,1422.2,0.0908714285714286,-0.882571428571428,-0.389657142857143,0.57,-0.6255,0.275333333333333,0.201,0,0,0,0,0,0,0,-0.29614,-1.0073,-0.10066,13.6434,26.248,18.3878,2.4055,0.909966666666667,-0.439316666666667,0.0614833333333333,-29.498,11.9038888888889,-8.12255555555556,415.924,1,1,1,1
24-May-2018 14:38:25,1422.2,0.0908714285714286,-0.882571428571428,-0.389657142857143,0.57,-0.6255,0.275333333333333,0.201,0,0,0,0,0,0,0,-0.29614,-1.0073,-0.10066,13.6434,26.248,18.3878,2.4055,0.909966666666667,-0.439316666666667,0.0614833333333333,-29.498,11.9038888888889,-8.12255555555556,415.924,1,1,1,1
24-May-2018 14:38:25,1422.2,0.0908714285714286,-0.882571428571428,-0.389657142857143,0.57,-0.6255,0.275333333333333,0.201,0,0,0,0,0,0,0,-0.29614,-1.0073,-0.10066,13.6434,26.248,18.3878,2.4055,0.909966666666667,-0.439316666666667,0.0614833333333333,-29.498,11.9038888888889,-8.12255555555556,415.924,1,1,1,1
24-May-2018 14:38:26,2031.2,0.0908714285714286,-0.882571428571428,-0.389657142857143,0.57,-0.6255,0.275333333333333,0.201,0,0,0,0,0,0,0,-0.593583333333333,-0.852783333333333,0.220883333333333,-8.308,-1.59,7.1425,2.3815,0.971457142857143,-0.479157142857143,0.0665857142857143,-49.2886666666667,33.1605,28.9735,443.346,1,0,1,1
24-May-2018 14:38:26,2031.2,0.0908714285714286,-0.882571428571428,-0.389657142857143,0.57,-0.6255,0.275333333333333,0.201,0,0,0,0,0,0,0,-0.593583333333333,-0.852783333333333,0.220883333333333,-8.308,-1.59,7.1425,2.3815,0.971457142857143,-0.479157142857143,0.0665857142857143,-49.2886666666667,33.1605,28.9735,443.346,1,0,1,1
24-May-2018 14:38:26,2031.2,0.0908714285714286,-0.882571428571428,-0.389657142857143,0.57,-0.6255,0.275333333333333,0.201,0,0,0,0,0,0,0,-0.593583333333333,-0.852783333333333,0.220883333333333,-8.308,-1.59,7.1425,2.3815,0.971457142857143,-0.479157142857143,0.0665857142857143,-49.2886666666667,33.1605,28.9735,443.346,1,0,1,1
24-May-2018 14:38:26,2031.2,0.0908714285714286,-0.882571428571428,-0.389657142857143,0.57,-0.6255,0.275333333333333,0.201,0,0,0,0,0,0,0,-0.593583333333333,-0.852783333333333,0.220883333333333,-8.308,-1.59,7.1425,2.3815,0.971457142857143,-0.479157142857143,0.0665857142857143,-49.2886666666667,33.1605,28.9735,443.346,1,0,1,1
24-May-2018 14:38:27,1624.22222222222,0.0908714285714286,-0.882571428571428,-0.389657142857143,0.57,-0.6255,0.275333333333333,0.201,0,0,0,0,0,0,0,-0.343342857142857,-0.952571428571429,0.0269571428571429,6.612,-0.8536,4.394,2.12525,0.936728571428571,-0.536971428571429,0.0072,-23.3841666666667,6.311,-29.9778333333333,723.443,1,1,1,1
24-May-2018 14:38:27,1624.22222222222,0.0908714285714286,-0.882571428571428,-0.389657142857143,0.57,-0.6255,0.275333333333333,0.201,0,0,0,0,0,0,0,-0.343342857142857,-0.952571428571429,0.0269571428571429,6.612,-0.8536,4.394,2.12525,0.936728571428571,-0.536971428571429,0.0072,-23.3841666666667,6.311,-29.9778333333333,723.443,1,1,1,1
24-May-2018 14:38:27,1624.22222222222,0.0908714285714286,-0.882571428571428,-0.389657142857143,0.57,-0.6255,0.275333333333333,0.201,0,0,0,0,0,0,0,-0.343342857142857,-0.952571428571429,0.0269571428571429,6.612,-0.8536,4.394,2.12525,0.936728571428571,-0.536971428571429,0.0072,-23.3841666666667,6.311,-29.9778333333333,723.443,1,1,1,1
24-May-2018 14:38:27,1624.22222222222,0.0908714285714286,-0.882571428571428,-0.389657142857143,0.57,-0.6255,0.275333333333333,0.201,0,0,0,0,0,0,0,-0.343342857142857,-0.952571428571429,0.0269571428571429,6.612,-0.8536,4.394,2.12525,0.936728571428571,-0.536971428571429,0.0072,-23.3841666666667,6.311,-29.9778333333333,723.443,1,1,1,1
24-May-2018 14:38:28,1140,0.0908714285714286,-0.882571428571428,-0.389657142857143,0.57,-0.6255,0.275333333333333,0.201,0,0,0,0,0,0,0,-0.38065,-0.9426,-0.04855,0.948333333333334,52.8933333333333,-0.888666666666667,1.5398,0.930025,-0.421675,0.09725,4.8485,8.82625,23.23175,712.549571428571,0,1,1,0
24-May-2018 14:38:28,1140,0.0908714285714286,-0.882571428571428,-0.389657142857143,0.57,-0.6255,0.275333333333333,0.201,0,0,0,0,0,0,0,-0.38065,-0.9426,-0.04855,0.948333333333334,52.8933333333333,-0.888666666666667,1.5398,0.930025,-0.421675,0.09725,4.8485,8.82625,23.23175,712.549571428571,0,1,1,0
24-May-2018 14:38:28,1140,0.0908714285714286,-0.882571428571428,-0.389657142857143,0.57,-0.6255,0.275333333333333,0.201,0,0,0,0,0,0,0,-0.38065,-0.9426,-0.04855,0.948333333333334,52.8933333333333,-0.888666666666667,1.5398,0.930025,-0.421675,0.09725,4.8485,8.82625,23.23175,712.549571428571,0,1,1,0
24-May-2018 14:38:28,1140,0.0908714285714286,-0.882571428571428,-0.389657142857143,0.57,-0.6255,0.275333333333333,0.201,0,0,0,0,0,0,0,-0.38065,-0.9426,-0.04855,0.948333333333334,52.8933333333333,-0.888666666666667,1.5398,0.930025,-0.421675,0.09725,4.8485,8.82625,23.23175,712.549571428571,0,1,1,0
24-May-2018 14:38:29,786.6,0.0908714285714286,-0.882571428571428,-0.389657142857143,0.57,-0.6255,0.275333333333333,0.201,0,0,0,0,0,0,0,-0.363383333333333,-0.846816666666667,0.1963,14.2883333333333,48.4283333333333,-7.94,1.3595,0.997916666666667,-0.4541,0.131433333333333,-35.9951111111111,-1.69388888888889,-14.6411111111111,709.168,0,1,1,0
24-May-2018 14:38:29,786.6,0.0908714285714286,-0.882571428571428,-0.389657142857143,0.57,-0.6255,0.275333333333333,0.201,0,0,0,0,0,0,0,-0.363383333333333,-0.846816666666667,0.1963,14.2883333333333,48.4283333333333,-7.94,1.3595,0.997916666666667,-0.4541,0.131433333333333,-35.9951111111111,-1.69388888888889,-14.6411111111111,709.168,0,1,1,0
24-May-2018 14:38:29,786.6,0.0908714285714286,-0.882571428571428,-0.389657142857143,0.57,-0.6255,0.275333333333333,0.201,0,0,0,0,0,0,0,-0.363383333333333,-0.846816666666667,0.1963,14.2883333333333,48.4283333333333,-7.94,1.3595,0.997916666666667,-0.4541,0.131433333333333,-35.9951111111111,-1.69388888888889,-14.6411111111111,709.168,0,1,1,0
24-May-2018 14:38:29,786.6,0.0908714285714286,-0.882571428571428,-0.389657142857143,0.57,-0.6255,0.275333333333333,0.201,0,0,0,0,0,0,0,-0.363383333333333,-0.846816666666667,0.1963,14.2883333333333,48.4283333333333,-7.94,1.3595,0.997916666666667,-0.4541,0.131433333333333,-35.9951111111111,-1.69388888888889,-14.6411111111111,709.168,0,1,1,0
24-May-2018 14:38:30,549.818181818182,0.0908714285714286,-0.882571428571428,-0.389657142857143,0.57,-0.6255,0.275333333333333,0.201,0,0,0,0,0,0,0,-0.287433333333333,-0.946333333333333,-0.109933333333333,-0.937,41.9666666666667,1.159,1.534,0.8382,-0.6073,-0.02965,-24.7865,47.134,72.073,707.4875,1,1,1,1
24-May-2018 14:38:30,549.818181818182,0.0908714285714286,-0.882571428571428,-0.389657142857143,0.57,-0.6255,0.275333333333333,0.201,0,0,0,0,0,0,0,-0.287433333333333,-0.946333333333333,-0.109933333333333,-0.937,41.9666666666667,1.159,1.534,0.8382,-0.6073,-0.02965,-24.7865,47.134,72.073,707.4875,1,1,1,1
24-May-2018 14:38:30,549.818181818182,0.0908714285714286,-0.882571428571428,-0.389657142857143,0.57,-0.6255,0.275333333333333,0.201,0,0,0,0,0,0,0,-0.287433333333333,-0.946333333333333,-0.109933333333333,-0.937,41.9666666666667,1.159,1.534,0.8382,-0.6073,-0.02965,-24.7865,47.134,72.073,707.4875,1,1,1,1
24-May-2018 14:38:30,549.818181818182,0.0908714285714286,-0.882571428571428,-0.389657142857143,0.57,-0.6255,0.275333333333333,0.201,0,0,0,0,0,0,0,-0.287433333333333,-0.946333333333333,-0.109933333333333,-0.937,41.9666666666667,1.159,1.534,0.8382,-0.6073,-0.02965,-24.7865,47.134,72.073,707.4875,1,1,1,1
