TIME,HELMET_RAW,BELT_ACC_X,BELT_ACC_Y,BELT_ACC_Z,BELT_ANG_X,BELT_ANG_Y,BELT_ANG_Z,BELT_LUMINOSITY,NECK_ACC_X,NECK_ACC_Y,NECK_ACC_Z,NECK_ANG_X,NECK_ANG_Y,NECK_ANG_Z,NECK_LUMINOSITY,PCKT_ACC_X,PCKT_ACC_Y,PCKT_ACC_Z,PCKT_ANG_X,PCKT_ANG_Y,PCKT_ANG_Z,PCKT_LUMINOSITY,WRST_ACC_X,WRST_ACC_Y,WRST_ACC_Z,WRST_ANG_X,WRST_ANG_Y,WRST_ANG_Z,WRST_LUMINOSITY,IR_1,IR_2,IR_3,IR_4
24-May-2018 14:36:31,52.1,0.0908714285714286,-0.882571428571428,-0.389657142857143,0.57,-0.6255,0.275333333333333,0.201,0,0,0,0,0,0,0,-0.10555,-0.967533333333333,0.3363,-1.198,0.629857142857143,-1.79142857142857,1.617,0.46295,-0.952283333333333,-0.0959166666666667,1.95128571428571,20.305,5.94071428571429,655.504666666667,0,1,1,1
24-May-2018 14:36:31,52.1,0.0908714285714286,-0.882571428571428,-0.389657142857143,0.57,-0.6255,0.275333333333333,0.201,0,0,0,0,0,0,0,-0.10555,-0.967533333333333,0.3363,-1.198,0.629857142857143,-1.79142857142857,1.617,0.46295,-0.952283333333333,-0.0959166666666667,1.95128571428571,20.305,5.94071428571429,655.504666666667,0,1,1,1
24-May-2018 14:36:31,52.1,0.0908714285714286,-0.882571428571428,-0.389657142857143,0.57,-0.6255,0.275333333333333,0.201,0,0,0,0,0,0,0,-0.10555,-0.967533333333333,0.3363,-1.198,0.629857142857143,-1.79142857142857,1.617,0.46295,-0.952283333333333,-0.0959166666666667,1.95128571428571,20.305,5.94071428571429,655.504666666667,0,1,1,1
24-May-2018 14:36:31,52.1,0.0908714285714286,-0.882571428571428,-0.389657142857143,0.57,-0.6255,0.275333333333333,0.201,0,0,0,0,0,0,0,-0.10555,-0.967533333333333,0.3363,-1.198,0.629857142857143,-1.79142857142857,1.617,0.46295,-0.952283333333333,-0.0959166666666667,1.95128571428571,20.305,5.94071428571429,655.504666666667,0,1,1,1
24-May-2018 14:36:32,52,0.0908714285714286,-0.882571428571428,-0.389657142857143,0.57,-0.6255,0.275333333333333,0.201,0,0,0,0,0,0,0,-0.0898833333333333,-0.965233333333333,0.320516666666667,-0.683,-0.705625,-0.48475,1.6055,0.597657142857143,-0.804671428571429,-0.289614285714286,-11.941,67.2156666666667,-21.5543333333333,541.99525,0,1,1,1
24-May-2018 14:36:32,52,0.0908714285714286,-0.882571428571428,-0.389657142857143,0.57,-0.6255,0.275333333333333,0.201,0,0,0,0,0,0,0,-0.0898833333333333,-0.965233333333333,0.320516666666667,-0.683,-0.705625,-0.48475,1.6055,0.597657142857143,-0.804671428571429,-0.289614285714286,-11.941,67.2156666666667,-21.5543333333333,541.99525,0,1,1,1
24-May-2018 14:36:32,52,0.0908714285714286,-0.882571428571428,-0.389657142857143,0.57,-0.6255,0.275333333333333,0.201,0,0,0,0,0,0,0,-0.0898833333333333,-0.965233333333333,0.320516666666667,-0.683,-0.705625,-0.48475,1.6055,0.597657142857143,-0.804671428571429,-0.289614285714286,-11.941,67.2156666666667,-21.5543333333333,541.99525,0,1,1,1
24-May-2018 14:36:32,52,0.0908714285714286,-0.882571428571428,-0.389657142857143,0.57,-0.6255,0.275333333333333,0.201,0,0,0,0,0,0,0,-0.0898833333333333,-0.965233333333333,0.320516666666667,-0.683,-0.705625,-0.48475,1.6055,0.597657142857143,-0.804671428571429,-0.289614285714286,-11.941,67.2156666666667,-21.5543333333333,541.99525,0,1,1,1
24-May-2018 14:36:33,52,0.0908714285714286,-0.882571428571428,-0.389657142857143,0.57,-0.6255,0.275333333333333,0.201,0,0,0,0,0,0,0,-0.09965,-0.968583333333333,0.327416666666667,-0.524833333333333,-0.565333333333333,0.346,1.706,0.937433333333333,-0.381966666666667,0.07895,-46.4365714285714,10.6271428571429,12.8832857142857,434.09475,0,1,1,1
24-May-2018 14:36:33,52,0.0908714285714286,-0.882571428571428,-0.389657142857143,0.57,-0.6255,0.275333333333333,0.201,0,0,0,0,0,0,0,-0.09965,-0.968583333333333,0.327416666666667,-0.524833333333333,-0.565333333333333,0.346,1.706,0.937433333333333,-0.381966666666667,0.07895,-46.4365714285714,10.6271428571429,12.8832857142857,434.09475,0,1,1,1
24-May-2018 14:36:33,52,0.0908714285714286,-0.882571428571428,-0.389657142857143,0.57,-0.6255,0.275333333333333,0.201,0,0,0,0,0,0,0,-0.09965,-0.968583333333333,0.327416666666667,-0.524833333333333,-0.565333333333333,0.346,1.706,0.937433333333333,-0.381966666666667,0.07895,-46.4365714285714,10.6271428571429,12.8832857142857,434.09475,0,1,1,1
24-May-2018 14:36:33,52,0.0908714285714286,-0.882571428571428,-0.389657142857143,0.57,-0.6255,0.275333333333333,0.201,0,0,0,0,0,0,0,-0.09965,-0.968583333333333,0.327416666666667,-0.524833333333333,-0.565333333333333,0.346,1.706,0.937433333333333,-0.381966666666667,0.07895,-46.4365714285714,10.6271428571429,12.8832857142857,434.09475,0,1,1,1
24-May-2018 14:36:34,52.0909090909091,0.0908714285714286,-0.882571428571428,-0.389657142857143,0.57,-0.6255,0.275333333333333,0.201,0,0,0,0,0,0,0,-0.108225,-0.96855,0.3299,-0.432833333333333,-0.9,-0.21,1.706,0.92952,-0.43188,-0.07082,-43.0795,15.122,-10.686,454.1365,0,1,1,1
24-May-2018 14:36:34,52.0909090909091,0.0908714285714286,-0.882571428571428,-0.389657142857143,0.57,-0.6255,0.275333333333333,0.201,0,0,0,0,0,0,0,-0.108225,-0.96855,0.3299,-0.432833333333333,-0.9,-0.21,1.706,0.92952,-0.43188,-0.07082,-43.0795,15.122,-10.686,454.1365,0,1,1,1
24-May-2018 14:36:34,52.0909090909091,0.0908714285714286,-0.882571428571428,-0.389657142857143,0.57,-0.6255,0.275333333333333,0.201,0,0,0,0,0,0,0,-0.108225,-0.96855,0.3299,-0.432833333333333,-0.9,-0.21,1.706,0.92952,-0.43188,-0.07082,-43.0795,15.122,-10.686,454.1365,0,1,1,1
24-May-2018 14:36:34,52.0909090909091,0.0908714285714286,-0.882571428571428,-0.389657142857143,0.57,-0.6255,0.275333333333333,0.201,0,0,0,0,0,0,0,-0.108225,-0.96855,0.3299,-0.432833333333333,-0.9,-0.21,1.706,0.92952,-0.43188,-0.07082,-43.0795,15.122,-10.686,454.1365,0,1,1,1
24-May-2018 14:36:35,52.2,0.0908714285714286,-0.882571428571428,-0.389657142857143,0.57,-0.6255,0.275333333333333,0.201,0,0,0,0,0,0,0,-0.10505,-0.971,0.32995,-0.575,-1.155,-0.635,1.706,0.989233333333333,-0.491666666666667,0.0592333333333333,-19.939,20.884,8.1705,429.476666666667,1,1,1,1
24-May-2018 14:36:35,52.2,0.0908714285714286,-0.882571428571428,-0.389657142857143,0.57,-0.6255,0.275333333333333,0.201,0,0,0,0,0,0,0,-0.10505,-0.971,0.32995,-0.575,-1.155,-0.635,1.706,0.989233333333333,-0.491666666666667,0.0592333333333333,-19.939,20.884,8.1705,429.476666666667,1,1,1,1
24-May-2018 14:36:35,52.2,0.0908714285714286,-0.882571428571428,-0.389657142857143,0.57,-0.6255,0.275333333333333,0.201,0,0,0,0,0,0,0,-0.10505,-0.971,0.32995,-0.575,-1.155,-0.635,1.706,0.989233333333333,-0.491666666666667,0.0592333333333333,-19.939,20.884,8.1705,429.476666666667,1,1,1,1
24-May-2018 14:36:35,52.2,0.0908714285714286,-0.882571428571428,-0.389657142857143,0.57,-0.6255,0.275333333333333,0.201,0,0,0,0,0,0,0,-0.10505,-0.971,0.32995,-0.575,-1.155,-0.635,1.706,0.989233333333333,-0.491666666666667,0.0592333333333333,-19.939,20.884,8.1705,429.476666666667,1,1,1,1
24-May-2018 14:36:36,52,0.0908714285714286,-0.882571428571428,-0.389657142857143,0.57,-0.6255,0.275333333333333,0.201,0,0,0,0,0,0,0,-0.09275,-0.965375,0.324425,-1.45666666666667,0.247,-0.383333333333333,1.706,0.96735,-0.379975,0.082275,-41.3046,11.2194,5.7318,465.9325,1,1,1,1
24-May-2018 14:36:36,52,0.0908714285714286,-0.882571428571428,-0.389657142857143,0.57,-0.6255,0.275333333333333,0.201,0,0,0,0,0,0,0,-0.09275,-0.965375,0.324425,-1.45666666666667,0.247,-0.383333333333333,1.706,0.96735,-0.379975,0.082275,-41.3046,11.2194,5.7318,465.9325,1,1,1,1
24-May-2018 14:36:36,52,0.0908714285714286,-0.882571428571428,-0.389657142857143,0.57,-0.6255,0.275333333333333,0.201,0,0,0,0,0,0,0,-0.09275,-0.965375,0.324425,-1.45666666666667,0.247,-0.383333333333333,1.706,0.96735,-0.379975,0.082275,-41.3046,11.2194,5.7318,465.9325,1,1,1,1
24-May-2018 14:36:36,52,0.0908714285714286,-0.882571428571428,-0.389657142857143,0.57,-0.6255,0.275333333333333,0.201,0,0,0,0,0,0,0,-0.09275,-0.965375,0.324425,-1.45666666666667,0.247,-0.383333333333333,1.706,0.96735,-0.379975,0.082275,-41.3046,11.2194,5.7318,465.9325,1,1,1,1
24-May-2018 14:36:37,52.1,0.0908714285714286,-0.882571428571428,-0.389657142857143,0.57,-0.6255,0.275333333333333,0.201,0,0,0,0,0,0,0,-0.12226,-0.96162,0.3162,0.192375,1.601625,1.692,1.7122,0.929616666666667,-0.453283333333333,0.015,6.995,4.69514285714286,-3.30128571428571,370.136,1,1,1,1
24-May-2018 14:36:37,52.1,0.0908714285714286,-0.882571428571428,-0.389657142857143,0.57,-0.6255,0.275333333333333,0.201,0,0,0,0,0,0,0,-0.12226,-0.96162,0.3162,0.192375,1.601625,1.692,1.7122,0.929616666666667,-0.453283333333333,0.015,6.995,4.69514285714286,-3.30128571428571,370.136,1,1,1,1
24-May-2018 14:36:37,52.1,0.0908714285714286,-0.882571428571428,-0.389657142857143,0.57,-0.6255,0.275333333333333,0.201,0,0,0,0,0,0,0,-0.12226,-0.96162,0.3162,0.192375,1.601625,1.692,1.7122,0.929616666666667,-0.453283333333333,0.015,6.995,4.69514285714286,-3.30128571428571,370.136,1,1,1,1
24-May-2018 14:36:37,52.1,0.0908714285714286,-0.882571428571428,-0.389657142857143,0.57,-0.6255,0.275333333333333,0.201,0,0,0,0,0,0,0,-0.12226,-0.96162,0.3162,0.192375,1.601625,1.692,1.7122,0.929616666666667,-0.453283333333333,0.015,6.995,4.69514285714286,-3.30128571428571,370.136,1,1,1,1
24-May-2018 14:36:38,52.1818181818182,0.0908714285714286,-0.882571428571428,-0.389657142857143,0.57,-0.6255,0.275333333333333,0.201,0,0,0,0,0,0,0,-0.0666833333333333,-0.97815,0.242266666666667,-12.58,-3.34157142857143,-11.0028571428571,1.5446,0.976928571428571,-0.329042857142857,0.00341428571428571,-0.172833333333334,-4.26816666666667,12.195,379.9802,1,1,0,1
24-May-2018 14:36:38,52.1818181818182,0.0908714285714286,-0.882571428571428,-0.389657142857143,0.57,-0.6255,0.275333333333333,0.201,0,0,0,0,0,0,0,-0.0666833333333333,-0.97815,0.242266666666667,-12.58,-3.34157142857143,-11.0028571428571,1.5446,0.976928571428571,-0.329042857142857,0.00341428571428571,-0.172833333333334,-4.26816666666667,12.195,379.9802,1,1,0,1
24-May-2018 14:36:38,52.1818181818182,0.0908714285714286,-0.882571428571428,-0.389657142857143,0.57,-0.6255,0.275333333333333,0.201,0,0,0,0,0,0,0,-0.0666833333333333,-0.97815,0.242266666666667,-12.58,-3.34157142857143,-11.0028571428571,1.5446,0.976928571428571,-0.329042857142857,0.00341428571428571,-0.172833333333334,-4.26816666666667,12.195,379.9802,1,1,0,1
24-May-2018 14:36:38,52.1818181818182,0.0908714285714286,-0.882571428571428,-0.389657142857143,0.57,-0.6255,0.275333333333333,0.201,0,0,0,0,0,0,0,-0.0666833333333333,-0.97815,0.242266666666667,-12.58,-3.34157142857143,-11.0028571428571,1.5446,0.976928571428571,-0.329042857142857,0.00341428571428571,-0.172833333333334,-4.26816666666667,12.195,379.9802,1,1,0,1
24-May-2018 14:36:39,52.4,0.0908714285714286,-0.882571428571428,-0.389657142857143,0.57,-0.6255,0.275333333333333,0.201,0,0,0,0,0,0,0,0.08868,-0.99522,0.09728,3.6375,-1.25166666666667,-6.19516666666667,0.9854,0.981,-0.43922,0.00486,-18.9187142857143,17.5435714285714,-1.716,434.254666666667,1,1,0,1
24-May-2018 14:36:39,52.4,0.0908714285714286,-0.882571428571428,-0.389657142857143,0.57,-0.6255,0.275333333333333,0.201,0,0,0,0,0,0,0,0.08868,-0.99522,0.09728,3.6375,-1.25166666666667,-6.19516666666667,0.9854,0.981,-0.43922,0.00486,-18.9187142857143,17.5435714285714,-1.716,434.254666666667,1,1,0,1
24-May-2018 14:36:39,52.4,0.0908714285714286,-0.882571428571428,-0.389657142857143,0.57,-0.6255,0.275333333333333,0.201,0,0,0,0,0,0,0,0.08868,-0.99522,0.09728,3.6375,-1.25166666666667,-6.19516666666667,0.9854,0.981,-0.43922,0.00486,-18.9187142857143,17.5435714285714,-1.716,434.254666666667,1,1,0,1
24-May-2018 14:36:39,52.4,0.0908714285714286,-0.882571428571428,-0.389657142857143,0.57,-0.6255,0.275333333333333,0.201,0,0,0,0,0,0,0,0.08868,-0.99522,0.09728,3.6375,-1.25166666666667,-6.19516666666667,0.9854,0.981,-0.43922,0.00486,-18.9187142857143,17.5435714285714,-1.716,434.254666666667,1,1,0,1
24-May-2018 14:36:40,52,0.0908714285714286,-0.882571428571428,-0.389657142857143,0.57,-0.6255,0.275333333333333,0.201,0,0,0,0,0,0,0,-0.0826,-0.880228571428572,0.352228571428571,-23.1042857142857,37.5457142857143,20.1085714285714,0.8585,0.91874,-0.409,0.11438,-67.864,30.9876,-7.9392,470.8662,0,0,0,1
24-May-2018 14:36:40,52,0.0908714285714286,-0.882571428571428,-0.389657142857143,0.57,-0.6255,0.275333333333333,0.201,0,0,0,0,0,0,0,-0.0826,-0.880228571428572,0.352228571428571,-23.1042857142857,37.5457142857143,20.1085714285714,0.8585,0.91874,-0.409,0.11438,-67.864,30.9876,-7.9392,470.8662,0,0,0,1
24-May-2018 14:36:40,52,0.0908714285714286,-0.882571428571428,-0.389657142857143,0.57,-0.6255,0.275333333333333,0.201,0,0,0,0,0,0,0,-0.0826,-0.880228571428572,0.352228571428571,-23.1042857142857,37.5457142857143,20.1085714285714,0.8585,0.91874,-0.409,0.11438,-67.864,30.9876,-7.9392,470.8662,0,0,0,1
24-May-2018 14:36:40,52,0.0908714285714286,-0.882571428571428,-0.389657142857143,0.57,-0.6255,0.275333333333333,0.201,0,0,0,0,0,0,0,-0.0826,-0.880228571428572,0.352228571428571,-23.1042857142857,37.5457142857143,20.1085714285714,0.8585,0.91874,-0.409,0.11438,-67.864,30.9876,-7.9392,470.8662,0,0,0,1
24-May-2018 14:36:41,52,0.0908714285714286,-0.882571428571428,-0.389657142857143,0.57,-0.6255,0.275333333333333,0.201,0,0,0,0,0,0,0,-0.31225,-0.951916666666667,-0.0125166666666667,14.5985714285714,17.7204285714286,16.9211428571429,0.358,0.914166666666667,-0.453766666666667,0.0888166666666667,-50.288875,38.735,-0.472625,626.021,1,1,0,0
24-May-2018 14:36:41,52,0.0908714285714286,-0.882571428571428,-0.389657142857143,0.57,-0.6255,0.275333333333333,0.201,0,0,0,0,0,0,0,-0.31225,-0.951916666666667,-0.0125166666666667,14.5985714285714,17.7204285714286,16.9211428571429,0.358,0.914166666666667,-0.453766666666667,0.0888166666666667,-50.288875,38.735,-0.472625,626.021,1,1,0,0
24-May-2018 14:36:41,52,0.0908714285714286,-0.882571428571428,-0.389657142857143,0.57,-0.6255,0.275333333333333,0.201,0,0,0,0,0,0,0,-0.31225,-0.951916666666667,-0.0125166666666667,14.5985714285714,17.7204285714286,16.9211428571429,0.358,0.914166666666667,-0.453766666666667,0.0888166666666667,-50.288875,38.735,-0.472625,626.021,1,1,0,0
24-May-2018 14:36:41,52,0.0908714285714286,-0.882571428571428,-0.389657142857143,0.57,-0.6255,0.275333333333333,0.201,0,0,0,0,0,0,0,-0.31225,-0.951916666666667,-0.0125166666666667,14.5985714285714,17.7204285714286,16.9211428571429,0.358,0.914166666666667,-0.453766666666667,0.0888166666666667,-50.288875,38.735,-0.472625,626.021,1,1,0,0
24-May-2018 14:36:42,52,0.0908714285714286,-0.882571428571428,-0.389657142857143,0.57,-0.6255,0.275333333333333,0.201,0,0,0,0,0,0,0,-0.408414285714286,-0.9618,0.0574142857142857,-9.53285714285715,-7.72514285714286,-20.6428571428571,0.72975,0.96214,-0.52378,0.16422,-19.805,16.2684,4.11,812.367,1,1,0,0
24-May-2018 14:36:42,52,0.0908714285714286,-0.882571428571428,-0.389657142857143,0.57,-0.6255,0.275333333333333,0.201,0,0,0,0,0,0,0,-0.408414285714286,-0.9618,0.0574142857142857,-9.53285714285715,-7.72514285714286,-20.6428571428571,0.72975,0.96214,-0.52378,0.16422,-19.805,16.2684,4.11,812.367,1,1,0,0
24-May-2018 14:36:42,52,0.0908714285714286,-0.882571428571428,-0.389657142857143,0.57,-0.6255,0.275333333333333,0.201,0,0,0,0,0,0,0,-0.408414285714286,-0.9618,0.0574142857142857,-9.53285714285715,-7.72514285714286,-20.6428571428571,0.72975,0.96214,-0.52378,0.16422,-19.805,16.2684,4.11,812.367,1,1,0,0
24-May-2018 14:36:42,52,0.0908714285714286,-0.882571428571428,-0.389657142857143,0.57,-0.6255,0.275333333333333,0.201,0,0,0,0,0,0,0,-0.408414285714286,-0.9618,0.0574142857142857,-9.53285714285715,-7.72514285714286,-20.6428571428571,0.72975,0.96214,-0.52378,0.16422,-19.805,16.2684,4.11,812.367,1,1,0,0
24-May-2018 14:36:43,52.1,0.0908714285714286,-0.882571428571428,-0.389657142857143,0.57,-0.6255,0.275333333333333,0.201,0,0,0,0,0,0,0,-0.304283333333333,-0.875916666666667,0.0569833333333333,-9.14571428571428,-42.9371428571429,6.13285714285715,0.7635,0.800542857142857,-0.644,0.0119,-80.0602857142857,39.2768571428571,17.1778571428571,837.533,1,1,0,1
24-May-2018 14:36:43,52.1,0.0908714285714286,-0.882571428571428,-0.389657142857143,0.57,-0.6255,0.275333333333333,0.201,0,0,0,0,0,0,0,-0.304283333333333,-0.875916666666667,0.0569833333333333,-9.14571428571428,-42.9371428571429,6.13285714285715,0.7635,0.800542857142857,-0.644,0.0119,-80.0602857142857,39.2768571428571,17.1778571428571,837.533,1,1,0,1
24-May-2018 14:36:43,52.1,0.0908714285714286,-0.882571428571428,-0.389657142857143,0.57,-0.6255,0.275333333333333,0.201,0,0,0,0,0,0,0,-0.304283333333333,-0.875916666666667,0.0569833333333333,-9.14571428571428,-42.9371428571429,6.13285714285715,0.7635,0.800542857142857,-0.644,0.0119,-80.0602857142857,39.2768571428571,17.1778571428571,837.533,1,1,0,1
24-May-2018 14:36:43,52.1,0.0908714285714286,-0.882571428571428,-0.389657142857143,0.57,-0.6255,0.275333333333333,0.201,0,0,0,0,0,0,0,-0.304283333333333,-0.875916666666667,0.0569833333333333,-9.14571428571428,-42.9371428571429,6.13285714285715,0.7635,0.800542857142857,-0.644,0.0119,-80.0602857142857,39.2768571428571,17.1778571428571,837.533,1,1,0,1
24-May-2018 14:36:44,52.1111111111111,0.0908714285714286,-0.882571428571428,-0.389657142857143,0.57,-0.6255,0.275333333333333,0.201,0,0,0,0,0,0,0,-0.248985714285714,-0.968442857142857,-0.0328142857142857,4.675,-57.0666666666667,-2.42,0.9445,0.71696,-0.4742,-0.58514,-83.3177142857143,28.1445714285714,20.1307142857143,374.54975,1,1,0,1
24-May-2018 14:36:44,52.1111111111111,0.0908714285714286,-0.882571428571428,-0.389657142857143,0.57,-0.6255,0.275333333333333,0.201,0,0,0,0,0,0,0,-0.248985714285714,-0.968442857142857,-0.0328142857142857,4.675,-57.0666666666667,-2.42,0.9445,0.71696,-0.4742,-0.58514,-83.3177142857143,28.1445714285714,20.1307142857143,374.54975,1,1,0,1
24-May-2018 14:36:44,52.1111111111111,0.0908714285714286,-0.882571428571428,-0.389657142857143,0.57,-0.6255,0.275333333333333,0.201,0,0,0,0,0,0,0,-0.248985714285714,-0.968442857142857,-0.0328142857142857,4.675,-57.0666666666667,-2.42,0.9445,0.71696,-0.4742,-0.58514,-83.3177142857143,28.1445714285714,20.1307142857143,374.54975,1,1,0,1
24-May-2018 14:36:44,52.1111111111111,0.0908714285714286,-0.882571428571428,-0.389657142857143,0.57,-0.6255,0.275333333333333,0.201,0,0,0,0,0,0,0,-0.248985714285714,-0.968442857142857,-0.0328142857142857,4.675,-57.0666666666667,-2.42,0.9445,0.71696,-0.4742,-0.58514,-83.3177142857143,28.1445714285714,20.1307142857143,374.54975,1,1,0,1
24-May-2018 14:36:45,52.1428571428571,0.0908714285714286,-0.882571428571428,-0.389657142857143,0.57,-0.6255,0.275333333333333,0.201,0,0,0,0,0,0,0,-0.489,-0.79832,0.46072,-15.9841666666667,-17.9916666666667,31.79,1.679,0.695416666666667,-0.0142,-0.770533333333333,-11.6461666666667,6.6565,3.6485,87.5955,1,1,0,1
24-May-2018 14:36:45,52.1428571428571,0.0908714285714286,-0.882571428571428,-0.389657142857143,0.57,-0.6255,0.275333333333333,0.201,0,0,0,0,0,0,0,-0.489,-0.79832,0.46072,-15.9841666666667,-17.9916666666667,31.79,1.679,0.695416666666667,-0.0142,-0.770533333333333,-11.6461666666667,6.6565,3.6485,87.5955,1,1,0,1
24-May-2018 14:36:45,52.1428571428571,0.0908714285714286,-0.882571428571428,-0.389657142857143,0.57,-0.6255,0.275333333333333,0.201,0,0,0,0,0,0,0,-0.489,-0.79832,0.46072,-15.9841666666667,-17.9916666666667,31.79,1.679,0.695416666666667,-0.0142,-0.770533333333333,-11.6461666666667,6.6565,3.6485,87.5955,1,1,0,1
24-May-2018 14:36:45,52.1428571428571,0.0908714285714286,-0.882571428571428,-0.389657142857143,0.57,-0.6255,0.275333333333333,0.201,0,0,0,0,0,0,0,-0.489,-0.79832,0.46072,-15.9841666666667,-17.9916666666667,31.79,1.679,0.695416666666667,-0.0142,-0.770533333333333,-11.6461666666667,6.6565,3.6485,87.5955,1,1,0,1
24-May-2018 14:36:46,52,0.0908714285714286,-0.882571428571428,-0.389657142857143,0.57,-0.6255,0.275333333333333,0.201,0,0,0,0,0,0,0,-0.275657142857143,-1.03135714285714,-0.00141428571428572,19.2133333333333,-46.7383333333333,-5.0145,1.5285,0.73396,-0.0882,-0.68292,33.12,4.88816666666667,-6.758,87.759,0,1,0,1
24-May-2018 14:36:46,52,0.0908714285714286,-0.882571428571428,-0.389657142857143,0.57,-0.6255,0.275333333333333,0.201,0,0,0,0,0,0,0,-0.275657142857143,-1.03135714285714,-0.00141428571428572,19.2133333333333,-46.7383333333333,-5.0145,1.5285,0.73396,-0.0882,-0.68292,33.12,4.88816666666667,-6.758,87.759,0,1,0,1
24-May-2018 14:36:46,52,0.0908714285714286,-0.882571428571428,-0.389657142857143,0.57,-0.6255,0.275333333333333,0.201,0,0,0,0,0,0,0,-0.275657142857143,-1.03135714285714,-0.00141428571428572,19.2133333333333,-46.7383333333333,-5.0145,1.5285,0.73396,-0.0882,-0.68292,33.12,4.88816666666667,-6.758,87.759,0,1,0,1
24-May-2018 14:36:46,52,0.0908714285714286,-0.882571428571428,-0.389657142857143,0.57,-0.6255,0.275333333333333,0.201,0,0,0,0,0,0,0,-0.275657142857143,-1.03135714285714,-0.00141428571428572,19.2133333333333,-46.7383333333333,-5.0145,1.5285,0.73396,-0.0882,-0.68292,33.12,4.88816666666667,-6.758,87.759,0,1,0,1
24-May-2018 14:36:47,52,0.0908714285714286,-0.882571428571428,-0.389657142857143,0.57,-0.6255,0.275333333333333,0.201,0,0,0,0,0,0,0,-0.288371428571429,-0.891157142857143,0.0513428571428571,26.502,40.864,17.1996,1.70033333333333,0.8242,-0.17626,-0.6226,-1.585375,3.216375,1.35675,121.680333333333,0,1,0,1
24-May-2018 14:36:47,52,0.0908714285714286,-0.882571428571428,-0.389657142857143,0.57,-0.6255,0.275333333333333,0.201,0,0,0,0,0,0,0,-0.288371428571429,-0.891157142857143,0.0513428571428571,26.502,40.864,17.1996,1.70033333333333,0.8242,-0.17626,-0.6226,-1.585375,3.216375,1.35675,121.680333333333,0,1,0,1
24-May-2018 14:36:47,52,0.0908714285714286,-0.882571428571428,-0.389657142857143,0.57,-0.6255,0.275333333333333,0.201,0,0,0,0,0,0,0,-0.288371428571429,-0.891157142857143,0.0513428571428571,26.502,40.864,17.1996,1.70033333333333,0.8242,-0.17626,-0.6226,-1.585375,3.216375,1.35675,121.680333333333,0,1,0,1
24-May-2018 14:36:47,52,0.0908714285714286,-0.882571428571428,-0.389657142857143,0.57,-0.6255,0.275333333333333,0.201,0,0,0,0,0,0,0,-0.288371428571429,-0.891157142857143,0.0513428571428571,26.502,40.864,17.1996,1.70033333333333,0.8242,-0.17626,-0.6226,-1.585375,3.216375,1.35675,121.680333333333,0,1,0,1
24-May-2018 14:36:48,52.1,0.0908714285714286,-0.882571428571428,-0.389657142857143,0.57,-0.6255,0.275333333333333,0.201,0,0,0,0,0,0,0,-0.2551,-0.9164,0.303866666666667,5.14666666666667,81.7933333333333,-26.6366666666667,1.484,0.827166666666667,-0.187933333333333,-0.587366666666667,2.6525,-2.622,0.427,126.024666666667,1,1,0,1
24-May-2018 14:36:48,52.1,0.0908714285714286,-0.882571428571428,-0.389657142857143,0.57,-0.6255,0.275333333333333,0.201,0,0,0,0,0,0,0,-0.2551,-0.9164,0.303866666666667,5.14666666666667,81.7933333333333,-26.6366666666667,1.484,0.827166666666667,-0.187933333333333,-0.587366666666667,2.6525,-2.622,0.427,126.024666666667,1,1,0,1
24-May-2018 14:36:48,52.1,0.0908714285714286,-0.882571428571428,-0.389657142857143,0.57,-0.6255,0.275333333333333,0.201,0,0,0,0,0,0,0,-0.2551,-0.9164,0.303866666666667,5.14666666666667,81.7933333333333,-26.6366666666667,1.484,0.827166666666667,-0.187933333333333,-0.587366666666667,2.6525,-2.622,0.427,126.024666666667,1,1,0,1
24-May-2018 14:36:48,52.1,0.0908714285714286,-0.882571428571428,-0.389657142857143,0.57,-0.6255,0.275333333333333,0.201,0,0,0,0,0,0,0,-0.2551,-0.9164,0.303866666666667,5.14666666666667,81.7933333333333,-26.6366666666667,1.484,0.827166666666667,-0.187933333333333,-0.587366666666667,2.6525,-2.622,0.427,126.024666666667,1,1,0,1
24-May-2018 14:36:49,52,0.0908714285714286,-0.882571428571428,-0.389657142857143,0.57,-0.6255,0.275333333333333,0.201,0,0,0,0,0,0,0,-0.287316666666667,-0.9687,-0.0257166666666667,-13.0785,56.4373333333333,0.566666666666667,1.173,0.82502,-0.18246,-0.60102,0.574857142857143,0.627142857142857,0.487571428571429,125.968,1,1,0,1
24-May-2018 14:36:49,52,0.0908714285714286,-0.882571428571428,-0.389657142857143,0.57,-0.6255,0.275333333333333,0.201,0,0,0,0,0,0,0,-0.287316666666667,-0.9687,-0.0257166666666667,-13.0785,56.4373333333333,0.566666666666667,1.173,0.82502,-0.18246,-0.60102,0.574857142857143,0.627142857142857,0.487571428571429,125.968,1,1,0,1
24-May-2018 14:36:49,52,0.0908714285714286,-0.882571428571428,-0.389657142857143,0.57,-0.6255,0.275333333333333,0.201,0,0,0,0,0,0,0,-0.287316666666667,-0.9687,-0.0257166666666667,-13.0785,56.4373333333333,0.566666666666667,1.173,0.82502,-0.18246,-0.60102,0.574857142857143,0.627142857142857,0.487571428571429,125.968,1,1,0,1
24-May-2018 14:36:49,52,0.0908714285714286,-0.882571428571428,-0.389657142857143,0.57,-0.6255,0.275333333333333,0.201,0,0,0,0,0,0,0,-0.287316666666667,-0.9687,-0.0257166666666667,-13.0785,56.4373333333333,0.566666666666667,1.173,0.82502,-0.18246,-0.60102,0.574857142857143,0.627142857142857,0.487571428571429,125.968,1,1,0,1
24-May-2018 14:36:50,52,0.0908714285714286,-0.882571428571428,-0.389657142857143,0.57,-0.6255,0.275333333333333,0.201,0,0,0,0,0,0,0,-0.241742857142857,-0.946885714285714,0.0132571428571429,21.2635714285714,-9.21057142857143,6.86842857142857,1.03866666666667,0.82316,-0.195,-0.5918,0.670714285714286,0.548714285714286,-0.810142857142857,127.1466,1,1,0,1
24-May-2018 14:36:50,52,0.0908714285714286,-0.882571428571428,-0.389657142857143,0.57,-0.6255,0.275333333333333,0.201,0,0,0,0,0,0,0,-0.241742857142857,-0.946885714285714,0.0132571428571429,21.2635714285714,-9.21057142857143,6.86842857142857,1.03866666666667,0.82316,-0.195,-0.5918,0.670714285714286,0.548714285714286,-0.810142857142857,127.1466,1,1,0,1
24-May-2018 14:36:50,52,0.0908714285714286,-0.882571428571428,-0.389657142857143,0.57,-0.6255,0.275333333333333,0.201,0,0,0,0,0,0,0,-0.241742857142857,-0.946885714285714,0.0132571428571429,21.2635714285714,-9.21057142857143,6.86842857142857,1.03866666666667,0.82316,-0.195,-0.5918,0.670714285714286,0.548714285714286,-0.810142857142857,127.1466,1,1,0,1
24-May-2018 14:36:50,52,0.0908714285714286,-0.882571428571428,-0.389657142857143,0.57,-0.6255,0.275333333333333,0.201,0,0,0,0,0,0,0,-0.241742857142857,-0.946885714285714,0.0132571428571429,21.2635714285714,-9.21057142857143,6.86842857142857,1.03866666666667,0.82316,-0.195,-0.5918,0.670714285714286,0.548714285714286,-0.810142857142857,127.1466,1,1,0,1
24-May-2018 14:36:51,52,0.0908714285714286,-0.882571428571428,-0.389657142857143,0.57,-0.6255,0.275333333333333,0.201,0,0,0,0,0,0,0,-0.2322,-0.997866666666667,0.0772166666666667,-21.5333333333333,-10.643,-7.004,1.2086,0.815185714285714,-0.196714285714286,-0.612057142857143,1.58542857142857,-0.967,1.03671428571429,127.967,1,1,0,1
24-May-2018 14:36:51,52,0.0908714285714286,-0.882571428571428,-0.389657142857143,0.57,-0.6255,0.275333333333333,0.201,0,0,0,0,0,0,0,-0.2322,-0.997866666666667,0.0772166666666667,-21.5333333333333,-10.643,-7.004,1.2086,0.815185714285714,-0.196714285714286,-0.612057142857143,1.58542857142857,-0.967,1.03671428571429,127.967,1,1,0,1
24-May-2018 14:36:51,52,0.0908714285714286,-0.882571428571428,-0.389657142857143,0.57,-0.6255,0.275333333333333,0.201,0,0,0,0,0,0,0,-0.2322,-0.997866666666667,0.0772166666666667,-21.5333333333333,-10.643,-7.004,1.2086,0.815185714285714,-0.196714285714286,-0.612057142857143,1.58542857142857,-0.967,1.03671428571429,127.967,1,1,0,1
24-May-2018 14:36:51,52,0.0908714285714286,-0.882571428571428,-0.389657142857143,0.57,-0.6255,0.275333333333333,0.201,0,0,0,0,0,0,0,-0.2322,-0.997866666666667,0.0772166666666667,-21.5333333333333,-10.643,-7.004,1.2086,0.815185714285714,-0.196714285714286,-0.612057142857143,1.58542857142857,-0.967,1.03671428571429,127.967,1,1,0,1
24-May-2018 14:36:52,52,0.0908714285714286,-0.882571428571428,-0.389657142857143,0.57,-0.6255,0.275333333333333,0.201,0,0,0,0,0,0,0,-0.27574,-0.95986,-0.08376,18.5357142857143,-13.6328571428571,5.183,0.971,0.83692,-0.22528,-0.60524,24.7995714285714,-0.339857142857143,-6.35028571428571,131.7092,1,1,0,1
24-May-2018 14:36:52,52,0.0908714285714286,-0.882571428571428,-0.389657142857143,0.57,-0.6255,0.275333333333333,0.201,0,0,0,0,0,0,0,-0.27574,-0.95986,-0.08376,18.5357142857143,-13.6328571428571,5.183,0.971,0.83692,-0.22528,-0.60524,24.7995714285714,-0.339857142857143,-6.35028571428571,131.7092,1,1,0,1
24-May-2018 14:36:52,52,0.0908714285714286,-0.882571428571428,-0.389657142857143,0.57,-0.6255,0.275333333333333,0.201,0,0,0,0,0,0,0,-0.27574,-0.95986,-0.08376,18.5357142857143,-13.6328571428571,5.183,0.971,0.83692,-0.22528,-0.60524,24.7995714285714,-0.339857142857143,-6.35028571428571,131.7092,1,1,0,1
24-May-2018 14:36:52,52,0.0908714285714286,-0.882571428571428,-0.389657142857143,0.57,-0.6255,0.275333333333333,0.201,0,0,0,0,0,0,0,-0.27574,-0.95986,-0.08376,18.5357142857143,-13.6328571428571,5.183,0.971,0.83692,-0.22528,-0.60524,24.7995714285714,-0.339857142857143,-6.35028571428571,131.7092,1,1,0,1
24-May-2018 14:36:53,52,0.0908714285714286,-0.882571428571428,-0.389657142857143,0.57,-0.6255,0.275333333333333,0.201,0,0,0,0,0,0,0,-0.275116666666667,-0.940216666666667,0.17615,-3.52166666666667,35.6343333333333,-13.21,1.244,0.8737625,-0.2247,-0.5116,27.118875,-17.339625,-29.336875,212.1995,1,1,0,1
24-May-2018 14:36:53,52,0.0908714285714286,-0.882571428571428,-0.389657142857143,0.57,-0.6255,0.275333333333333,0.201,0,0,0,0,0,0,0,-0.275116666666667,-0.940216666666667,0.17615,-3.52166666666667,35.6343333333333,-13.21,1.244,0.8737625,-0.2247,-0.5116,27.118875,-17.339625,-29.336875,212.1995,1,1,0,1
24-May-2018 14:36:53,52,0.0908714285714286,-0.882571428571428,-0.389657142857143,0.57,-0.6255,0.275333333333333,0.201,0,0,0,0,0,0,0,-0.275116666666667,-0.940216666666667,0.17615,-3.52166666666667,35.6343333333333,-13.21,1.244,0.8737625,-0.2247,-0.5116,27.118875,-17.339625,-29.336875,212.1995,1,1,0,1
24-May-2018 14:36:53,52,0.0908714285714286,-0.882571428571428,-0.389657142857143,0.57,-0.6255,0.275333333333333,0.201,0,0,0,0,0,0,0,-0.275116666666667,-0.940216666666667,0.17615,-3.52166666666667,35.6343333333333,-13.21,1.244,0.8737625,-0.2247,-0.5116,27.118875,-17.339625,-29.336875,212.1995,1,1,0,1
24-May-2018 14:36:54,52.1111111111111,0.0908714285714286,-0.882571428571428,-0.389657142857143,0.57,-0.6255,0.275333333333333,0.201,0,0,0,0,0,0,0,-0.320157142857143,-0.934471428571429,-0.123985714285714,-7.56571428571429,7.17714285714286,7.42085714285714,1.09,0.9029,-0.19038,-0.2667,-2.0325,26.7176666666667,25.1931666666667,183.0855,1,1,0,1
24-May-2018 14:36:54,52.1111111111111,0.0908714285714286,-0.882571428571428,-0.389657142857143,0.57,-0.6255,0.275333333333333,0.201,0,0,0,0,0,0,0,-0.320157142857143,-0.934471428571429,-0.123985714285714,-7.56571428571429,7.17714285714286,7.42085714285714,1.09,0.9029,-0.19038,-0.2667,-2.0325,26.7176666666667,25.1931666666667,183.0855,1,1,0,1
24-May-2018 14:36:54,52.1111111111111,0.0908714285714286,-0.882571428571428,-0.389657142857143,0.57,-0.6255,0.275333333333333,0.201,0,0,0,0,0,0,0,-0.320157142857143,-0.934471428571429,-0.123985714285714,-7.56571428571429,7.17714285714286,7.42085714285714,1.09,0.9029,-0.19038,-0.2667,-2.0325,26.7176666666667,25.1931666666667,183.0855,1,1,0,1
24-May-2018 14:36:54,52.1111111111111,0.0908714285714286,-0.882571428571428,-0.389657142857143,0.57,-0.6255,0.275333333333333,0.201,0,0,0,0,0,0,0,-0.320157142857143,-0.934471428571429,-0.123985714285714,-7.56571428571429,7.17714285714286,7.42085714285714,1.09,0.9029,-0.19038,-0.2667,-2.0325,26.7176666666667,25.1931666666667,183.0855,1,1,0,1
24-May-2018 14:36:55,52.3,0.0908714285714286,-0.882571428571428,-0.389657142857143,0.57,-0.6255,0.275333333333333,0.201,0,0,0,0,0,0,0,-0.253057142857143,-0.964485714285714,-0.0781142857142857,27.9965,-33.7166666666667,3.69816666666667,0.8945,0.916566666666667,-0.325383333333333,-0.0589333333333333,-19.657125,-0.716500000000001,-2.0275,411.6865,1,1,0,1
24-May-2018 14:36:55,52.3,0.0908714285714286,-0.882571428571428,-0.389657142857143,0.57,-0.6255,0.275333333333333,0.201,0,0,0,0,0,0,0,-0.253057142857143,-0.964485714285714,-0.0781142857142857,27.9965,-33.7166666666667,3.69816666666667,0.8945,0.916566666666667,-0.325383333333333,-0.0589333333333333,-19.657125,-0.716500000000001,-2.0275,411.6865,1,1,0,1
24-May-2018 14:36:55,52.3,0.0908714285714286,-0.882571428571428,-0.389657142857143,0.57,-0.6255,0.275333333333333,0.201,0,0,0,0,0,0,0,-0.253057142857143,-0.964485714285714,-0.0781142857142857,27.9965,-33.7166666666667,3.69816666666667,0.8945,0.916566666666667,-0.325383333333333,-0.0589333333333333,-19.657125,-0.716500000000001,-2.0275,411.6865,1,1,0,1
24-May-2018 14:36:55,52.3,0.0908714285714286,-0.882571428571428,-0.389657142857143,0.57,-0.6255,0.275333333333333,0.201,0,0,0,0,0,0,0,-0.253057142857143,-0.964485714285714,-0.0781142857142857,27.9965,-33.7166666666667,3.69816666666667,0.8945,0.916566666666667,-0.325383333333333,-0.0589333333333333,-19.657125,-0.716500000000001,-2.0275,411.6865,1,1,0,1
24-May-2018 14:36:56,52,0.0908714285714286,-0.882571428571428,-0.389657142857143,0.57,-0.6255,0.275333333333333,0.201,0,0,0,0,0,0,0,-0.3621,-0.9246,0.1839,-5.20242857142857,-0.919999999999998,6.84085714285714,1.18325,0.9527,-0.31915,0.0114,-21.4733333333333,21.3516666666667,8.88233333333333,401.9795,1,1,0,1
24-May-2018 14:36:56,52,0.0908714285714286,-0.882571428571428,-0.389657142857143,0.57,-0.6255,0.275333333333333,0.201,0,0,0,0,0,0,0,-0.3621,-0.9246,0.1839,-5.20242857142857,-0.919999999999998,6.84085714285714,1.18325,0.9527,-0.31915,0.0114,-21.4733333333333,21.3516666666667,8.88233333333333,401.9795,1,1,0,1
24-May-2018 14:36:56,52,0.0908714285714286,-0.882571428571428,-0.389657142857143,0.57,-0.6255,0.275333333333333,0.201,0,0,0,0,0,0,0,-0.3621,-0.9246,0.1839,-5.20242857142857,-0.919999999999998,6.84085714285714,1.18325,0.9527,-0.31915,0.0114,-21.4733333333333,21.3516666666667,8.88233333333333,401.9795,1,1,0,1
24-May-2018 14:36:56,52,0.0908714285714286,-0.882571428571428,-0.389657142857143,0.57,-0.6255,0.275333333333333,0.201,0,0,0,0,0,0,0,-0.3621,-0.9246,0.1839,-5.20242857142857,-0.919999999999998,6.84085714285714,1.18325,0.9527,-0.31915,0.0114,-21.4733333333333,21.3516666666667,8.88233333333333,401.9795,1,1,0,1
24-May-2018 14:36:57,52.1,0.0908714285714286,-0.882571428571428,-0.389657142857143,0.57,-0.6255,0.275333333333333,0.201,0,0,0,0,0,0,0,-0.36435,-0.945833333333333,0.155,4.2235,-9.4125,2.37875,1.27166666666667,0.95354,-0.4091,-0.05804,-2.81166666666667,11.118,-2.85911111111111,397.09,1,1,0,0
24-May-2018 14:36:57,52.1,0.0908714285714286,-0.882571428571428,-0.389657142857143,0.57,-0.6255,0.275333333333333,0.201,0,0,0,0,0,0,0,-0.36435,-0.945833333333333,0.155,4.2235,-9.4125,2.37875,1.27166666666667,0.95354,-0.4091,-0.05804,-2.81166666666667,11.118,-2.85911111111111,397.09,1,1,0,0
24-May-2018 14:36:57,52.1,0.0908714285714286,-0.882571428571428,-0.389657142857143,0.57,-0.6255,0.275333333333333,0.201,0,0,0,0,0,0,0,-0.36435,-0.945833333333333,0.155,4.2235,-9.4125,2.37875,1.27166666666667,0.95354,-0.4091,-0.05804,-2.81166666666667,11.118,-2.85911111111111,397.09,1,1,0,0
24-May-2018 14:36:57,52.1,0.0908714285714286,-0.882571428571428,-0.389657142857143,0.57,-0.6255,0.275333333333333,0.201,0,0,0,0,0,0,0,-0.36435,-0.945833333333333,0.155,4.2235,-9.4125,2.37875,1.27166666666667,0.95354,-0.4091,-0.05804,-2.81166666666667,11.118,-2.85911111111111,397.09,1,1,0,0
24-May-2018 14:36:58,52.1428571428571,0.0908714285714286,-0.882571428571428,-0.389657142857143,0.57,-0.6255,0.275333333333333,0.201,0,0,0,0,0,0,0,-0.37462,-0.93136,0.21528,1.42871428571429,5.89414285714286,1.07342857142857,1.3035,0.935642857142857,-0.458142857142857,-0.101071428571429,66.8395,-40.6495,-7.14433333333333,420.1425,0,1,0,0
24-May-2018 14:36:58,52.1428571428571,0.0908714285714286,-0.882571428571428,-0.389657142857143,0.57,-0.6255,0.275333333333333,0.201,0,0,0,0,0,0,0,-0.37462,-0.93136,0.21528,1.42871428571429,5.89414285714286,1.07342857142857,1.3035,0.935642857142857,-0.458142857142857,-0.101071428571429,66.8395,-40.6495,-7.14433333333333,420.1425,0,1,0,0
24-May-2018 14:36:58,52.1428571428571,0.0908714285714286,-0.882571428571428,-0.389657142857143,0.57,-0.6255,0.275333333333333,0.201,0,0,0,0,0,0,0,-0.37462,-0.93136,0.21528,1.42871428571429,5.89414285714286,1.07342857142857,1.3035,0.935642857142857,-0.458142857142857,-0.101071428571429,66.8395,-40.6495,-7.14433333333333,420.1425,0,1,0,0
24-May-2018 14:36:58,52.1428571428571,0.0908714285714286,-0.882571428571428,-0.389657142857143,0.57,-0.6255,0.275333333333333,0.201,0,0,0,0,0,0,0,-0.37462,-0.93136,0.21528,1.42871428571429,5.89414285714286,1.07342857142857,1.3035,0.935642857142857,-0.458142857142857,-0.101071428571429,66.8395,-40.6495,-7.14433333333333,420.1425,0,1,0,0
24-May-2018 14:36:59,52.2,0.0908714285714286,-0.882571428571428,-0.389657142857143,0.57,-0.6255,0.275333333333333,0.201,0,0,0,0,0,0,0,-0.373671428571428,-0.924057142857143,0.126728571428571,-20.686,6.67971428571428,-8.93885714285714,1.27225,0.906116666666667,-0.440433333333333,0.047,7.01225,16.89025,18.765375,483.676,1,1,1,1
24-May-2018 14:36:59,52.2,0.0908714285714286,-0.882571428571428,-0.389657142857143,0.57,-0.6255,0.275333333333333,0.201,0,0,0,0,0,0,0,-0.373671428571428,-0.924057142857143,0.126728571428571,-20.686,6.67971428571428,-8.93885714285714,1.27225,0.906116666666667,-0.440433333333333,0.047,7.01225,16.89025,18.765375,483.676,1,1,1,1
24-May-2018 14:36:59,52.2,0.0908714285714286,-0.882571428571428,-0.389657142857143,0.57,-0.6255,0.275333333333333,0.201,0,0,0,0,0,0,0,-0.373671428571428,-0.924057142857143,0.126728571428571,-20.686,6.67971428571428,-8.93885714285714,1.27225,0.906116666666667,-0.440433333333333,0.047,7.01225,16.89025,18.765375,483.676,1,1,1,1
24-May-2018 14:36:59,52.2,0.0908714285714286,-0.882571428571428,-0.389657142857143,0.57,-0.6255,0.275333333333333,0.201,0,0,0,0,0,0,0,-0.373671428571428,-0.924057142857143,0.126728571428571,-20.686,6.67971428571428,-8.93885714285714,1.27225,0.906116666666667,-0.440433333333333,0.047,7.01225,16.89025,18.765375,483.676,1,1,1,1
24-May-2018 14:37:00,52.1111111111111,0.0908714285714286,-0.882571428571428,-0.389657142857143,0.57,-0.6255,0.275333333333333,0.201,0,0,0,0,0,0,0,-0.279725,-0.997,-0.100125,14.783,-10.2718333333333,-5.50166666666667,1.09,0.918057142857143,-0.423985714285714,0.154328571428571,51.0771666666667,-62.753,-11.3921666666667,564.09675,1,1,1,1
24-May-2018 14:37:00,52.1111111111111,0.0908714285714286,-0.882571428571428,-0.389657142857143,0.57,-0.6255,0.275333333333333,0.201,0,0,0,0,0,0,0,-0.279725,-0.997,-0.100125,14.783,-10.2718333333333,-5.50166666666667,1.09,0.918057142857143,-0.423985714285714,0.154328571428571,51.0771666666667,-62.753,-11.3921666666667,564.09675,1,1,1,1
24-May-2018 14:37:00,52.1111111111111,0.0908714285714286,-0.882571428571428,-0.389657142857143,0.57,-0.6255,0.275333333333333,0.201,0,0,0,0,0,0,0,-0.279725,-0.997,-0.100125,14.783,-10.2718333333333,-5.50166666666667,1.09,0.918057142857143,-0.423985714285714,0.154328571428571,51.0771666666667,-62.753,-11.3921666666667,564.09675,1,1,1,1
24-May-2018 14:37:00,52.1111111111111,0.0908714285714286,-0.882571428571428,-0.389657142857143,0.57,-0.6255,0.275333333333333,0.201,0,0,0,0,0,0,0,-0.279725,-0.997,-0.100125,14.783,-10.2718333333333,-5.50166666666667,1.09,0.918057142857143,-0.423985714285714,0.154328571428571,51.0771666666667,-62.753,-11.3921666666667,564.09675,1,1,1,1
24-May-2018 14:37:01,52.2857142857143,0.0908714285714286,-0.882571428571428,-0.389657142857143,0.57,-0.6255,0.275333333333333,0.201,0,0,0,0,0,0,0,-0.436033333333333,-0.906283333333333,0.205433333333333,-4.5872,-10.8076,14.6906,1.4895,0.932271428571429,-0.412985714285714,-0.0207142857142857,-19.344625,8.163125,-8.08675,662.163,1,1,1,1
24-May-2018 14:37:01,52.2857142857143,0.0908714285714286,-0.882571428571428,-0.389657142857143,0.57,-0.6255,0.275333333333333,0.201,0,0,0,0,0,0,0,-0.436033333333333,-0.906283333333333,0.205433333333333,-4.5872,-10.8076,14.6906,1.4895,0.932271428571429,-0.412985714285714,-0.0207142857142857,-19.344625,8.163125,-8.08675,662.163,1,1,1,1
24-May-2018 14:37:01,52.2857142857143,0.0908714285714286,-0.882571428571428,-0.389657142857143,0.57,-0.6255,0.275333333333333,0.201,0,0,0,0,0,0,0,-0.436033333333333,-0.906283333333333,0.205433333333333,-4.5872,-10.8076,14.6906,1.4895,0.932271428571429,-0.412985714285714,-0.0207142857142857,-19.344625,8.163125,-8.08675,662.163,1,1,1,1
24-May-2018 14:37:01,52.2857142857143,0.0908714285714286,-0.882571428571428,-0.389657142857143,0.57,-0.6255,0.275333333333333,0.201,0,0,0,0,0,0,0,-0.436033333333333,-0.906283333333333,0.205433333333333,-4.5872,-10.8076,14.6906,1.4895,0.932271428571429,-0.412985714285714,-0.0207142857142857,-19.344625,8.163125,-8.08675,662.163,1,1,1,1
24-May-2018 14:37:02,52.1111111111111,0.0908714285714286,-0.882571428571428,-0.389657142857143,0.57,-0.6255,0.275333333333333,0.201,0,0,0,0,0,0,0,-0.324885714285714,-0.929471428571429,-0.0662714285714286,15.4538571428571,25.7651428571429,6.82214285714286,1.051,0.99695,-0.46285,-0.108216666666667,-22.8251666666667,28.7805,10.9755,519.9928,1,1,1,1
24-May-2018 14:37:02,52.1111111111111,0.0908714285714286,-0.882571428571428,-0.389657142857143,0.57,-0.6255,0.275333333333333,0.201,0,0,0,0,0,0,0,-0.324885714285714,-0.929471428571429,-0.0662714285714286,15.4538571428571,25.7651428571429,6.82214285714286,1.051,0.99695,-0.46285,-0.108216666666667,-22.8251666666667,28.7805,10.9755,519.9928,1,1,1,1
24-May-2018 14:37:02,52.1111111111111,0.0908714285714286,-0.882571428571428,-0.389657142857143,0.57,-0.6255,0.275333333333333,0.201,0,0,0,0,0,0,0,-0.324885714285714,-0.929471428571429,-0.0662714285714286,15.4538571428571,25.7651428571429,6.82214285714286,1.051,0.99695,-0.46285,-0.108216666666667,-22.8251666666667,28.7805,10.9755,519.9928,1,1,1,1
24-May-2018 14:37:02,52.1111111111111,0.0908714285714286,-0.882571428571428,-0.389657142857143,0.57,-0.6255,0.275333333333333,0.201,0,0,0,0,0,0,0,-0.324885714285714,-0.929471428571429,-0.0662714285714286,15.4538571428571,25.7651428571429,6.82214285714286,1.051,0.99695,-0.46285,-0.108216666666667,-22.8251666666667,28.7805,10.9755,519.9928,1,1,1,1
24-May-2018 14:37:03,52,0.0908714285714286,-0.882571428571428,-0.389657142857143,0.57,-0.6255,0.275333333333333,0.201,0,0,0,0,0,0,0,-0.334728571428571,-0.952928571428571,-0.0743571428571429,-12.7046666666667,66.7716666666667,-16.0358333333333,1.3685,0.9600125,-0.3217375,-0.0523,-39.0695,-0.0760000000000041,-14.663875,458.565,1,1,1,1
24-May-2018 14:37:03,52,0.0908714285714286,-0.882571428571428,-0.389657142857143,0.57,-0.6255,0.275333333333333,0.201,0,0,0,0,0,0,0,-0.334728571428571,-0.952928571428571,-0.0743571428571429,-12.7046666666667,66.7716666666667,-16.0358333333333,1.3685,0.9600125,-0.3217375,-0.0523,-39.0695,-0.0760000000000041,-14.663875,458.565,1,1,1,1
24-May-2018 14:37:03,52,0.0908714285714286,-0.882571428571428,-0.389657142857143,0.57,-0.6255,0.275333333333333,0.201,0,0,0,0,0,0,0,-0.334728571428571,-0.952928571428571,-0.0743571428571429,-12.7046666666667,66.7716666666667,-16.0358333333333,1.3685,0.9600125,-0.3217375,-0.0523,-39.0695,-0.0760000000000041,-14.663875,458.565,1,1,1,1
24-May-2018 14:37:03,52,0.0908714285714286,-0.882571428571428,-0.389657142857143,0.57,-0.6255,0.275333333333333,0.201,0,0,0,0,0,0,0,-0.334728571428571,-0.952928571428571,-0.0743571428571429,-12.7046666666667,66.7716666666667,-16.0358333333333,1.3685,0.9600125,-0.3217375,-0.0523,-39.0695,-0.0760000000000041,-14.663875,458.565,1,1,1,1
24-May-2018 14:37:04,52,0.0908714285714286,-0.882571428571428,-0.389657142857143,0.57,-0.6255,0.275333333333333,0.201,0,0,0,0,0,0,0,-0.350657142857143,-0.935585714285714,0.154614285714286,35.234,16.3526,9.2802,0.98175,0.96352,-0.23908,-0.40214,-30.0604285714286,12.2908571428571,20.1132857142857,290.7434,1,1,0,1
24-May-2018 14:37:04,52,0.0908714285714286,-0.882571428571428,-0.389657142857143,0.57,-0.6255,0.275333333333333,0.201,0,0,0,0,0,0,0,-0.350657142857143,-0.935585714285714,0.154614285714286,35.234,16.3526,9.2802,0.98175,0.96352,-0.23908,-0.40214,-30.0604285714286,12.2908571428571,20.1132857142857,290.7434,1,1,0,1
24-May-2018 14:37:04,52,0.0908714285714286,-0.882571428571428,-0.389657142857143,0.57,-0.6255,0.275333333333333,0.201,0,0,0,0,0,0,0,-0.350657142857143,-0.935585714285714,0.154614285714286,35.234,16.3526,9.2802,0.98175,0.96352,-0.23908,-0.40214,-30.0604285714286,12.2908571428571,20.1132857142857,290.7434,1,1,0,1
24-May-2018 14:37:04,52,0.0908714285714286,-0.882571428571428,-0.389657142857143,0.57,-0.6255,0.275333333333333,0.201,0,0,0,0,0,0,0,-0.350657142857143,-0.935585714285714,0.154614285714286,35.234,16.3526,9.2802,0.98175,0.96352,-0.23908,-0.40214,-30.0604285714286,12.2908571428571,20.1132857142857,290.7434,1,1,0,1
24-May-2018 14:37:05,52.1,0.0908714285714286,-0.882571428571428,-0.389657142857143,0.57,-0.6255,0.275333333333333,0.201,0,0,0,0,0,0,0,-0.29334,-0.98516,-0.08812,22.829,56.85,7.29571428571429,1.0335,0.794533333333333,-0.713716666666667,-0.125183333333333,22.782125,-3.8645,44.900875,347.883,1,0,1,1
24-May-2018 14:37:05,52.1,0.0908714285714286,-0.882571428571428,-0.389657142857143,0.57,-0.6255,0.275333333333333,0.201,0,0,0,0,0,0,0,-0.29334,-0.98516,-0.08812,22.829,56.85,7.29571428571429,1.0335,0.794533333333333,-0.713716666666667,-0.125183333333333,22.782125,-3.8645,44.900875,347.883,1,0,1,1
24-May-2018 14:37:05,52.1,0.0908714285714286,-0.882571428571428,-0.389657142857143,0.57,-0.6255,0.275333333333333,0.201,0,0,0,0,0,0,0,-0.29334,-0.98516,-0.08812,22.829,56.85,7.29571428571429,1.0335,0.794533333333333,-0.713716666666667,-0.125183333333333,22.782125,-3.8645,44.900875,347.883,1,0,1,1
24-May-2018 14:37:05,52.1,0.0908714285714286,-0.882571428571428,-0.389657142857143,0.57,-0.6255,0.275333333333333,0.201,0,0,0,0,0,0,0,-0.29334,-0.98516,-0.08812,22.829,56.85,7.29571428571429,1.0335,0.794533333333333,-0.713716666666667,-0.125183333333333,22.782125,-3.8645,44.900875,347.883,1,0,1,1
24-May-2018 14:37:06,52,0.0908714285714286,-0.882571428571428,-0.389657142857143,0.57,-0.6255,0.275333333333333,0.201,0,0,0,0,0,0,0,-0.388814285714286,-0.928285714285714,0.110714285714286,6.21785714285714,46.9912857142857,4.35285714285714,2.59625,0.448242857142857,-0.780157142857143,0.172914285714286,24.309,-11.361,-21.1381666666667,461.0328,1,1,0,1
24-May-2018 14:37:06,52,0.0908714285714286,-0.882571428571428,-0.389657142857143,0.57,-0.6255,0.275333333333333,0.201,0,0,0,0,0,0,0,-0.388814285714286,-0.928285714285714,0.110714285714286,6.21785714285714,46.9912857142857,4.35285714285714,2.59625,0.448242857142857,-0.780157142857143,0.172914285714286,24.309,-11.361,-21.1381666666667,461.0328,1,1,0,1
24-May-2018 14:37:06,52,0.0908714285714286,-0.882571428571428,-0.389657142857143,0.57,-0.6255,0.275333333333333,0.201,0,0,0,0,0,0,0,-0.388814285714286,-0.928285714285714,0.110714285714286,6.21785714285714,46.9912857142857,4.35285714285714,2.59625,0.448242857142857,-0.780157142857143,0.172914285714286,24.309,-11.361,-21.1381666666667,461.0328,1,1,0,1
24-May-2018 14:37:06,52,0.0908714285714286,-0.882571428571428,-0.389657142857143,0.57,-0.6255,0.275333333333333,0.201,0,0,0,0,0,0,0,-0.388814285714286,-0.928285714285714,0.110714285714286,6.21785714285714,46.9912857142857,4.35285714285714,2.59625,0.448242857142857,-0.780157142857143,0.172914285714286,24.309,-11.361,-21.1381666666667,461.0328,1,1,0,1
24-May-2018 14:37:07,52,0.0908714285714286,-0.882571428571428,-0.389657142857143,0.57,-0.6255,0.275333333333333,0.201,0,0,0,0,0,0,0,-0.299514285714286,-0.947985714285714,0.071,40.6631666666667,43.2088333333333,21.381,2.7905,0.923685714285714,-0.434028571428571,0.302642857142857,-26.097625,4.611375,-2.4085,649.856,1,1,1,1
24-May-2018 14:37:07,52,0.0908714285714286,-0.882571428571428,-0.389657142857143,0.57,-0.6255,0.275333333333333,0.201,0,0,0,0,0,0,0,-0.299514285714286,-0.947985714285714,0.071,40.6631666666667,43.2088333333333,21.381,2.7905,0.923685714285714,-0.434028571428571,0.302642857142857,-26.097625,4.611375,-2.4085,649.856,1,1,1,1
24-May-2018 14:37:07,52,0.0908714285714286,-0.882571428571428,-0.389657142857143,0.57,-0.6255,0.275333333333333,0.201,0,0,0,0,0,0,0,-0.299514285714286,-0.947985714285714,0.071,40.6631666666667,43.2088333333333,21.381,2.7905,0.923685714285714,-0.434028571428571,0.302642857142857,-26.097625,4.611375,-2.4085,649.856,1,1,1,1
24-May-2018 14:37:07,52,0.0908714285714286,-0.882571428571428,-0.389657142857143,0.57,-0.6255,0.275333333333333,0.201,0,0,0,0,0,0,0,-0.299514285714286,-0.947985714285714,0.071,40.6631666666667,43.2088333333333,21.381,2.7905,0.923685714285714,-0.434028571428571,0.302642857142857,-26.097625,4.611375,-2.4085,649.856,1,1,1,1
24-May-2018 14:37:08,52.1,0.0908714285714286,-0.882571428571428,-0.389657142857143,0.57,-0.6255,0.275333333333333,0.201,0,0,0,0,0,0,0,-0.401283333333333,-0.90085,0.0294333333333333,-14.263875,32.5575,-12.33875,3.081,0.975328571428571,-0.417114285714286,0.188685714285714,-4.6464,-3.183,-23.4146,490.7556,1,1,1,1
24-May-2018 14:37:08,52.1,0.0908714285714286,-0.882571428571428,-0.389657142857143,0.57,-0.6255,0.275333333333333,0.201,0,0,0,0,0,0,0,-0.401283333333333,-0.90085,0.0294333333333333,-14.263875,32.5575,-12.33875,3.081,0.975328571428571,-0.417114285714286,0.188685714285714,-4.6464,-3.183,-23.4146,490.7556,1,1,1,1
24-May-2018 14:37:08,52.1,0.0908714285714286,-0.882571428571428,-0.389657142857143,0.57,-0.6255,0.275333333333333,0.201,0,0,0,0,0,0,0,-0.401283333333333,-0.90085,0.0294333333333333,-14.263875,32.5575,-12.33875,3.081,0.975328571428571,-0.417114285714286,0.188685714285714,-4.6464,-3.183,-23.4146,490.7556,1,1,1,1
24-May-2018 14:37:08,52.1,0.0908714285714286,-0.882571428571428,-0.389657142857143,0.57,-0.6255,0.275333333333333,0.201,0,0,0,0,0,0,0,-0.401283333333333,-0.90085,0.0294333333333333,-14.263875,32.5575,-12.33875,3.081,0.975328571428571,-0.417114285714286,0.188685714285714,-4.6464,-3.183,-23.4146,490.7556,1,1,1,1
24-May-2018 14:37:09,52,0.0908714285714286,-0.882571428571428,-0.389657142857143,0.57,-0.6255,0.275333333333333,0.201,0,0,0,0,0,0,0,-0.2693125,-0.9514375,-0.000937499999999997,-36.656,-8.162,-14.027,1.7276,0.915028571428571,-0.3162,0.321128571428571,21.2262222222222,-8.15722222222222,16.9444444444444,610.1635,1,1,0,0
24-May-2018 14:37:09,52,0.0908714285714286,-0.882571428571428,-0.389657142857143,0.57,-0.6255,0.275333333333333,0.201,0,0,0,0,0,0,0,-0.2693125,-0.9514375,-0.000937499999999997,-36.656,-8.162,-14.027,1.7276,0.915028571428571,-0.3162,0.321128571428571,21.2262222222222,-8.15722222222222,16.9444444444444,610.1635,1,1,0,0
24-May-2018 14:37:09,52,0.0908714285714286,-0.882571428571428,-0.389657142857143,0.57,-0.6255,0.275333333333333,0.201,0,0,0,0,0,0,0,-0.2693125,-0.9514375,-0.000937499999999997,-36.656,-8.162,-14.027,1.7276,0.915028571428571,-0.3162,0.321128571428571,21.2262222222222,-8.15722222222222,16.9444444444444,610.1635,1,1,0,0
24-May-2018 14:37:09,52,0.0908714285714286,-0.882571428571428,-0.389657142857143,0.57,-0.6255,0.275333333333333,0.201,0,0,0,0,0,0,0,-0.2693125,-0.9514375,-0.000937499999999997,-36.656,-8.162,-14.027,1.7276,0.915028571428571,-0.3162,0.321128571428571,21.2262222222222,-8.15722222222222,16.9444444444444,610.1635,1,1,0,0
24-May-2018 14:37:10,52,0.0908714285714286,-0.882571428571428,-0.389657142857143,0.57,-0.6255,0.275333333333333,0.201,0,0,0,0,0,0,0,-0.3075,-0.899533333333333,-0.00691666666666666,7.645,42.8732857142857,-4.32342857142857,1.5655,1.00018333333333,-0.332566666666667,0.10285,-9.314,-21.349125,-8.9405,646.391,1,1,0,1
24-May-2018 14:37:10,52,0.0908714285714286,-0.882571428571428,-0.389657142857143,0.57,-0.6255,0.275333333333333,0.201,0,0,0,0,0,0,0,-0.3075,-0.899533333333333,-0.00691666666666666,7.645,42.8732857142857,-4.32342857142857,1.5655,1.00018333333333,-0.332566666666667,0.10285,-9.314,-21.349125,-8.9405,646.391,1,1,0,1
24-May-2018 14:37:10,52,0.0908714285714286,-0.882571428571428,-0.389657142857143,0.57,-0.6255,0.275333333333333,0.201,0,0,0,0,0,0,0,-0.3075,-0.899533333333333,-0.00691666666666666,7.645,42.8732857142857,-4.32342857142857,1.5655,1.00018333333333,-0.332566666666667,0.10285,-9.314,-21.349125,-8.9405,646.391,1,1,0,1
24-May-2018 14:37:10,52,0.0908714285714286,-0.882571428571428,-0.389657142857143,0.57,-0.6255,0.275333333333333,0.201,0,0,0,0,0,0,0,-0.3075,-0.899533333333333,-0.00691666666666666,7.645,42.8732857142857,-4.32342857142857,1.5655,1.00018333333333,-0.332566666666667,0.10285,-9.314,-21.349125,-8.9405,646.391,1,1,0,1
24-May-2018 14:37:11,52,0.0908714285714286,-0.882571428571428,-0.389657142857143,0.57,-0.6255,0.275333333333333,0.201,0,0,0,0,0,0,0,-0.280285714285714,-0.952257142857143,-0.1078,-20.6625714285714,39.6285714285714,-20.866,1.46475,1.00502857142857,-0.314128571428571,0.0697571428571429,22.63725,9.176875,0.01525,426.547,1,1,1,1
24-May-2018 14:37:11,52,0.0908714285714286,-0.882571428571428,-0.389657142857143,0.57,-0.6255,0.275333333333333,0.201,0,0,0,0,0,0,0,-0.280285714285714,-0.952257142857143,-0.1078,-20.6625714285714,39.6285714285714,-20.866,1.46475,1.00502857142857,-0.314128571428571,0.0697571428571429,22.63725,9.176875,0.01525,426.547,1,1,1,1
24-May-2018 14:37:11,52,0.0908714285714286,-0.882571428571428,-0.389657142857143,0.57,-0.6255,0.275333333333333,0.201,0,0,0,0,0,0,0,-0.280285714285714,-0.952257142857143,-0.1078,-20.6625714285714,39.6285714285714,-20.866,1.46475,1.00502857142857,-0.314128571428571,0.0697571428571429,22.63725,9.176875,0.01525,426.547,1,1,1,1
24-May-2018 14:37:11,52,0.0908714285714286,-0.882571428571428,-0.389657142857143,0.57,-0.6255,0.275333333333333,0.201,0,0,0,0,0,0,0,-0.280285714285714,-0.952257142857143,-0.1078,-20.6625714285714,39.6285714285714,-20.866,1.46475,1.00502857142857,-0.314128571428571,0.0697571428571429,22.63725,9.176875,0.01525,426.547,1,1,1,1
24-May-2018 14:37:12,52,0.0908714285714286,-0.882571428571428,-0.389657142857143,0.57,-0.6255,0.275333333333333,0.201,0,0,0,0,0,0,0,-0.43612,-1.00934,0.22162,33.0133333333333,5.51483333333333,33.9395,1.3174,0.964585714285714,-0.294442857142857,0.210771428571429,-2.49128571428571,-0.670714285714286,-6.751,605.244333333333,1,1,0,1
24-May-2018 14:37:12,52,0.0908714285714286,-0.882571428571428,-0.389657142857143,0.57,-0.6255,0.275333333333333,0.201,0,0,0,0,0,0,0,-0.43612,-1.00934,0.22162,33.0133333333333,5.51483333333333,33.9395,1.3174,0.964585714285714,-0.294442857142857,0.210771428571429,-2.49128571428571,-0.670714285714286,-6.751,605.244333333333,1,1,0,1
24-May-2018 14:37:12,52,0.0908714285714286,-0.882571428571428,-0.389657142857143,0.57,-0.6255,0.275333333333333,0.201,0,0,0,0,0,0,0,-0.43612,-1.00934,0.22162,33.0133333333333,5.51483333333333,33.9395,1.3174,0.964585714285714,-0.294442857142857,0.210771428571429,-2.49128571428571,-0.670714285714286,-6.751,605.244333333333,1,1,0,1
24-May-2018 14:37:12,52,0.0908714285714286,-0.882571428571428,-0.389657142857143,0.57,-0.6255,0.275333333333333,0.201,0,0,0,0,0,0,0,-0.43612,-1.00934,0.22162,33.0133333333333,5.51483333333333,33.9395,1.3174,0.964585714285714,-0.294442857142857,0.210771428571429,-2.49128571428571,-0.670714285714286,-6.751,605.244333333333,1,1,0,1
24-May-2018 14:37:13,52.1111111111111,0.0908714285714286,-0.882571428571428,-0.389657142857143,0.57,-0.6255,0.275333333333333,0.201,0,0,0,0,0,0,0,-0.2916,-0.942042857142857,-0.0706285714285714,-17.647125,27.88575,-13,1.317,0.929133333333333,-0.385983333333333,0.0483166666666667,8.018125,-12.187375,5.4725,530.854,1,1,1,1
24-May-2018 14:37:13,52.1111111111111,0.0908714285714286,-0.882571428571428,-0.389657142857143,0.57,-0.6255,0.275333333333333,0.201,0,0,0,0,0,0,0,-0.2916,-0.942042857142857,-0.0706285714285714,-17.647125,27.88575,-13,1.317,0.929133333333333,-0.385983333333333,0.0483166666666667,8.018125,-12.187375,5.4725,530.854,1,1,1,1
24-May-2018 14:37:13,52.1111111111111,0.0908714285714286,-0.882571428571428,-0.389657142857143,0.57,-0.6255,0.275333333333333,0.201,0,0,0,0,0,0,0,-0.2916,-0.942042857142857,-0.0706285714285714,-17.647125,27.88575,-13,1.317,0.929133333333333,-0.385983333333333,0.0483166666666667,8.018125,-12.187375,5.4725,530.854,1,1,1,1
24-May-2018 14:37:13,52.1111111111111,0.0908714285714286,-0.882571428571428,-0.389657142857143,0.57,-0.6255,0.275333333333333,0.201,0,0,0,0,0,0,0,-0.2916,-0.942042857142857,-0.0706285714285714,-17.647125,27.88575,-13,1.317,0.929133333333333,-0.385983333333333,0.0483166666666667,8.018125,-12.187375,5.4725,530.854,1,1,1,1
24-May-2018 14:37:14,52,0.0908714285714286,-0.882571428571428,-0.389657142857143,0.57,-0.6255,0.275333333333333,0.201,0,0,0,0,0,0,0,-0.37515,-0.9574,0.185633333333333,7.05614285714286,-10.8072857142857,11.7185714285714,1.0735,0.921757142857143,-0.334214285714286,0.190385714285714,-11.0715714285714,19.9737142857143,-8.22314285714286,471.276,1,1,0,1
24-May-2018 14:37:14,52,0.0908714285714286,-0.882571428571428,-0.389657142857143,0.57,-0.6255,0.275333333333333,0.201,0,0,0,0,0,0,0,-0.37515,-0.9574,0.185633333333333,7.05614285714286,-10.8072857142857,11.7185714285714,1.0735,0.921757142857143,-0.334214285714286,0.190385714285714,-11.0715714285714,19.9737142857143,-8.22314285714286,471.276,1,1,0,1
24-May-2018 14:37:14,52,0.0908714285714286,-0.882571428571428,-0.389657142857143,0.57,-0.6255,0.275333333333333,0.201,0,0,0,0,0,0,0,-0.37515,-0.9574,0.185633333333333,7.05614285714286,-10.8072857142857,11.7185714285714,1.0735,0.921757142857143,-0.334214285714286,0.190385714285714,-11.0715714285714,19.9737142857143,-8.22314285714286,471.276,1,1,0,1
24-May-2018 14:37:14,52,0.0908714285714286,-0.882571428571428,-0.389657142857143,0.57,-0.6255,0.275333333333333,0.201,0,0,0,0,0,0,0,-0.37515,-0.9574,0.185633333333333,7.05614285714286,-10.8072857142857,11.7185714285714,1.0735,0.921757142857143,-0.334214285714286,0.190385714285714,-11.0715714285714,19.9737142857143,-8.22314285714286,471.276,1,1,0,1
24-May-2018 14:37:15,52.125,0.0908714285714286,-0.882571428571428,-0.389657142857143,0.57,-0.6255,0.275333333333333,0.201,0,0,0,0,0,0,0,-0.289866666666667,-0.950983333333333,3.33333333333435e-05,25.131375,22.60625,10.9375,1.14,0.99744,-0.39784,0.08478,3.483125,-6.928375,-6.554875,498.647333333333,1,1,0,1
24-May-2018 14:37:15,52.125,0.0908714285714286,-0.882571428571428,-0.389657142857143,0.57,-0.6255,0.275333333333333,0.201,0,0,0,0,0,0,0,-0.289866666666667,-0.950983333333333,3.33333333333435e-05,25.131375,22.60625,10.9375,1.14,0.99744,-0.39784,0.08478,3.483125,-6.928375,-6.554875,498.647333333333,1,1,0,1
24-May-2018 14:37:15,52.125,0.0908714285714286,-0.882571428571428,-0.389657142857143,0.57,-0.6255,0.275333333333333,0.201,0,0,0,0,0,0,0,-0.289866666666667,-0.950983333333333,3.33333333333435e-05,25.131375,22.60625,10.9375,1.14,0.99744,-0.39784,0.08478,3.483125,-6.928375,-6.554875,498.647333333333,1,1,0,1
24-May-2018 14:37:15,52.125,0.0908714285714286,-0.882571428571428,-0.389657142857143,0.57,-0.6255,0.275333333333333,0.201,0,0,0,0,0,0,0,-0.289866666666667,-0.950983333333333,3.33333333333435e-05,25.131375,22.60625,10.9375,1.14,0.99744,-0.39784,0.08478,3.483125,-6.928375,-6.554875,498.647333333333,1,1,0,1
24-May-2018 14:37:16,52.1111111111111,0.0908714285714286,-0.882571428571428,-0.389657142857143,0.57,-0.6255,0.275333333333333,0.201,0,0,0,0,0,0,0,-0.4179,-0.892816666666667,0.0136166666666667,-6.6135,51.51,-4.83733333333333,0.9692,0.9809,-0.313714285714286,0.183928571428571,-16.1686666666667,-10.5285,0.2235,487.055,0,1,1,1
24-May-2018 14:37:16,52.1111111111111,0.0908714285714286,-0.882571428571428,-0.389657142857143,0.57,-0.6255,0.275333333333333,0.201,0,0,0,0,0,0,0,-0.4179,-0.892816666666667,0.0136166666666667,-6.6135,51.51,-4.83733333333333,0.9692,0.9809,-0.313714285714286,0.183928571428571,-16.1686666666667,-10.5285,0.2235,487.055,0,1,1,1
24-May-2018 14:37:16,52.1111111111111,0.0908714285714286,-0.882571428571428,-0.389657142857143,0.57,-0.6255,0.275333333333333,0.201,0,0,0,0,0,0,0,-0.4179,-0.892816666666667,0.0136166666666667,-6.6135,51.51,-4.83733333333333,0.9692,0.9809,-0.313714285714286,0.183928571428571,-16.1686666666667,-10.5285,0.2235,487.055,0,1,1,1
24-May-2018 14:37:16,52.1111111111111,0.0908714285714286,-0.882571428571428,-0.389657142857143,0.57,-0.6255,0.275333333333333,0.201,0,0,0,0,0,0,0,-0.4179,-0.892816666666667,0.0136166666666667,-6.6135,51.51,-4.83733333333333,0.9692,0.9809,-0.313714285714286,0.183928571428571,-16.1686666666667,-10.5285,0.2235,487.055,0,1,1,1
24-May-2018 14:37:17,52.3,0.0908714285714286,-0.882571428571428,-0.389657142857143,0.57,-0.6255,0.275333333333333,0.201,0,0,0,0,0,0,0,-0.336116666666667,-0.982016666666667,0.0548333333333333,36.1357142857143,23.47,14.2571428571429,2.3922,0.9599625,-0.410075,0.0572375,-21.615875,15.762375,-3.9635,452.363,1,1,1,1
24-May-2018 14:37:17,52.3,0.0908714285714286,-0.882571428571428,-0.389657142857143,0.57,-0.6255,0.275333333333333,0.201,0,0,0,0,0,0,0,-0.336116666666667,-0.982016666666667,0.0548333333333333,36.1357142857143,23.47,14.2571428571429,2.3922,0.9599625,-0.410075,0.0572375,-21.615875,15.762375,-3.9635,452.363,1,1,1,1
24-May-2018 14:37:17,52.3,0.0908714285714286,-0.882571428571428,-0.389657142857143,0.57,-0.6255,0.275333333333333,0.201,0,0,0,0,0,0,0,-0.336116666666667,-0.982016666666667,0.0548333333333333,36.1357142857143,23.47,14.2571428571429,2.3922,0.9599625,-0.410075,0.0572375,-21.615875,15.762375,-3.9635,452.363,1,1,1,1
24-May-2018 14:37:17,52.3,0.0908714285714286,-0.882571428571428,-0.389657142857143,0.57,-0.6255,0.275333333333333,0.201,0,0,0,0,0,0,0,-0.336116666666667,-0.982016666666667,0.0548333333333333,36.1357142857143,23.47,14.2571428571429,2.3922,0.9599625,-0.410075,0.0572375,-21.615875,15.762375,-3.9635,452.363,1,1,1,1
24-May-2018 14:37:18,52.2222222222222,0.0908714285714286,-0.882571428571428,-0.389657142857143,0.57,-0.6255,0.275333333333333,0.201,0,0,0,0,0,0,0,-0.260366666666667,-0.973,-0.213916666666667,1.617,42.6066666666667,1.25183333333333,2.933,0.967585714285714,-0.3199,0.227871428571429,-26.9005,25.376,-2.327,445.767,1,1,1,1
24-May-2018 14:37:18,52.2222222222222,0.0908714285714286,-0.882571428571428,-0.389657142857143,0.57,-0.6255,0.275333333333333,0.201,0,0,0,0,0,0,0,-0.260366666666667,-0.973,-0.213916666666667,1.617,42.6066666666667,1.25183333333333,2.933,0.967585714285714,-0.3199,0.227871428571429,-26.9005,25.376,-2.327,445.767,1,1,1,1
24-May-2018 14:37:18,52.2222222222222,0.0908714285714286,-0.882571428571428,-0.389657142857143,0.57,-0.6255,0.275333333333333,0.201,0,0,0,0,0,0,0,-0.260366666666667,-0.973,-0.213916666666667,1.617,42.6066666666667,1.25183333333333,2.933,0.967585714285714,-0.3199,0.227871428571429,-26.9005,25.376,-2.327,445.767,1,1,1,1
24-May-2018 14:37:18,52.2222222222222,0.0908714285714286,-0.882571428571428,-0.389657142857143,0.57,-0.6255,0.275333333333333,0.201,0,0,0,0,0,0,0,-0.260366666666667,-0.973,-0.213916666666667,1.617,42.6066666666667,1.25183333333333,2.933,0.967585714285714,-0.3199,0.227871428571429,-26.9005,25.376,-2.327,445.767,1,1,1,1
24-May-2018 14:37:19,52.125,0.0908714285714286,-0.882571428571428,-0.389657142857143,0.57,-0.6255,0.275333333333333,0.201,0,0,0,0,0,0,0,-0.38275,-0.921225,0.1967,16.8896,5.2998,14.528,2.93066666666667,0.9439,-0.339114285714286,0.213014285714286,-47.012125,2.3705,-15.327625,497.899,1,1,1,1
24-May-2018 14:37:19,52.125,0.0908714285714286,-0.882571428571428,-0.389657142857143,0.57,-0.6255,0.275333333333333,0.201,0,0,0,0,0,0,0,-0.38275,-0.921225,0.1967,16.8896,5.2998,14.528,2.93066666666667,0.9439,-0.339114285714286,0.213014285714286,-47.012125,2.3705,-15.327625,497.899,1,1,1,1
24-May-2018 14:37:19,52.125,0.0908714285714286,-0.882571428571428,-0.389657142857143,0.57,-0.6255,0.275333333333333,0.201,0,0,0,0,0,0,0,-0.38275,-0.921225,0.1967,16.8896,5.2998,14.528,2.93066666666667,0.9439,-0.339114285714286,0.213014285714286,-47.012125,2.3705,-15.327625,497.899,1,1,1,1
24-May-2018 14:37:19,52.125,0.0908714285714286,-0.882571428571428,-0.389657142857143,0.57,-0.6255,0.275333333333333,0.201,0,0,0,0,0,0,0,-0.38275,-0.921225,0.1967,16.8896,5.2998,14.528,2.93066666666667,0.9439,-0.339114285714286,0.213014285714286,-47.012125,2.3705,-15.327625,497.899,1,1,1,1
24-May-2018 14:37:20,52.1,0.0908714285714286,-0.882571428571428,-0.389657142857143,0.57,-0.6255,0.275333333333333,0.201,0,0,0,0,0,0,0,-0.30435,-0.977,-0.0114,-14.7185,36.8253333333333,-7.90666666666667,2.844,0.9651,-0.287,0.0632833333333333,-14.7105,16.265375,-3.033625,633.449,1,1,0,0
24-May-2018 14:37:20,52.1,0.0908714285714286,-0.882571428571428,-0.389657142857143,0.57,-0.6255,0.275333333333333,0.201,0,0,0,0,0,0,0,-0.30435,-0.977,-0.0114,-14.7185,36.8253333333333,-7.90666666666667,2.844,0.9651,-0.287,0.0632833333333333,-14.7105,16.265375,-3.033625,633.449,1,1,0,0
24-May-2018 14:37:20,52.1,0.0908714285714286,-0.882571428571428,-0.389657142857143,0.57,-0.6255,0.275333333333333,0.201,0,0,0,0,0,0,0,-0.30435,-0.977,-0.0114,-14.7185,36.8253333333333,-7.90666666666667,2.844,0.9651,-0.287,0.0632833333333333,-14.7105,16.265375,-3.033625,633.449,1,1,0,0
24-May-2018 14:37:20,52.1,0.0908714285714286,-0.882571428571428,-0.389657142857143,0.57,-0.6255,0.275333333333333,0.201,0,0,0,0,0,0,0,-0.30435,-0.977,-0.0114,-14.7185,36.8253333333333,-7.90666666666667,2.844,0.9651,-0.287,0.0632833333333333,-14.7105,16.265375,-3.033625,633.449,1,1,0,0
24-May-2018 14:37:21,160.571428571429,0.0908714285714286,-0.882571428571428,-0.389657142857143,0.57,-0.6255,0.275333333333333,0.201,0,0,0,0,0,0,0,-0.3240625,-0.8745875,0.086975,19.4692857142857,11.4752857142857,27.5485714285714,2.28666666666667,0.91882,-0.45688,0.23928,-53.52825,25.7775,-4.17675,798.9345,1,1,0,0
24-May-2018 14:37:21,160.571428571429,0.0908714285714286,-0.882571428571428,-0.389657142857143,0.57,-0.6255,0.275333333333333,0.201,0,0,0,0,0,0,0,-0.3240625,-0.8745875,0.086975,19.4692857142857,11.4752857142857,27.5485714285714,2.28666666666667,0.91882,-0.45688,0.23928,-53.52825,25.7775,-4.17675,798.9345,1,1,0,0
24-May-2018 14:37:21,160.571428571429,0.0908714285714286,-0.882571428571428,-0.389657142857143,0.57,-0.6255,0.275333333333333,0.201,0,0,0,0,0,0,0,-0.3240625,-0.8745875,0.086975,19.4692857142857,11.4752857142857,27.5485714285714,2.28666666666667,0.91882,-0.45688,0.23928,-53.52825,25.7775,-4.17675,798.9345,1,1,0,0
24-May-2018 14:37:21,160.571428571429,0.0908714285714286,-0.882571428571428,-0.389657142857143,0.57,-0.6255,0.275333333333333,0.201,0,0,0,0,0,0,0,-0.3240625,-0.8745875,0.086975,19.4692857142857,11.4752857142857,27.5485714285714,2.28666666666667,0.91882,-0.45688,0.23928,-53.52825,25.7775,-4.17675,798.9345,1,1,0,0
24-May-2018 14:37:22,359.9,0.0908714285714286,-0.882571428571428,-0.389657142857143,0.57,-0.6255,0.275333333333333,0.201,0,0,0,0,0,0,0,-0.29445,-1.00186666666667,-0.0594,26.636,54.68,11.3038,2.2858,0.927125,-0.4092,0.04605,-28.1792857142857,12.4127142857143,-8.94585714285714,747.739333333333,1,1,1,1
24-May-2018 14:37:22,359.9,0.0908714285714286,-0.882571428571428,-0.389657142857143,0.57,-0.6255,0.275333333333333,0.201,0,0,0,0,0,0,0,-0.29445,-1.00186666666667,-0.0594,26.636,54.68,11.3038,2.2858,0.927125,-0.4092,0.04605,-28.1792857142857,12.4127142857143,-8.94585714285714,747.739333333333,1,1,1,1
24-May-2018 14:37:22,359.9,0.0908714285714286,-0.882571428571428,-0.389657142857143,0.57,-0.6255,0.275333333333333,0.201,0,0,0,0,0,0,0,-0.29445,-1.00186666666667,-0.0594,26.636,54.68,11.3038,2.2858,0.927125,-0.4092,0.04605,-28.1792857142857,12.4127142857143,-8.94585714285714,747.739333333333,1,1,1,1
24-May-2018 14:37:22,359.9,0.0908714285714286,-0.882571428571428,-0.389657142857143,0.57,-0.6255,0.275333333333333,0.201,0,0,0,0,0,0,0,-0.29445,-1.00186666666667,-0.0594,26.636,54.68,11.3038,2.2858,0.927125,-0.4092,0.04605,-28.1792857142857,12.4127142857143,-8.94585714285714,747.739333333333,1,1,1,1
24-May-2018 14:37:23,295,0.0908714285714286,-0.882571428571428,-0.389657142857143,0.57,-0.6255,0.275333333333333,0.201,0,0,0,0,0,0,0,-0.44655,-0.77935,0.20385,37.56,12.25,-2.19,1.327,1.1882,-0.2731,0.0598,-71.768,73.78,20.976,651.645,1,1,0,0
24-May-2018 14:37:23,295,0.0908714285714286,-0.882571428571428,-0.389657142857143,0.57,-0.6255,0.275333333333333,0.201,0,0,0,0,0,0,0,-0.44655,-0.77935,0.20385,37.56,12.25,-2.19,1.327,1.1882,-0.2731,0.0598,-71.768,73.78,20.976,651.645,1,1,0,0
24-May-2018 14:37:23,295,0.0908714285714286,-0.882571428571428,-0.389657142857143,0.57,-0.6255,0.275333333333333,0.201,0,0,0,0,0,0,0,-0.44655,-0.77935,0.20385,37.56,12.25,-2.19,1.327,1.1882,-0.2731,0.0598,-71.768,73.78,20.976,651.645,1,1,0,0
24-May-2018 14:37:23,295,0.0908714285714286,-0.882571428571428,-0.389657142857143,0.57,-0.6255,0.275333333333333,0.201,0,0,0,0,0,0,0,-0.44655,-0.77935,0.20385,37.56,12.25,-2.19,1.327,1.1882,-0.2731,0.0598,-71.768,73.78,20.976,651.645,1,1,0,0
24-May-2018 14:37:24,171,0.0908714285714286,-0.882571428571428,-0.389657142857143,0.57,-0.6255,0.275333333333333,0.201,0,0,0,0,0,0,0,-0.5179,-0.9537,0.3201,-47.4,42.8,-56.3,1.682,0.99225,-0.4718,0.1314,18.14025,-27.3935,-12.0275,694.197,1,1,1,1
24-May-2018 14:37:24,171,0.0908714285714286,-0.882571428571428,-0.389657142857143,0.57,-0.6255,0.275333333333333,0.201,0,0,0,0,0,0,0,-0.5179,-0.9537,0.3201,-47.4,42.8,-56.3,1.682,0.99225,-0.4718,0.1314,18.14025,-27.3935,-12.0275,694.197,1,1,1,1
24-May-2018 14:37:24,171,0.0908714285714286,-0.882571428571428,-0.389657142857143,0.57,-0.6255,0.275333333333333,0.201,0,0,0,0,0,0,0,-0.5179,-0.9537,0.3201,-47.4,42.8,-56.3,1.682,0.99225,-0.4718,0.1314,18.14025,-27.3935,-12.0275,694.197,1,1,1,1
24-May-2018 14:37:24,171,0.0908714285714286,-0.882571428571428,-0.389657142857143,0.57,-0.6255,0.275333333333333,0.201,0,0,0,0,0,0,0,-0.5179,-0.9537,0.3201,-47.4,42.8,-56.3,1.682,0.99225,-0.4718,0.1314,18.14025,-27.3935,-12.0275,694.197,1,1,1,1
24-May-2018 14:37:25,-1253.33333333333,0.0908714285714286,-0.882571428571428,-0.389657142857143,0.57,-0.6255,0.275333333333333,0.201,0,0,0,0,0,0,0,-0.350357142857143,-1.00662857142857,0.185671428571429,2.62442857142857,30.34,1.95285714285714,1.506,0.91216,-0.49212,-0.03366,-54.5216,24.305,2.9998,699.3115,1,1,0,1
24-May-2018 14:37:25,-1253.33333333333,0.0908714285714286,-0.882571428571428,-0.389657142857143,0.57,-0.6255,0.275333333333333,0.201,0,0,0,0,0,0,0,-0.350357142857143,-1.00662857142857,0.185671428571429,2.62442857142857,30.34,1.95285714285714,1.506,0.91216,-0.49212,-0.03366,-54.5216,24.305,2.9998,699.3115,1,1,0,1
24-May-2018 14:37:25,-1253.33333333333,0.0908714285714286,-0.882571428571428,-0.389657142857143,0.57,-0.6255,0.275333333333333,0.201,0,0,0,0,0,0,0,-0.350357142857143,-1.00662857142857,0.185671428571429,2.62442857142857,30.34,1.95285714285714,1.506,0.91216,-0.49212,-0.03366,-54.5216,24.305,2.9998,699.3115,1,1,0,1
24-May-2018 14:37:25,-1253.33333333333,0.0908714285714286,-0.882571428571428,-0.389657142857143,0.57,-0.6255,0.275333333333333,0.201,0,0,0,0,0,0,0,-0.350357142857143,-1.00662857142857,0.185671428571429,2.62442857142857,30.34,1.95285714285714,1.506,0.91216,-0.49212,-0.03366,-54.5216,24.305,2.9998,699.3115,1,1,0,1
24-May-2018 14:37:26,-2048,0.0908714285714286,-0.882571428571428,-0.389657142857143,0.57,-0.6255,0.275333333333333,0.201,0,0,0,0,0,0,0,-0.385133333333333,-0.845166666666667,0.0514666666666667,-31.4316666666667,47.5966666666667,-33.3963333333333,1.537,0.93845,-0.418916666666667,0.0769,-59.0843333333333,28.9228333333333,15.0305,548.22625,1,1,0,1
24-May-2018 14:37:26,-2048,0.0908714285714286,-0.882571428571428,-0.389657142857143,0.57,-0.6255,0.275333333333333,0.201,0,0,0,0,0,0,0,-0.385133333333333,-0.845166666666667,0.0514666666666667,-31.4316666666667,47.5966666666667,-33.3963333333333,1.537,0.93845,-0.418916666666667,0.0769,-59.0843333333333,28.9228333333333,15.0305,548.22625,1,1,0,1
24-May-2018 14:37:26,-2048,0.0908714285714286,-0.882571428571428,-0.389657142857143,0.57,-0.6255,0.275333333333333,0.201,0,0,0,0,0,0,0,-0.385133333333333,-0.845166666666667,0.0514666666666667,-31.4316666666667,47.5966666666667,-33.3963333333333,1.537,0.93845,-0.418916666666667,0.0769,-59.0843333333333,28.9228333333333,15.0305,548.22625,1,1,0,1
24-May-2018 14:37:26,-2048,0.0908714285714286,-0.882571428571428,-0.389657142857143,0.57,-0.6255,0.275333333333333,0.201,0,0,0,0,0,0,0,-0.385133333333333,-0.845166666666667,0.0514666666666667,-31.4316666666667,47.5966666666667,-33.3963333333333,1.537,0.93845,-0.418916666666667,0.0769,-59.0843333333333,28.9228333333333,15.0305,548.22625,1,1,0,1
24-May-2018 14:37:27,-2048,0.0908714285714286,-0.882571428571428,-0.389657142857143,0.57,-0.6255,0.275333333333333,0.201,0,0,0,0,0,0,0,-0.4337,-0.918071428571429,0.0558285714285714,5.43114285714286,8.30685714285714,11.6378571428571,0.973333333333333,0.955775,-0.46735,0.016025,-37.4393333333333,19.36,-3.36366666666667,504.610285714286,1,1,0,1
24-May-2018 14:37:27,-2048,0.0908714285714286,-0.882571428571428,-0.389657142857143,0.57,-0.6255,0.275333333333333,0.201,0,0,0,0,0,0,0,-0.4337,-0.918071428571429,0.0558285714285714,5.43114285714286,8.30685714285714,11.6378571428571,0.973333333333333,0.955775,-0.46735,0.016025,-37.4393333333333,19.36,-3.36366666666667,504.610285714286,1,1,0,1
24-May-2018 14:37:27,-2048,0.0908714285714286,-0.882571428571428,-0.389657142857143,0.57,-0.6255,0.275333333333333,0.201,0,0,0,0,0,0,0,-0.4337,-0.918071428571429,0.0558285714285714,5.43114285714286,8.30685714285714,11.6378571428571,0.973333333333333,0.955775,-0.46735,0.016025,-37.4393333333333,19.36,-3.36366666666667,504.610285714286,1,1,0,1
24-May-2018 14:37:27,-2048,0.0908714285714286,-0.882571428571428,-0.389657142857143,0.57,-0.6255,0.275333333333333,0.201,0,0,0,0,0,0,0,-0.4337,-0.918071428571429,0.0558285714285714,5.43114285714286,8.30685714285714,11.6378571428571,0.973333333333333,0.955775,-0.46735,0.016025,-37.4393333333333,19.36,-3.36366666666667,504.610285714286,1,1,0,1
24-May-2018 14:37:28,-1834.54545454545,0.0908714285714286,-0.882571428571428,-0.389657142857143,0.57,-0.6255,0.275333333333333,0.201,0,0,0,0,0,0,0,-0.268371428571429,-0.941471428571429,-0.184871428571429,-21.47,25.4542857142857,-21.18,0.9415,0.97132,-0.41474,0.15752,-7.37816666666667,10.061,10.5591666666667,448.6805,1,1,1,1
24-May-2018 14:37:28,-1834.54545454545,0.0908714285714286,-0.882571428571428,-0.389657142857143,0.57,-0.6255,0.275333333333333,0.201,0,0,0,0,0,0,0,-0.268371428571429,-0.941471428571429,-0.184871428571429,-21.47,25.4542857142857,-21.18,0.9415,0.97132,-0.41474,0.15752,-7.37816666666667,10.061,10.5591666666667,448.6805,1,1,1,1
24-May-2018 14:37:28,-1834.54545454545,0.0908714285714286,-0.882571428571428,-0.389657142857143,0.57,-0.6255,0.275333333333333,0.201,0,0,0,0,0,0,0,-0.268371428571429,-0.941471428571429,-0.184871428571429,-21.47,25.4542857142857,-21.18,0.9415,0.97132,-0.41474,0.15752,-7.37816666666667,10.061,10.5591666666667,448.6805,1,1,1,1
24-May-2018 14:37:28,-1834.54545454545,0.0908714285714286,-0.882571428571428,-0.389657142857143,0.57,-0.6255,0.275333333333333,0.201,0,0,0,0,0,0,0,-0.268371428571429,-0.941471428571429,-0.184871428571429,-21.47,25.4542857142857,-21.18,0.9415,0.97132,-0.41474,0.15752,-7.37816666666667,10.061,10.5591666666667,448.6805,1,1,1,1
24-May-2018 14:37:29,-1247.6,0.0908714285714286,-0.882571428571428,-0.389657142857143,0.57,-0.6255,0.275333333333333,0.201,0,0,0,0,0,0,0,-0.4908,-0.98638,0.21226,5.94571428571429,3.41314285714286,16.9044285714286,0.772,0.955316666666667,-0.518816666666667,0.0508666666666667,-23.4755714285714,4.35542857142857,-18.1534285714286,464.8675,1,1,1,1
24-May-2018 14:37:29,-1247.6,0.0908714285714286,-0.882571428571428,-0.389657142857143,0.57,-0.6255,0.275333333333333,0.201,0,0,0,0,0,0,0,-0.4908,-0.98638,0.21226,5.94571428571429,3.41314285714286,16.9044285714286,0.772,0.955316666666667,-0.518816666666667,0.0508666666666667,-23.4755714285714,4.35542857142857,-18.1534285714286,464.8675,1,1,1,1
24-May-2018 14:37:29,-1247.6,0.0908714285714286,-0.882571428571428,-0.389657142857143,0.57,-0.6255,0.275333333333333,0.201,0,0,0,0,0,0,0,-0.4908,-0.98638,0.21226,5.94571428571429,3.41314285714286,16.9044285714286,0.772,0.955316666666667,-0.518816666666667,0.0508666666666667,-23.4755714285714,4.35542857142857,-18.1534285714286,464.8675,1,1,1,1
24-May-2018 14:37:29,-1247.6,0.0908714285714286,-0.882571428571428,-0.389657142857143,0.57,-0.6255,0.275333333333333,0.201,0,0,0,0,0,0,0,-0.4908,-0.98638,0.21226,5.94571428571429,3.41314285714286,16.9044285714286,0.772,0.955316666666667,-0.518816666666667,0.0508666666666667,-23.4755714285714,4.35542857142857,-18.1534285714286,464.8675,1,1,1,1
24-May-2018 14:37:30,-827.727272727273,0.0908714285714286,-0.882571428571428,-0.389657142857143,0.57,-0.6255,0.275333333333333,0.201,0,0,0,0,0,0,0,-0.3376,-0.9464,-0.0535571428571429,9.5125,44.8275,0.390000000000001,0.906166666666667,0.992514285714286,-0.451585714285714,0.0318285714285714,68.75,-12.8505,-1.9055,427.9784,1,1,1,1
24-May-2018 14:37:30,-827.727272727273,0.0908714285714286,-0.882571428571428,-0.389657142857143,0.57,-0.6255,0.275333333333333,0.201,0,0,0,0,0,0,0,-0.3376,-0.9464,-0.0535571428571429,9.5125,44.8275,0.390000000000001,0.906166666666667,0.992514285714286,-0.451585714285714,0.0318285714285714,68.75,-12.8505,-1.9055,427.9784,1,1,1,1
24-May-2018 14:37:30,-827.727272727273,0.0908714285714286,-0.882571428571428,-0.389657142857143,0.57,-0.6255,0.275333333333333,0.201,0,0,0,0,0,0,0,-0.3376,-0.9464,-0.0535571428571429,9.5125,44.8275,0.390000000000001,0.906166666666667,0.992514285714286,-0.451585714285714,0.0318285714285714,68.75,-12.8505,-1.9055,427.9784,1,1,1,1
24-May-2018 14:37:30,-827.727272727273,0.0908714285714286,-0.882571428571428,-0.389657142857143,0.57,-0.6255,0.275333333333333,0.201,0,0,0,0,0,0,0,-0.3376,-0.9464,-0.0535571428571429,9.5125,44.8275,0.390000000000001,0.906166666666667,0.992514285714286,-0.451585714285714,0.0318285714285714,68.75,-12.8505,-1.9055,427.9784,1,1,1,1
