TIME,HELMET_RAW,BELT_ACC_X,BELT_ACC_Y,BELT_ACC_Z,BELT_ANG_X,BELT_ANG_Y,BELT_ANG_Z,BELT_LUMINOSITY,NECK_ACC_X,NECK_ACC_Y,NECK_ACC_Z,NECK_ANG_X,NECK_ANG_Y,NECK_ANG_Z,NECK_LUMINOSITY,PCKT_ACC_X,PCKT_ACC_Y,PCKT_ACC_Z,PCKT_ANG_X,PCKT_ANG_Y,PCKT_ANG_Z,PCKT_LUMINOSITY,WRST_ACC_X,WRST_ACC_Y,WRST_ACC_Z,WRST_ANG_X,WRST_ANG_Y,WRST_ANG_Z,WRST_LUMINOSITY,IR_1,IR_2,IR_3,IR_4
24-May-2018 14:18:30,320,0.796342857142857,0.0260714285714286,-0.0583857142857143,31.0228571428571,6.13985714285714,11.8202857142857,512.134,0,0,0,0,0,0,0,0.941971428571429,0.231542857142857,0.128,-88.5,6.975,10.5211666666667,0.0464,-0.297025,0.108875,0.140075,-54.572,5.209,2.01228571428572,420.566142857143,1,0,1,1
24-May-2018 14:18:30,320,0.796342857142857,0.0260714285714286,-0.0583857142857143,31.0228571428571,6.13985714285714,11.8202857142857,512.134,0,0,0,0,0,0,0,0.941971428571429,0.231542857142857,0.128,-88.5,6.975,10.5211666666667,0.0464,-0.297025,0.108875,0.140075,-54.572,5.209,2.01228571428572,420.566142857143,1,0,1,1
24-May-2018 14:18:30,320,0.796342857142857,0.0260714285714286,-0.0583857142857143,31.0228571428571,6.13985714285714,11.8202857142857,512.134,0,0,0,0,0,0,0,0.941971428571429,0.231542857142857,0.128,-88.5,6.975,10.5211666666667,0.0464,-0.297025,0.108875,0.140075,-54.572,5.209,2.01228571428572,420.566142857143,1,0,1,1
24-May-2018 14:18:30,320,0.796342857142857,0.0260714285714286,-0.0583857142857143,31.0228571428571,6.13985714285714,11.8202857142857,512.134,0,0,0,0,0,0,0,0.941971428571429,0.231542857142857,0.128,-88.5,6.975,10.5211666666667,0.0464,-0.297025,0.108875,0.140075,-54.572,5.209,2.01228571428572,420.566142857143,1,0,1,1
24-May-2018 14:18:31,165.1,0.760055555555555,0.0460777777777778,-0.00722222222222222,29.928625,0.126250000000001,2.22175,512.134,0,0,0,0,0,0,0,0.9086,0.13344,0.06122,-6.192625,1.124375,-4.505,0.044,-0.56236,-0.0794,0.03422,-27.994625,-24.116,-8.163125,414.028,1,1,1,1
24-May-2018 14:18:31,165.1,0.760055555555555,0.0460777777777778,-0.00722222222222222,29.928625,0.126250000000001,2.22175,512.134,0,0,0,0,0,0,0,0.9086,0.13344,0.06122,-6.192625,1.124375,-4.505,0.044,-0.56236,-0.0794,0.03422,-27.994625,-24.116,-8.163125,414.028,1,1,1,1
24-May-2018 14:18:31,165.1,0.760055555555555,0.0460777777777778,-0.00722222222222222,29.928625,0.126250000000001,2.22175,512.134,0,0,0,0,0,0,0,0.9086,0.13344,0.06122,-6.192625,1.124375,-4.505,0.044,-0.56236,-0.0794,0.03422,-27.994625,-24.116,-8.163125,414.028,1,1,1,1
24-May-2018 14:18:31,165.1,0.760055555555555,0.0460777777777778,-0.00722222222222222,29.928625,0.126250000000001,2.22175,512.134,0,0,0,0,0,0,0,0.9086,0.13344,0.06122,-6.192625,1.124375,-4.505,0.044,-0.56236,-0.0794,0.03422,-27.994625,-24.116,-8.163125,414.028,1,1,1,1
24-May-2018 14:18:32,-90.4444444444444,0.59838,0.09112,-0.03558,32.855,-11.31325,-10.285,512.134,0,0,0,0,0,0,0,0.919633333333333,0.288,0.128783333333333,-5.54942857142857,0.741571428571429,-4.21857142857143,0.0352,-1.74426,-0.23632,-0.02134,-10.044,47.59175,-17.02725,421.707333333333,1,1,1,1
24-May-2018 14:18:32,-90.4444444444444,0.59838,0.09112,-0.03558,32.855,-11.31325,-10.285,512.134,0,0,0,0,0,0,0,0.919633333333333,0.288,0.128783333333333,-5.54942857142857,0.741571428571429,-4.21857142857143,0.0352,-1.74426,-0.23632,-0.02134,-10.044,47.59175,-17.02725,421.707333333333,1,1,1,1
24-May-2018 14:18:32,-90.4444444444444,0.59838,0.09112,-0.03558,32.855,-11.31325,-10.285,0,0,0,0,0,0,0,0,0.919633333333333,0.288,0.128783333333333,-5.54942857142857,0.741571428571429,-4.21857142857143,0.0352,-1.74426,-0.23632,-0.02134,-10.044,47.59175,-17.02725,421.707333333333,1,1,1,1
24-May-2018 14:18:32,-90.4444444444444,0.59838,0.09112,-0.03558,32.855,-11.31325,-10.285,0,0,0,0,0,0,0,0,0.919633333333333,0.288,0.128783333333333,-5.54942857142857,0.741571428571429,-4.21857142857143,0.0352,-1.74426,-0.23632,-0.02134,-10.044,47.59175,-17.02725,421.707333333333,1,1,1,1
24-May-2018 14:18:33,-127,1.02756,-0.00494,0.15704,15.3164,-1.3532,0.781800000000001,349.699571428571,0,0,0,0,0,0,0,0.92385,0.264,0.143316666666667,-0.32575,-1.25125,0.41225,0.0352,-0.259483333333333,-0.0464333333333333,0.0736833333333333,-18.9171428571429,7.69171428571428,7.68271428571429,440.546,1,0.5,1,1
24-May-2018 14:18:33,-127,1.02756,-0.00494,0.15704,15.3164,-1.3532,0.781800000000001,349.699571428571,0,0,0,0,0,0,0,0.92385,0.264,0.143316666666667,-0.32575,-1.25125,0.41225,0.0352,-0.259483333333333,-0.0464333333333333,0.0736833333333333,-18.9171428571429,7.69171428571428,7.68271428571429,440.546,1,0.5,1,1
24-May-2018 14:18:33,-127,1.02756,-0.00494,0.15704,15.3164,-1.3532,0.781800000000001,349.699571428571,0,0,0,0,0,0,0,0.92385,0.264,0.143316666666667,-0.32575,-1.25125,0.41225,0.0352,-0.259483333333333,-0.0464333333333333,0.0736833333333333,-18.9171428571429,7.69171428571428,7.68271428571429,440.546,1,0.5,1,1
24-May-2018 14:18:33,-127,1.02756,-0.00494,0.15704,15.3164,-1.3532,0.781800000000001,349.699571428571,0,0,0,0,0,0,0,0.92385,0.264,0.143316666666667,-0.32575,-1.25125,0.41225,0.0352,-0.259483333333333,-0.0464333333333333,0.0736833333333333,-18.9171428571429,7.69171428571428,7.68271428571429,440.546,1,0.5,1,1
24-May-2018 14:18:34,-43.1111111111111,0.72046,0.06496,0.03396,-0.909800000000001,0.6242,4.8198,358.29575,0,0,0,0,0,0,0,0.930771428571428,0.259557142857143,0.130185714285714,0.662166666666667,-2.12,1.09766666666667,0.0352,-1.00361666666667,-0.2465,0.0133333333333333,31.9513333333333,30.813,19.004,432.751571428571,1,0,1,1
24-May-2018 14:18:34,-43.1111111111111,0.72046,0.06496,0.03396,-0.909800000000001,0.6242,4.8198,358.29575,0,0,0,0,0,0,0,0.930771428571428,0.259557142857143,0.130185714285714,0.662166666666667,-2.12,1.09766666666667,0.0352,-1.00361666666667,-0.2465,0.0133333333333333,31.9513333333333,30.813,19.004,432.751571428571,1,0,1,1
24-May-2018 14:18:34,-43.1111111111111,0.72046,0.06496,0.03396,-0.909800000000001,0.6242,4.8198,358.29575,0,0,0,0,0,0,0,0.930771428571428,0.259557142857143,0.130185714285714,0.662166666666667,-2.12,1.09766666666667,0.0352,-1.00361666666667,-0.2465,0.0133333333333333,31.9513333333333,30.813,19.004,432.751571428571,1,0,1,1
24-May-2018 14:18:34,-43.1111111111111,0.72046,0.06496,0.03396,-0.909800000000001,0.6242,4.8198,358.29575,0,0,0,0,0,0,0,0.930771428571428,0.259557142857143,0.130185714285714,0.662166666666667,-2.12,1.09766666666667,0.0352,-1.00361666666667,-0.2465,0.0133333333333333,31.9513333333333,30.813,19.004,432.751571428571,1,0,1,1
24-May-2018 14:18:35,8.8,1.08066,-0.01564,0.19364,-30.4714285714286,-11.2085714285714,-6.47342857142857,353.2795,0,0,0,0,0,0,0,0.927233333333333,0.2681,0.0716333333333333,5.52185714285714,-2.57485714285714,-2.07557142857143,0.0352,-1.00434,-0.15452,0.07012,-4.878,5.95828571428571,-4.69514285714286,454.136333333333,1,0,1,1
24-May-2018 14:18:35,8.8,1.08066,-0.01564,0.19364,-30.4714285714286,-11.2085714285714,-6.47342857142857,353.2795,0,0,0,0,0,0,0,0.927233333333333,0.2681,0.0716333333333333,5.52185714285714,-2.57485714285714,-2.07557142857143,0.0352,-1.00434,-0.15452,0.07012,-4.878,5.95828571428571,-4.69514285714286,454.136333333333,1,0,1,1
24-May-2018 14:18:35,8.8,1.08066,-0.01564,0.19364,-30.4714285714286,-11.2085714285714,-6.47342857142857,353.2795,0,0,0,0,0,0,0,0.927233333333333,0.2681,0.0716333333333333,5.52185714285714,-2.57485714285714,-2.07557142857143,0.0352,-1.00434,-0.15452,0.07012,-4.878,5.95828571428571,-4.69514285714286,454.136333333333,1,0,1,1
24-May-2018 14:18:35,8.8,1.08066,-0.01564,0.19364,-30.4714285714286,-11.2085714285714,-6.47342857142857,353.2795,0,0,0,0,0,0,0,0.927233333333333,0.2681,0.0716333333333333,5.52185714285714,-2.57485714285714,-2.07557142857143,0.0352,-1.00434,-0.15452,0.07012,-4.878,5.95828571428571,-4.69514285714286,454.136333333333,1,0,1,1
24-May-2018 14:18:36,256,0.942833333333333,0.0276666666666667,-0.0290166666666667,-2.88675,3.499,3.489,328.3855,0,0,0,0,0,0,0,0.9134,0.29145,0.106633333333333,57.7315714285714,22.7728571428571,2.82257142857143,0.022,-0.939033333333333,-0.0961333333333333,0.0528333333333333,-5.8778,-0.8292,-4.939,447.8952,1,0,1,1
24-May-2018 14:18:36,256,0.942833333333333,0.0276666666666667,-0.0290166666666667,-2.88675,3.499,3.489,328.3855,0,0,0,0,0,0,0,0.9134,0.29145,0.106633333333333,57.7315714285714,22.7728571428571,2.82257142857143,0.022,-0.939033333333333,-0.0961333333333333,0.0528333333333333,-5.8778,-0.8292,-4.939,447.8952,1,0,1,1
24-May-2018 14:18:36,256,0.942833333333333,0.0276666666666667,-0.0290166666666667,-2.88675,3.499,3.489,328.3855,0,0,0,0,0,0,0,0.9134,0.29145,0.106633333333333,57.7315714285714,22.7728571428571,2.82257142857143,0.022,-0.939033333333333,-0.0961333333333333,0.0528333333333333,-5.8778,-0.8292,-4.939,447.8952,1,0,1,1
24-May-2018 14:18:36,256,0.942833333333333,0.0276666666666667,-0.0290166666666667,-2.88675,3.499,3.489,328.3855,0,0,0,0,0,0,0,0.9134,0.29145,0.106633333333333,57.7315714285714,22.7728571428571,2.82257142857143,0.022,-0.939033333333333,-0.0961333333333333,0.0528333333333333,-5.8778,-0.8292,-4.939,447.8952,1,0,1,1
24-May-2018 14:18:37,303.8,0.9457,0.0318833333333333,-0.00488333333333333,29.8042857142857,-2.91271428571429,-1.30285714285714,318.139,0,0,0,0,0,0,0,0.9394125,0.212175,0.1453125,28.452,3.0615,3.88166666666667,0.022,-0.97912,-0.16528,0.0534,-54.305,-0.4878,7.2804,467.455333333333,1,0,1,1
24-May-2018 14:18:37,303.8,0.9457,0.0318833333333333,-0.00488333333333333,29.8042857142857,-2.91271428571429,-1.30285714285714,318.139,0,0,0,0,0,0,0,0.9394125,0.212175,0.1453125,28.452,3.0615,3.88166666666667,0.022,-0.97912,-0.16528,0.0534,-54.305,-0.4878,7.2804,467.455333333333,1,0,1,1
24-May-2018 14:18:37,303.8,0.9457,0.0318833333333333,-0.00488333333333333,29.8042857142857,-2.91271428571429,-1.30285714285714,318.139,0,0,0,0,0,0,0,0.9394125,0.212175,0.1453125,28.452,3.0615,3.88166666666667,0.022,-0.97912,-0.16528,0.0534,-54.305,-0.4878,7.2804,467.455333333333,1,0,1,1
24-May-2018 14:18:37,303.8,0.9457,0.0318833333333333,-0.00488333333333333,29.8042857142857,-2.91271428571429,-1.30285714285714,318.139,0,0,0,0,0,0,0,0.9394125,0.212175,0.1453125,28.452,3.0615,3.88166666666667,0.022,-0.97912,-0.16528,0.0534,-54.305,-0.4878,7.2804,467.455333333333,1,0,1,1
24-May-2018 14:18:38,190,0.959275,0.045875,0.002325,29.5796666666667,4.38983333333333,-2.152,361.221666666667,0,0,0,0,0,0,0,0.94834,0.17526,0.05346,5.97485714285714,-1.28514285714286,0.453571428571428,0.022,-0.958228571428571,-0.145042857142857,0.0071,-32.061,-22.8414,-0.646599999999999,492.4034,1,0,1,1
24-May-2018 14:18:38,190,0.959275,0.045875,0.002325,29.5796666666667,4.38983333333333,-2.152,361.221666666667,0,0,0,0,0,0,0,0.94834,0.17526,0.05346,5.97485714285714,-1.28514285714286,0.453571428571428,0.022,-0.958228571428571,-0.145042857142857,0.0071,-32.061,-22.8414,-0.646599999999999,492.4034,1,0,1,1
24-May-2018 14:18:38,190,0.959275,0.045875,0.002325,29.5796666666667,4.38983333333333,-2.152,361.221666666667,0,0,0,0,0,0,0,0.94834,0.17526,0.05346,5.97485714285714,-1.28514285714286,0.453571428571428,0.022,-0.958228571428571,-0.145042857142857,0.0071,-32.061,-22.8414,-0.646599999999999,492.4034,1,0,1,1
24-May-2018 14:18:38,190,0.959275,0.045875,0.002325,29.5796666666667,4.38983333333333,-2.152,361.221666666667,0,0,0,0,0,0,0,0.94834,0.17526,0.05346,5.97485714285714,-1.28514285714286,0.453571428571428,0.022,-0.958228571428571,-0.145042857142857,0.0071,-32.061,-22.8414,-0.646599999999999,492.4034,1,0,1,1
24-May-2018 14:18:39,192.444444444444,0.953242857142857,0.0263,-0.0327714285714286,20.1797142857143,-2.58371428571429,1.37185714285714,387.2165,0,0,0,0,0,0,0,0.944166666666667,0.19245,0.0396666666666667,-0.709166666666667,-1.73166666666667,-0.2815,0.022,-0.93278,0.039,0.07072,8.136,4.79957142857143,0.235285714285714,476.986,1,0,1,1
24-May-2018 14:18:39,192.444444444444,0.953242857142857,0.0263,-0.0327714285714286,20.1797142857143,-2.58371428571429,1.37185714285714,387.2165,0,0,0,0,0,0,0,0.944166666666667,0.19245,0.0396666666666667,-0.709166666666667,-1.73166666666667,-0.2815,0.022,-0.93278,0.039,0.07072,8.136,4.79957142857143,0.235285714285714,476.986,1,0,1,1
24-May-2018 14:18:39,192.444444444444,0.953242857142857,0.0263,-0.0327714285714286,20.1797142857143,-2.58371428571429,1.37185714285714,387.2165,0,0,0,0,0,0,0,0.944166666666667,0.19245,0.0396666666666667,-0.709166666666667,-1.73166666666667,-0.2815,0.022,-0.93278,0.039,0.07072,8.136,4.79957142857143,0.235285714285714,476.986,1,0,1,1
24-May-2018 14:18:39,192.444444444444,0.953242857142857,0.0263,-0.0327714285714286,20.1797142857143,-2.58371428571429,1.37185714285714,387.2165,0,0,0,0,0,0,0,0.944166666666667,0.19245,0.0396666666666667,-0.709166666666667,-1.73166666666667,-0.2815,0.022,-0.93278,0.039,0.07072,8.136,4.79957142857143,0.235285714285714,476.986,1,0,1,1
24-May-2018 14:18:40,109.2,0.9474,0.0459714285714286,-0.0745,-37.8961111111111,2.31133333333333,-3.97066666666667,378.233,0,0,0,0,0,0,0,0.94505,0.187566666666667,0.0143333333333333,-6.20666666666667,-6.2055,-1.75333333333333,0.022,-0.919,-0.113225,0.04415,79.5732,6.5364,-14.0364,459.66075,1,0,1,1
24-May-2018 14:18:40,109.2,0.9474,0.0459714285714286,-0.0745,-37.8961111111111,2.31133333333333,-3.97066666666667,378.233,0,0,0,0,0,0,0,0.94505,0.187566666666667,0.0143333333333333,-6.20666666666667,-6.2055,-1.75333333333333,0.022,-0.919,-0.113225,0.04415,79.5732,6.5364,-14.0364,459.66075,1,0,1,1
24-May-2018 14:18:40,109.2,0.9474,0.0459714285714286,-0.0745,-37.8961111111111,2.31133333333333,-3.97066666666667,378.233,0,0,0,0,0,0,0,0.94505,0.187566666666667,0.0143333333333333,-6.20666666666667,-6.2055,-1.75333333333333,0.022,-0.919,-0.113225,0.04415,79.5732,6.5364,-14.0364,459.66075,1,0,1,1
24-May-2018 14:18:40,109.2,0.9474,0.0459714285714286,-0.0745,-37.8961111111111,2.31133333333333,-3.97066666666667,378.233,0,0,0,0,0,0,0,0.94505,0.187566666666667,0.0143333333333333,-6.20666666666667,-6.2055,-1.75333333333333,0.022,-0.919,-0.113225,0.04415,79.5732,6.5364,-14.0364,459.66075,1,0,1,1
24-May-2018 14:18:41,-92.1,0.9378375,0.1733125,0.0676,-67.5571428571428,-9.98142857142857,5.14714285714286,378.233,0,0,0,0,0,0,0,0.9188,0.246033333333333,0.0252666666666667,-14.7556,2.7356,1.6348,0.022,-0.805942857142857,-0.375814285714286,0.268114285714286,53.7928,2.805,-37.805,467.0946,1,0,1,1
24-May-2018 14:18:41,-92.1,0.9378375,0.1733125,0.0676,-67.5571428571428,-9.98142857142857,5.14714285714286,378.233,0,0,0,0,0,0,0,0.9188,0.246033333333333,0.0252666666666667,-14.7556,2.7356,1.6348,0.022,-0.805942857142857,-0.375814285714286,0.268114285714286,53.7928,2.805,-37.805,467.0946,1,0,1,1
24-May-2018 14:18:41,-92.1,0.9378375,0.1733125,0.0676,-67.5571428571428,-9.98142857142857,5.14714285714286,378.233,0,0,0,0,0,0,0,0.9188,0.246033333333333,0.0252666666666667,-14.7556,2.7356,1.6348,0.022,-0.805942857142857,-0.375814285714286,0.268114285714286,53.7928,2.805,-37.805,467.0946,1,0,1,1
24-May-2018 14:18:41,-92.1,0.9378375,0.1733125,0.0676,-67.5571428571428,-9.98142857142857,5.14714285714286,0,0,0,0,0,0,0,0,0.9188,0.246033333333333,0.0252666666666667,-14.7556,2.7356,1.6348,0.022,-0.805942857142857,-0.375814285714286,0.268114285714286,53.7928,2.805,-37.805,467.0946,1,0,1,1
24-May-2018 14:18:42,-73.6666666666667,0.942514285714286,-0.00134285714285715,0.0256571428571429,-4.98875,-7.42625,-0.0331249999999996,164.813,0,0,0,0,0,0,0,0.930566666666667,0.263166666666667,0.13635,4.7555,4.66583333333333,-1.68383333333333,0.022,-0.23805,-0.734616666666667,0.541333333333333,-73.8386666666667,-32.8148333333333,-16.0875,549.0605,1,0,1,1
24-May-2018 14:18:42,-73.6666666666667,0.942514285714286,-0.00134285714285715,0.0256571428571429,-4.98875,-7.42625,-0.0331249999999996,164.813,0,0,0,0,0,0,0,0.930566666666667,0.263166666666667,0.13635,4.7555,4.66583333333333,-1.68383333333333,0.022,-0.23805,-0.734616666666667,0.541333333333333,-73.8386666666667,-32.8148333333333,-16.0875,549.0605,1,0,1,1
24-May-2018 14:18:42,-73.6666666666667,0.942514285714286,-0.00134285714285715,0.0256571428571429,-4.98875,-7.42625,-0.0331249999999996,164.813,0,0,0,0,0,0,0,0.930566666666667,0.263166666666667,0.13635,4.7555,4.66583333333333,-1.68383333333333,0.022,-0.23805,-0.734616666666667,0.541333333333333,-73.8386666666667,-32.8148333333333,-16.0875,549.0605,1,0,1,1
24-May-2018 14:18:42,-73.6666666666667,0.942514285714286,-0.00134285714285715,0.0256571428571429,-4.98875,-7.42625,-0.0331249999999996,164.813,0,0,0,0,0,0,0,0.930566666666667,0.263166666666667,0.13635,4.7555,4.66583333333333,-1.68383333333333,0.022,-0.23805,-0.734616666666667,0.541333333333333,-73.8386666666667,-32.8148333333333,-16.0875,549.0605,1,0,1,1
24-May-2018 14:18:43,-136.111111111111,0.95258,0.04652,-0.09276,-2.0575,-3.62466666666667,-1.62266666666667,184.768333333333,0,0,0,0,0,0,0,0.926028571428571,0.265885714285714,0.139842857142857,-0.0171666666666667,-0.141333333333333,-0.231333333333333,0.022,0.04524,-0.65002,0.77254,4.904,-0.400714285714286,-1.79442857142857,502.023,1,0,1,1
24-May-2018 14:18:43,-136.111111111111,0.95258,0.04652,-0.09276,-2.0575,-3.62466666666667,-1.62266666666667,184.768333333333,0,0,0,0,0,0,0,0.926028571428571,0.265885714285714,0.139842857142857,-0.0171666666666667,-0.141333333333333,-0.231333333333333,0.022,0.04524,-0.65002,0.77254,4.904,-0.400714285714286,-1.79442857142857,502.023,1,0,1,1
24-May-2018 14:18:43,-136.111111111111,0.95258,0.04652,-0.09276,-2.0575,-3.62466666666667,-1.62266666666667,184.768333333333,0,0,0,0,0,0,0,0.926028571428571,0.265885714285714,0.139842857142857,-0.0171666666666667,-0.141333333333333,-0.231333333333333,0.022,0.04524,-0.65002,0.77254,4.904,-0.400714285714286,-1.79442857142857,502.023,1,0,1,1
24-May-2018 14:18:43,-136.111111111111,0.95258,0.04652,-0.09276,-2.0575,-3.62466666666667,-1.62266666666667,184.768333333333,0,0,0,0,0,0,0,0.926028571428571,0.265885714285714,0.139842857142857,-0.0171666666666667,-0.141333333333333,-0.231333333333333,0.022,0.04524,-0.65002,0.77254,4.904,-0.400714285714286,-1.79442857142857,502.023,1,0,1,1
24-May-2018 14:18:44,-22,0.9565,0.0716,-0.0692,1.037,0.061,-0.61,201.245,0,0,0,0,0,0,0,0.91875,0.28515,0.1391,-4.32,-2.62,2.317,0.022,0.0532,-0.6031,0.809,6.89,3.933,-2.2255,464.403,1,0,1,1
24-May-2018 14:18:44,-22,0.9565,0.0716,-0.0692,1.037,0.061,-0.61,201.245,0,0,0,0,0,0,0,0.91875,0.28515,0.1391,-4.32,-2.62,2.317,0.022,0.0532,-0.6031,0.809,6.89,3.933,-2.2255,464.403,1,0,1,1
24-May-2018 14:18:44,-22,0.9565,0.0716,-0.0692,1.037,0.061,-0.61,201.245,0,0,0,0,0,0,0,0.91875,0.28515,0.1391,-4.32,-2.62,2.317,0.022,0.0532,-0.6031,0.809,6.89,3.933,-2.2255,464.403,1,0,1,1
24-May-2018 14:18:44,-22,0.9565,0.0716,-0.0692,1.037,0.061,-0.61,201.245,0,0,0,0,0,0,0,0.91875,0.28515,0.1391,-4.32,-2.62,2.317,0.022,0.0532,-0.6031,0.809,6.89,3.933,-2.2255,464.403,1,0,1,1
24-May-2018 14:18:45,-92.8888888888889,0.95286,0.08974,-0.08824,2.28625,-0.13625,-0.5895,196.088,0,0,0,0,0,0,0,0.94914,0.38146,-0.128,50.2396666666667,13.6835,-12.698,0.022,0.02928,-0.64396,0.80172,-11.3534,7.4632,17.561,450.915,1,0,1,0
24-May-2018 14:18:45,-92.8888888888889,0.95286,0.08974,-0.08824,2.28625,-0.13625,-0.5895,196.088,0,0,0,0,0,0,0,0.94914,0.38146,-0.128,50.2396666666667,13.6835,-12.698,0.022,0.02928,-0.64396,0.80172,-11.3534,7.4632,17.561,450.915,1,0,1,0
24-May-2018 14:18:45,-92.8888888888889,0.95286,0.08974,-0.08824,2.28625,-0.13625,-0.5895,196.088,0,0,0,0,0,0,0,0.94914,0.38146,-0.128,50.2396666666667,13.6835,-12.698,0.022,0.02928,-0.64396,0.80172,-11.3534,7.4632,17.561,450.915,1,0,1,0
24-May-2018 14:18:45,-92.8888888888889,0.95286,0.08974,-0.08824,2.28625,-0.13625,-0.5895,196.088,0,0,0,0,0,0,0,0.94914,0.38146,-0.128,50.2396666666667,13.6835,-12.698,0.022,0.02928,-0.64396,0.80172,-11.3534,7.4632,17.561,450.915,1,0,1,0
24-May-2018 14:18:46,-114,0.952433333333333,0.0999166666666667,-0.0957666666666667,1.50885714285714,-0.283857142857143,-0.511,195.67075,0,0,0,0,0,0,0,0.517016666666667,0.0990666666666667,0.1149,117.02,-38.5216666666667,14.6693333333333,0.022,-0.12932,-0.51812,0.87926,10.2336666666667,11.372,8.91283333333333,450.395,1,0.5,1,0
24-May-2018 14:18:46,-114,0.952433333333333,0.0999166666666667,-0.0957666666666667,1.50885714285714,-0.283857142857143,-0.511,195.67075,0,0,0,0,0,0,0,0.517016666666667,0.0990666666666667,0.1149,117.02,-38.5216666666667,14.6693333333333,0.022,-0.12932,-0.51812,0.87926,10.2336666666667,11.372,8.91283333333333,450.395,1,0.5,1,0
24-May-2018 14:18:46,-114,0.952433333333333,0.0999166666666667,-0.0957666666666667,1.50885714285714,-0.283857142857143,-0.511,195.67075,0,0,0,0,0,0,0,0.517016666666667,0.0990666666666667,0.1149,117.02,-38.5216666666667,14.6693333333333,0.022,-0.12932,-0.51812,0.87926,10.2336666666667,11.372,8.91283333333333,450.395,1,0.5,1,0
24-May-2018 14:18:46,-114,0.952433333333333,0.0999166666666667,-0.0957666666666667,1.50885714285714,-0.283857142857143,-0.511,195.67075,0,0,0,0,0,0,0,0.517016666666667,0.0990666666666667,0.1149,117.02,-38.5216666666667,14.6693333333333,0.022,-0.12932,-0.51812,0.87926,10.2336666666667,11.372,8.91283333333333,450.395,1,0.5,1,0
24-May-2018 14:18:47,-84.8888888888889,0.9522,0.0973333333333333,-0.0602666666666667,5.77342857142857,9.23185714285714,1.09014285714286,195.71625,0,0,0,0,0,0,0,0.935916666666667,0.199866666666667,0.360866666666667,119.117142857143,-34.917,25.904,0.022,-0.758916666666667,-0.362316666666667,0.395,-38.4131666666667,30.935,38.1706666666667,442.03,1,1,1,0
24-May-2018 14:18:47,-84.8888888888889,0.9522,0.0973333333333333,-0.0602666666666667,5.77342857142857,9.23185714285714,1.09014285714286,195.71625,0,0,0,0,0,0,0,0.935916666666667,0.199866666666667,0.360866666666667,119.117142857143,-34.917,25.904,0.022,-0.758916666666667,-0.362316666666667,0.395,-38.4131666666667,30.935,38.1706666666667,442.03,1,1,1,0
24-May-2018 14:18:47,-84.8888888888889,0.9522,0.0973333333333333,-0.0602666666666667,5.77342857142857,9.23185714285714,1.09014285714286,195.71625,0,0,0,0,0,0,0,0.935916666666667,0.199866666666667,0.360866666666667,119.117142857143,-34.917,25.904,0.022,-0.758916666666667,-0.362316666666667,0.395,-38.4131666666667,30.935,38.1706666666667,442.03,1,1,1,0
24-May-2018 14:18:47,-84.8888888888889,0.9522,0.0973333333333333,-0.0602666666666667,5.77342857142857,9.23185714285714,1.09014285714286,195.71625,0,0,0,0,0,0,0,0.935916666666667,0.199866666666667,0.360866666666667,119.117142857143,-34.917,25.904,0.022,-0.758916666666667,-0.362316666666667,0.395,-38.4131666666667,30.935,38.1706666666667,442.03,1,1,1,0
24-May-2018 14:18:48,150.333333333333,0.9824,0.06415,0.1209,83.105,26.4,11.491,195.71625,0,0,0,0,0,0,0,-0.07505,-0.00949999999999999,0.1141,-64.8,37.01,24.75,0.022,-0.8678,-0.2123,0.1758,-82.5,7.805,19.817,392.559,1,1,1,0
24-May-2018 14:18:48,150.333333333333,0.9824,0.06415,0.1209,83.105,26.4,11.491,195.71625,0,0,0,0,0,0,0,-0.07505,-0.00949999999999999,0.1141,-64.8,37.01,24.75,0.022,-0.8678,-0.2123,0.1758,-82.5,7.805,19.817,392.559,1,1,1,0
24-May-2018 14:18:48,150.333333333333,0.9824,0.06415,0.1209,83.105,26.4,11.491,195.71625,0,0,0,0,0,0,0,-0.07505,-0.00949999999999999,0.1141,-64.8,37.01,24.75,0.022,-0.8678,-0.2123,0.1758,-82.5,7.805,19.817,392.559,1,1,1,0
24-May-2018 14:18:48,150.333333333333,0.9824,0.06415,0.1209,83.105,26.4,11.491,0,0,0,0,0,0,0,0,-0.07505,-0.00949999999999999,0.1141,-64.8,37.01,24.75,0.022,-0.8678,-0.2123,0.1758,-82.5,7.805,19.817,392.559,1,1,1,0
24-May-2018 14:18:49,121.833333333333,0.95754,-0.0025,0.05832,62.776,-10.9956,3.5016,228.807333333333,0,0,0,0,0,0,0,0.77985,0.527916666666667,0.03415,85.205,-14.825,41.6725,0.022,-1.01841666666667,0.0692666666666667,0.291616666666667,-24.5528333333333,7.6625,-17.6321666666667,487.269,1,0,1,0
24-May-2018 14:18:49,121.833333333333,0.95754,-0.0025,0.05832,62.776,-10.9956,3.5016,228.807333333333,0,0,0,0,0,0,0,0.77985,0.527916666666667,0.03415,85.205,-14.825,41.6725,0.022,-1.01841666666667,0.0692666666666667,0.291616666666667,-24.5528333333333,7.6625,-17.6321666666667,487.269,1,0,1,0
24-May-2018 14:18:49,121.833333333333,0.95754,-0.0025,0.05832,62.776,-10.9956,3.5016,228.807333333333,0,0,0,0,0,0,0,0.77985,0.527916666666667,0.03415,85.205,-14.825,41.6725,0.022,-1.01841666666667,0.0692666666666667,0.291616666666667,-24.5528333333333,7.6625,-17.6321666666667,487.269,1,0,1,0
24-May-2018 14:18:49,121.833333333333,0.95754,-0.0025,0.05832,62.776,-10.9956,3.5016,228.807333333333,0,0,0,0,0,0,0,0.77985,0.527916666666667,0.03415,85.205,-14.825,41.6725,0,-1.01841666666667,0.0692666666666667,0.291616666666667,-24.5528333333333,7.6625,-17.6321666666667,487.269,1,0,1,0
24-May-2018 14:18:50,93.4444444444444,0.95956,0.02008,-0.02968,21.0718,-3.9402,-3.142,384.787333333333,0,0,0,0,0,0,0,1.03192,0.75302,-0.13582,-71.542,-0.748000000000002,-14.595,0.0386666666666667,-0.94296,-0.18138,0.09836,-11.5976,-2.2806,2.9756,524.9616,1,0,1,1
24-May-2018 14:18:50,93.4444444444444,0.95956,0.02008,-0.02968,21.0718,-3.9402,-3.142,384.787333333333,0,0,0,0,0,0,0,1.03192,0.75302,-0.13582,-71.542,-0.748000000000002,-14.595,0.0386666666666667,-0.94296,-0.18138,0.09836,-11.5976,-2.2806,2.9756,524.9616,1,0,1,1
24-May-2018 14:18:50,93.4444444444444,0.95956,0.02008,-0.02968,21.0718,-3.9402,-3.142,384.787333333333,0,0,0,0,0,0,0,1.03192,0.75302,-0.13582,-71.542,-0.748000000000002,-14.595,0.0386666666666667,-0.94296,-0.18138,0.09836,-11.5976,-2.2806,2.9756,524.9616,1,0,1,1
24-May-2018 14:18:50,93.4444444444444,0.95956,0.02008,-0.02968,21.0718,-3.9402,-3.142,384.787333333333,0,0,0,0,0,0,0,1.03192,0.75302,-0.13582,-71.542,-0.748000000000002,-14.595,0.0386666666666667,-0.94296,-0.18138,0.09836,-11.5976,-2.2806,2.9756,524.9616,1,0,1,1
24-May-2018 14:18:51,89,0.9603,0.0419428571428571,0.00425714285714286,7.70042857142857,1.55142857142857,-0.415142857142857,392.599333333333,0,0,0,0,0,0,0,0.7887375,0.4090375,-0.1111,-35.2921666666667,-18.8783333333333,-19.7435,0.116,-0.9349,-0.18545,0.09875,3.78042857142857,-0.374428571428571,-0.54,508.355333333333,1,0,1,1
24-May-2018 14:18:51,89,0.9603,0.0419428571428571,0.00425714285714286,7.70042857142857,1.55142857142857,-0.415142857142857,392.599333333333,0,0,0,0,0,0,0,0.7887375,0.4090375,-0.1111,-35.2921666666667,-18.8783333333333,-19.7435,0.116,-0.9349,-0.18545,0.09875,3.78042857142857,-0.374428571428571,-0.54,508.355333333333,1,0,1,1
24-May-2018 14:18:51,89,0.9603,0.0419428571428571,0.00425714285714286,7.70042857142857,1.55142857142857,-0.415142857142857,392.599333333333,0,0,0,0,0,0,0,0.7887375,0.4090375,-0.1111,-35.2921666666667,-18.8783333333333,-19.7435,0.116,-0.9349,-0.18545,0.09875,3.78042857142857,-0.374428571428571,-0.54,508.355333333333,1,0,1,1
24-May-2018 14:18:51,89,0.9603,0.0419428571428571,0.00425714285714286,7.70042857142857,1.55142857142857,-0.415142857142857,392.599333333333,0,0,0,0,0,0,0,0.7887375,0.4090375,-0.1111,-35.2921666666667,-18.8783333333333,-19.7435,0.116,-0.9349,-0.18545,0.09875,3.78042857142857,-0.374428571428571,-0.54,508.355333333333,1,0,1,1
24-May-2018 14:18:52,96.4,0.9612375,0.0354125,0.0146375,0.0452857142857143,0.437142857142857,0.157714285714286,397.3765,0,0,0,0,0,0,0,0.45765,0.0640833333333333,-0.176166666666667,-8.00833333333333,-21.6866666666667,-23.4066666666667,0.116,-0.93165,-0.177733333333333,0.10305,-0.2438,1.0002,-0.7804,521.2254,1,0,1,1
24-May-2018 14:18:52,96.4,0.9612375,0.0354125,0.0146375,0.0452857142857143,0.437142857142857,0.157714285714286,397.3765,0,0,0,0,0,0,0,0.45765,0.0640833333333333,-0.176166666666667,-8.00833333333333,-21.6866666666667,-23.4066666666667,0.116,-0.93165,-0.177733333333333,0.10305,-0.2438,1.0002,-0.7804,521.2254,1,0,1,1
24-May-2018 14:18:52,96.4,0.9612375,0.0354125,0.0146375,0.0452857142857143,0.437142857142857,0.157714285714286,397.3765,0,0,0,0,0,0,0,0.45765,0.0640833333333333,-0.176166666666667,-8.00833333333333,-21.6866666666667,-23.4066666666667,0.116,-0.93165,-0.177733333333333,0.10305,-0.2438,1.0002,-0.7804,521.2254,1,0,1,1
24-May-2018 14:18:52,96.4,0.9612375,0.0354125,0.0146375,0.0452857142857143,0.437142857142857,0.157714285714286,397.3765,0,0,0,0,0,0,0,0.45765,0.0640833333333333,-0.176166666666667,-8.00833333333333,-21.6866666666667,-23.4066666666667,0.116,-0.93165,-0.177733333333333,0.10305,-0.2438,1.0002,-0.7804,521.2254,1,0,1,1
24-May-2018 14:18:53,97.7777777777778,0.958633333333333,0.0362888888888889,0.0208555555555556,1.71588888888889,0.502444444444444,0.765777777777778,397.3765,0,0,0,0,0,0,0,0.8758,0.120383333333333,-0.036,34.0208571428571,4.65285714285715,9.14857142857143,0.116,-0.95084,-0.20026,0.071,28.811,4.344625,1.547375,498.3385,1,0,1,1
24-May-2018 14:18:53,97.7777777777778,0.958633333333333,0.0362888888888889,0.0208555555555556,1.71588888888889,0.502444444444444,0.765777777777778,397.3765,0,0,0,0,0,0,0,0.8758,0.120383333333333,-0.036,34.0208571428571,4.65285714285715,9.14857142857143,0.116,-0.95084,-0.20026,0.071,28.811,4.344625,1.547375,498.3385,1,0,1,1
24-May-2018 14:18:53,97.7777777777778,0.958633333333333,0.0362888888888889,0.0208555555555556,1.71588888888889,0.502444444444444,0.765777777777778,397.3765,0,0,0,0,0,0,0,0.8758,0.120383333333333,-0.036,34.0208571428571,4.65285714285715,9.14857142857143,0.116,-0.95084,-0.20026,0.071,28.811,4.344625,1.547375,498.3385,1,0,1,1
24-May-2018 14:18:53,97.7777777777778,0.958633333333333,0.0362888888888889,0.0208555555555556,1.71588888888889,0.502444444444444,0.765777777777778,397.3765,0,0,0,0,0,0,0,0.8758,0.120383333333333,-0.036,34.0208571428571,4.65285714285715,9.14857142857143,0.116,-0.95084,-0.20026,0.071,28.811,4.344625,1.547375,498.3385,1,0,1,1
24-May-2018 14:18:54,46.6,0.9650875,0.0585625,0.0213875,-16.6818888888889,-0.776444444444444,-0.431777777777778,397.3765,0,0,0,0,0,0,0,0.050925,-0.042425,-0.021525,-49.5,6.771125,-15.1375,0.116,-0.915375,-0.11815,0.10735,-2.744,1.1098,4.1462,512.28175,1,0,1,1
24-May-2018 14:18:54,46.6,0.9650875,0.0585625,0.0213875,-16.6818888888889,-0.776444444444444,-0.431777777777778,397.3765,0,0,0,0,0,0,0,0.050925,-0.042425,-0.021525,-49.5,6.771125,-15.1375,0.116,-0.915375,-0.11815,0.10735,-2.744,1.1098,4.1462,512.28175,1,0,1,1
24-May-2018 14:18:54,46.6,0.9650875,0.0585625,0.0213875,-16.6818888888889,-0.776444444444444,-0.431777777777778,0,0,0,0,0,0,0,0,0.050925,-0.042425,-0.021525,-49.5,6.771125,-15.1375,0.116,-0.915375,-0.11815,0.10735,-2.744,1.1098,4.1462,512.28175,1,0,1,1
24-May-2018 14:18:54,46.6,0.9650875,0.0585625,0.0213875,-16.6818888888889,-0.776444444444444,-0.431777777777778,0,0,0,0,0,0,0,0,0.050925,-0.042425,-0.021525,-49.5,6.771125,-15.1375,0.116,-0.915375,-0.11815,0.10735,-2.744,1.1098,4.1462,512.28175,1,0,1,1
24-May-2018 14:18:55,45.4444444444444,0.961933333333333,0.0529666666666667,0.0422166666666667,7.6965,2.5795,0.50425,395.1634,0,0,0,0,0,0,0,0.924766666666667,0.4821,-0.188683333333333,35.26,11.3404,-9.932,0.116,-0.938357142857143,-0.125357142857143,0.119528571428571,0.358125,1.4635,0.0761250000000001,507.810666666667,1,0,1,1
24-May-2018 14:18:55,45.4444444444444,0.961933333333333,0.0529666666666667,0.0422166666666667,7.6965,2.5795,0.50425,395.1634,0,0,0,0,0,0,0,0.924766666666667,0.4821,-0.188683333333333,35.26,11.3404,-9.932,0.116,-0.938357142857143,-0.125357142857143,0.119528571428571,0.358125,1.4635,0.0761250000000001,507.810666666667,1,0,1,1
24-May-2018 14:18:55,45.4444444444444,0.961933333333333,0.0529666666666667,0.0422166666666667,7.6965,2.5795,0.50425,395.1634,0,0,0,0,0,0,0,0.924766666666667,0.4821,-0.188683333333333,35.26,11.3404,-9.932,0.116,-0.938357142857143,-0.125357142857143,0.119528571428571,0.358125,1.4635,0.0761250000000001,507.810666666667,1,0,1,1
24-May-2018 14:18:55,45.4444444444444,0.961933333333333,0.0529666666666667,0.0422166666666667,7.6965,2.5795,0.50425,395.1634,0,0,0,0,0,0,0,0.924766666666667,0.4821,-0.188683333333333,35.26,11.3404,-9.932,0.116,-0.938357142857143,-0.125357142857143,0.119528571428571,0.358125,1.4635,0.0761250000000001,507.810666666667,1,0,1,1
24-May-2018 14:18:56,-79.8888888888889,0.961,0.05296,0.06744,1.01616666666667,-0.118666666666667,0.5185,410.606428571429,0,0,0,0,0,0,0,0.878366666666667,0.23605,-0.0879166666666667,-20.544625,-4.3325,-11.0415,0.116,-0.86575,-0.11905,0.0541,-31.4636,2.073,1.1464,494.6864,1,0,1,1
24-May-2018 14:18:56,-79.8888888888889,0.961,0.05296,0.06744,1.01616666666667,-0.118666666666667,0.5185,410.606428571429,0,0,0,0,0,0,0,0.878366666666667,0.23605,-0.0879166666666667,-20.544625,-4.3325,-11.0415,0.116,-0.86575,-0.11905,0.0541,-31.4636,2.073,1.1464,494.6864,1,0,1,1
24-May-2018 14:18:56,-79.8888888888889,0.961,0.05296,0.06744,1.01616666666667,-0.118666666666667,0.5185,410.606428571429,0,0,0,0,0,0,0,0.878366666666667,0.23605,-0.0879166666666667,-20.544625,-4.3325,-11.0415,0.116,-0.86575,-0.11905,0.0541,-31.4636,2.073,1.1464,494.6864,1,0,1,1
24-May-2018 14:18:56,-79.8888888888889,0.961,0.05296,0.06744,1.01616666666667,-0.118666666666667,0.5185,410.606428571429,0,0,0,0,0,0,0,0.878366666666667,0.23605,-0.0879166666666667,-20.544625,-4.3325,-11.0415,0.116,-0.86575,-0.11905,0.0541,-31.4636,2.073,1.1464,494.6864,1,0,1,1
24-May-2018 14:18:57,-9.77777777777778,0.8906,0.0201833333333333,0.0377833333333333,22.4484,0.1234,1.3788,404.104857142857,0,0,0,0,0,0,0,0.603866666666667,0.201433333333333,0.00545555555555556,20.7102,15.62,23.4318,0.116,-0.837785714285714,-0.0657285714285714,0.0111428571428571,-32.63675,-11.318625,15.251625,448.808,1,0,1,0
24-May-2018 14:18:57,-9.77777777777778,0.8906,0.0201833333333333,0.0377833333333333,22.4484,0.1234,1.3788,404.104857142857,0,0,0,0,0,0,0,0.603866666666667,0.201433333333333,0.00545555555555556,20.7102,15.62,23.4318,0.116,-0.837785714285714,-0.0657285714285714,0.0111428571428571,-32.63675,-11.318625,15.251625,448.808,1,0,1,0
24-May-2018 14:18:57,-9.77777777777778,0.8906,0.0201833333333333,0.0377833333333333,22.4484,0.1234,1.3788,404.104857142857,0,0,0,0,0,0,0,0.603866666666667,0.201433333333333,0.00545555555555556,20.7102,15.62,23.4318,0.116,-0.837785714285714,-0.0657285714285714,0.0111428571428571,-32.63675,-11.318625,15.251625,448.808,1,0,1,0
24-May-2018 14:18:57,-9.77777777777778,0.8906,0.0201833333333333,0.0377833333333333,22.4484,0.1234,1.3788,404.104857142857,0,0,0,0,0,0,0,0.603866666666667,0.201433333333333,0.00545555555555556,20.7102,15.62,23.4318,0.116,-0.837785714285714,-0.0657285714285714,0.0111428571428571,-32.63675,-11.318625,15.251625,448.808,1,0,1,0
24-May-2018 14:18:58,188.375,1.14921666666667,-0.01075,0.150983333333333,36.41875,-9.93,-2.7565,315.514,0,0,0,0,0,0,0,0.690466666666667,0.493,-0.143216666666667,-63.1014285714286,2.79428571428571,-16.3928571428571,0.116,-0.545185714285714,-0.0604,0.0628142857142857,10.3051666666667,-23.973,-5.63,527.5448,1,0,1,0
24-May-2018 14:18:58,188.375,1.14921666666667,-0.01075,0.150983333333333,36.41875,-9.93,-2.7565,315.514,0,0,0,0,0,0,0,0.690466666666667,0.493,-0.143216666666667,-63.1014285714286,2.79428571428571,-16.3928571428571,0.116,-0.545185714285714,-0.0604,0.0628142857142857,10.3051666666667,-23.973,-5.63,527.5448,1,0,1,0
24-May-2018 14:18:58,188.375,1.14921666666667,-0.01075,0.150983333333333,36.41875,-9.93,-2.7565,315.514,0,0,0,0,0,0,0,0.690466666666667,0.493,-0.143216666666667,-63.1014285714286,2.79428571428571,-16.3928571428571,0.116,-0.545185714285714,-0.0604,0.0628142857142857,10.3051666666667,-23.973,-5.63,527.5448,1,0,1,0
24-May-2018 14:18:58,188.375,1.14921666666667,-0.01075,0.150983333333333,36.41875,-9.93,-2.7565,315.514,0,0,0,0,0,0,0,0.690466666666667,0.493,-0.143216666666667,-63.1014285714286,2.79428571428571,-16.3928571428571,0.116,-0.545185714285714,-0.0604,0.0628142857142857,10.3051666666667,-23.973,-5.63,527.5448,1,0,1,0
24-May-2018 14:18:59,170.777777777778,0.576728571428571,0.0465142857142857,-0.147628571428571,13.3385714285714,-6.19142857142857,4.84857142857143,289.386,0,0,0,0,0,0,0,1.02286666666667,-0.0434666666666667,-0.226516666666667,-33.82125,4.24,4.066,0.116,-0.855425,-0.0429875,-0.0344875,6.86016666666667,9.52316666666667,-15.3661666666667,512.962,1,0,1,0
24-May-2018 14:18:59,170.777777777778,0.576728571428571,0.0465142857142857,-0.147628571428571,13.3385714285714,-6.19142857142857,4.84857142857143,289.386,0,0,0,0,0,0,0,1.02286666666667,-0.0434666666666667,-0.226516666666667,-33.82125,4.24,4.066,0.116,-0.855425,-0.0429875,-0.0344875,6.86016666666667,9.52316666666667,-15.3661666666667,512.962,1,0,1,0
24-May-2018 14:18:59,170.777777777778,0.576728571428571,0.0465142857142857,-0.147628571428571,13.3385714285714,-6.19142857142857,4.84857142857143,289.386,0,0,0,0,0,0,0,1.02286666666667,-0.0434666666666667,-0.226516666666667,-33.82125,4.24,4.066,0.116,-0.855425,-0.0429875,-0.0344875,6.86016666666667,9.52316666666667,-15.3661666666667,512.962,1,0,1,0
24-May-2018 14:18:59,170.777777777778,0.576728571428571,0.0465142857142857,-0.147628571428571,13.3385714285714,-6.19142857142857,4.84857142857143,289.386,0,0,0,0,0,0,0,1.02286666666667,-0.0434666666666667,-0.226516666666667,-33.82125,4.24,4.066,0.116,-0.855425,-0.0429875,-0.0344875,6.86016666666667,9.52316666666667,-15.3661666666667,512.962,1,0,1,0
