TIME,HELMET_RAW,BELT_ACC_X,BELT_ACC_Y,BELT_ACC_Z,BELT_ANG_X,BELT_ANG_Y,BELT_ANG_Z,BELT_LUMINOSITY,NECK_ACC_X,NECK_ACC_Y,NECK_ACC_Z,NECK_ANG_X,NECK_ANG_Y,NECK_ANG_Z,NECK_LUMINOSITY,PCKT_ACC_X,PCKT_ACC_Y,PCKT_ACC_Z,PCKT_ANG_X,PCKT_ANG_Y,PCKT_ANG_Z,PCKT_LUMINOSITY,WRST_ACC_X,WRST_ACC_Y,WRST_ACC_Z,WRST_ANG_X,WRST_ANG_Y,WRST_ANG_Z,WRST_LUMINOSITY,IR_1,IR_2,IR_3,IR_4
24-May-2018 14:17:54,-166.3,1.25924,0.03116,-0.10822,-59.8,-0.250000000000001,8.79525,339.230571428571,0,0,0,0,0,0,0,0.766675,0.24695,0.032875,6.02842857142857,-4.36857142857143,5.52,0.044,-0.71105,-0.27615,0.623016666666667,52.7088571428571,-19.9041428571429,-25.8711428571429,599.36975,1,0,1,1
24-May-2018 14:17:54,-166.3,1.25924,0.03116,-0.10822,-59.8,-0.250000000000001,8.79525,339.230571428571,0,0,0,0,0,0,0,0.766675,0.24695,0.032875,6.02842857142857,-4.36857142857143,5.52,0.044,-0.71105,-0.27615,0.623016666666667,52.7088571428571,-19.9041428571429,-25.8711428571429,599.36975,1,0,1,1
24-May-2018 14:17:54,-166.3,1.25924,0.03116,-0.10822,-59.8,-0.250000000000001,8.79525,339.230571428571,0,0,0,0,0,0,0,0.766675,0.24695,0.032875,6.02842857142857,-4.36857142857143,5.52,0.044,-0.71105,-0.27615,0.623016666666667,52.7088571428571,-19.9041428571429,-25.8711428571429,599.36975,1,0,1,1
24-May-2018 14:17:54,-166.3,1.25924,0.03116,-0.10822,-59.8,-0.250000000000001,8.79525,339.230571428571,0,0,0,0,0,0,0,0.766675,0.24695,0.032875,6.02842857142857,-4.36857142857143,5.52,0.044,-0.71105,-0.27615,0.623016666666667,52.7088571428571,-19.9041428571429,-25.8711428571429,599.36975,1,0,1,1
24-May-2018 14:17:55,-216.555555555556,0.9819,0.0911833333333333,0.0108333333333333,-88.78,1.2704,10.1442,346.85,0,0,0,0,0,0,0,0.9622,0.280828571428571,0.208128571428571,18.9414285714286,9.98714285714286,-3.87,0.044,-0.571628571428571,-0.203357142857143,0.7983,-25.7165,-11.01375,7.04275,564.902,1,0,1,0
24-May-2018 14:17:55,-216.555555555556,0.9819,0.0911833333333333,0.0108333333333333,-88.78,1.2704,10.1442,346.85,0,0,0,0,0,0,0,0.9622,0.280828571428571,0.208128571428571,18.9414285714286,9.98714285714286,-3.87,0.044,-0.571628571428571,-0.203357142857143,0.7983,-25.7165,-11.01375,7.04275,564.902,1,0,1,0
24-May-2018 14:17:55,-216.555555555556,0.9819,0.0911833333333333,0.0108333333333333,-88.78,1.2704,10.1442,346.85,0,0,0,0,0,0,0,0.9622,0.280828571428571,0.208128571428571,18.9414285714286,9.98714285714286,-3.87,0.044,-0.571628571428571,-0.203357142857143,0.7983,-25.7165,-11.01375,7.04275,564.902,1,0,1,0
24-May-2018 14:17:55,-216.555555555556,0.9819,0.0911833333333333,0.0108333333333333,-88.78,1.2704,10.1442,346.85,0,0,0,0,0,0,0,0.9622,0.280828571428571,0.208128571428571,18.9414285714286,9.98714285714286,-3.87,0.044,-0.571628571428571,-0.203357142857143,0.7983,-25.7165,-11.01375,7.04275,564.902,1,0,1,0
24-May-2018 14:17:56,-3,0.944675,0.142,-0.0038,1.21666666666667,-2.27333333333333,-3.61333333333333,414.5065,0,0,0,0,0,0,0,0.5003,0.19275,-0.121525,-31.874,35.004,-1.736,0.044,-0.11045,-0.84285,0.537925,-74.19,-30.305,-32.80475,617.369,1,0,1,0
24-May-2018 14:17:56,-3,0.944675,0.142,-0.0038,1.21666666666667,-2.27333333333333,-3.61333333333333,414.5065,0,0,0,0,0,0,0,0.5003,0.19275,-0.121525,-31.874,35.004,-1.736,0.044,-0.11045,-0.84285,0.537925,-74.19,-30.305,-32.80475,617.369,1,0,1,0
24-May-2018 14:17:56,-3,0.944675,0.142,-0.0038,1.21666666666667,-2.27333333333333,-3.61333333333333,414.5065,0,0,0,0,0,0,0,0.5003,0.19275,-0.121525,-31.874,35.004,-1.736,0.044,-0.11045,-0.84285,0.537925,-74.19,-30.305,-32.80475,617.369,1,0,1,0
24-May-2018 14:17:56,-3,0.944675,0.142,-0.0038,1.21666666666667,-2.27333333333333,-3.61333333333333,414.5065,0,0,0,0,0,0,0,0.5003,0.19275,-0.121525,-31.874,35.004,-1.736,0.044,-0.11045,-0.84285,0.537925,-74.19,-30.305,-32.80475,617.369,1,0,1,0
24-May-2018 14:17:57,148.2,0.93885,0.0834,-0.0655666666666667,61.7025,-8.51275,-2.0515,373.916666666667,0,0,0,0,0,0,0,0.68298,0.3809,-0.1152,-35.703,14.85,-9.379,0.044,0.00826,-0.69918,0.7247,4.26828571428571,2.60442857142857,-4.82571428571429,617.369,0.5,0,1,1
24-May-2018 14:17:57,148.2,0.93885,0.0834,-0.0655666666666667,61.7025,-8.51275,-2.0515,373.916666666667,0,0,0,0,0,0,0,0.68298,0.3809,-0.1152,-35.703,14.85,-9.379,0.044,0.00826,-0.69918,0.7247,4.26828571428571,2.60442857142857,-4.82571428571429,617.369,0.5,0,1,1
24-May-2018 14:17:57,148.2,0.93885,0.0834,-0.0655666666666667,61.7025,-8.51275,-2.0515,373.916666666667,0,0,0,0,0,0,0,0.68298,0.3809,-0.1152,-35.703,14.85,-9.379,0.044,0.00826,-0.69918,0.7247,4.26828571428571,2.60442857142857,-4.82571428571429,617.369,0.5,0,1,1
24-May-2018 14:17:57,148.2,0.93885,0.0834,-0.0655666666666667,61.7025,-8.51275,-2.0515,373.916666666667,0,0,0,0,0,0,0,0.68298,0.3809,-0.1152,-35.703,14.85,-9.379,0.044,0.00826,-0.69918,0.7247,4.26828571428571,2.60442857142857,-4.82571428571429,0,0.5,0,1,1
24-May-2018 14:17:58,210.2,0.9319,0.108633333333333,-0.175116666666667,-6.40214285714286,-2.23571428571429,-3.67185714285714,180.649333333333,0,0,0,0,0,0,0,0.6332875,0.0704,-0.1831,32.506,-13.602,11.636,0.044,-0.02234,-0.6968,0.73728,0.904333333333334,3.49583333333333,-0.691,514.031333333333,0,1,1,1
24-May-2018 14:17:58,210.2,0.9319,0.108633333333333,-0.175116666666667,-6.40214285714286,-2.23571428571429,-3.67185714285714,180.649333333333,0,0,0,0,0,0,0,0.6332875,0.0704,-0.1831,32.506,-13.602,11.636,0.044,-0.02234,-0.6968,0.73728,0.904333333333334,3.49583333333333,-0.691,514.031333333333,0,1,1,1
24-May-2018 14:17:58,210.2,0.9319,0.108633333333333,-0.175116666666667,-6.40214285714286,-2.23571428571429,-3.67185714285714,180.649333333333,0,0,0,0,0,0,0,0.6332875,0.0704,-0.1831,32.506,-13.602,11.636,0.044,-0.02234,-0.6968,0.73728,0.904333333333334,3.49583333333333,-0.691,514.031333333333,0,1,1,1
24-May-2018 14:17:58,210.2,0.9319,0.108633333333333,-0.175116666666667,-6.40214285714286,-2.23571428571429,-3.67185714285714,180.649333333333,0,0,0,0,0,0,0,0.6332875,0.0704,-0.1831,32.506,-13.602,11.636,0.044,-0.02234,-0.6968,0.73728,0.904333333333334,3.49583333333333,-0.691,514.031333333333,0,1,1,1
24-May-2018 14:17:59,76.4,0.936071428571429,0.132542857142857,-0.164871428571429,0.706142857142857,-0.285,0.131285714285714,205.977,0,0,0,0,0,0,0,0.680057142857143,0.0953,0.0336142857142857,-25.546,-9.69857142857143,5.97857142857143,0.044,-0.03115,-0.487433333333333,0.929483333333333,17.6654285714286,6.64628571428571,0.923428571428571,491.812,0,1,1,0.5
24-May-2018 14:17:59,76.4,0.936071428571429,0.132542857142857,-0.164871428571429,0.706142857142857,-0.285,0.131285714285714,205.977,0,0,0,0,0,0,0,0.680057142857143,0.0953,0.0336142857142857,-25.546,-9.69857142857143,5.97857142857143,0.044,-0.03115,-0.487433333333333,0.929483333333333,17.6654285714286,6.64628571428571,0.923428571428571,491.812,0,1,1,0.5
24-May-2018 14:17:59,76.4,0.936071428571429,0.132542857142857,-0.164871428571429,0.706142857142857,-0.285,0.131285714285714,205.977,0,0,0,0,0,0,0,0.680057142857143,0.0953,0.0336142857142857,-25.546,-9.69857142857143,5.97857142857143,0.044,-0.03115,-0.487433333333333,0.929483333333333,17.6654285714286,6.64628571428571,0.923428571428571,491.812,0,1,1,0.5
24-May-2018 14:17:59,76.4,0.936071428571429,0.132542857142857,-0.164871428571429,0.706142857142857,-0.285,0.131285714285714,205.977,0,0,0,0,0,0,0,0.680057142857143,0.0953,0.0336142857142857,-25.546,-9.69857142857143,5.97857142857143,0,-0.03115,-0.487433333333333,0.929483333333333,17.6654285714286,6.64628571428571,0.923428571428571,491.812,0,1,1,0.5
24-May-2018 14:18:00,48.8,0.9316625,0.1306375,-0.1885125,3.07471428571429,0.0901428571428571,-0.364714285714286,204.759333333333,0,0,0,0,0,0,0,0.803416666666667,0.104633333333333,-0.0353666666666667,-61.757,9.86628571428571,-2.84428571428572,0.022,-0.61105,-0.22535,0.52835,-95.87525,26.852,43.788125,442.465666666667,1,0,1,0
24-May-2018 14:18:00,48.8,0.9316625,0.1306375,-0.1885125,3.07471428571429,0.0901428571428571,-0.364714285714286,204.759333333333,0,0,0,0,0,0,0,0.803416666666667,0.104633333333333,-0.0353666666666667,-61.757,9.86628571428571,-2.84428571428572,0.022,-0.61105,-0.22535,0.52835,-95.87525,26.852,43.788125,442.465666666667,1,0,1,0
24-May-2018 14:18:00,48.8,0.9316625,0.1306375,-0.1885125,3.07471428571429,0.0901428571428571,-0.364714285714286,204.759333333333,0,0,0,0,0,0,0,0.803416666666667,0.104633333333333,-0.0353666666666667,-61.757,9.86628571428571,-2.84428571428572,0.022,-0.61105,-0.22535,0.52835,-95.87525,26.852,43.788125,442.465666666667,1,0,1,0
24-May-2018 14:18:00,48.8,0.9316625,0.1306375,-0.1885125,3.07471428571429,0.0901428571428571,-0.364714285714286,204.759333333333,0,0,0,0,0,0,0,0.803416666666667,0.104633333333333,-0.0353666666666667,-61.757,9.86628571428571,-2.84428571428572,0.022,-0.61105,-0.22535,0.52835,-95.87525,26.852,43.788125,442.465666666667,1,0,1,0
24-May-2018 14:18:01,20.2222222222222,0.932933333333333,0.0911333333333333,-0.1615,26.8262857142857,2.34885714285714,2.97171428571429,191.3615,0,0,0,0,0,0,0,0.677157142857143,0.194442857142857,-0.0911285714285714,-48.3566666666667,3.75666666666667,-8.96166666666667,0.022,-0.911742857142857,-0.125514285714286,0.140714285714286,-11.8294,-5.6342,-28.3784,493.199666666667,1,0.5,1,0
24-May-2018 14:18:01,20.2222222222222,0.932933333333333,0.0911333333333333,-0.1615,26.8262857142857,2.34885714285714,2.97171428571429,191.3615,0,0,0,0,0,0,0,0.677157142857143,0.194442857142857,-0.0911285714285714,-48.3566666666667,3.75666666666667,-8.96166666666667,0.022,-0.911742857142857,-0.125514285714286,0.140714285714286,-11.8294,-5.6342,-28.3784,493.199666666667,1,0.5,1,0
24-May-2018 14:18:01,20.2222222222222,0.932933333333333,0.0911333333333333,-0.1615,26.8262857142857,2.34885714285714,2.97171428571429,191.3615,0,0,0,0,0,0,0,0.677157142857143,0.194442857142857,-0.0911285714285714,-48.3566666666667,3.75666666666667,-8.96166666666667,0.022,-0.911742857142857,-0.125514285714286,0.140714285714286,-11.8294,-5.6342,-28.3784,493.199666666667,1,0.5,1,0
24-May-2018 14:18:01,20.2222222222222,0.932933333333333,0.0911333333333333,-0.1615,26.8262857142857,2.34885714285714,2.97171428571429,191.3615,0,0,0,0,0,0,0,0.677157142857143,0.194442857142857,-0.0911285714285714,-48.3566666666667,3.75666666666667,-8.96166666666667,0.022,-0.911742857142857,-0.125514285714286,0.140714285714286,-11.8294,-5.6342,-28.3784,493.199666666667,1,0.5,1,0
24-May-2018 14:18:02,133.8,0.949666666666667,-0.0700555555555556,-0.0366555555555556,80.76625,-7.475,-10.04775,191.3615,0,0,0,0,0,0,0,1.04446,0.04892,-0.08512,1.463,-1.88142857142857,7.73485714285714,0.022,-0.945657142857143,-0.1981,0.1005,-13.1185714285714,6.29785714285714,2.07314285714286,520.78525,1,1,1,0
24-May-2018 14:18:02,133.8,0.949666666666667,-0.0700555555555556,-0.0366555555555556,80.76625,-7.475,-10.04775,191.3615,0,0,0,0,0,0,0,1.04446,0.04892,-0.08512,1.463,-1.88142857142857,7.73485714285714,0.022,-0.945657142857143,-0.1981,0.1005,-13.1185714285714,6.29785714285714,2.07314285714286,520.78525,1,1,1,0
24-May-2018 14:18:02,133.8,0.949666666666667,-0.0700555555555556,-0.0366555555555556,80.76625,-7.475,-10.04775,191.3615,0,0,0,0,0,0,0,1.04446,0.04892,-0.08512,1.463,-1.88142857142857,7.73485714285714,0.022,-0.945657142857143,-0.1981,0.1005,-13.1185714285714,6.29785714285714,2.07314285714286,520.78525,1,1,1,0
24-May-2018 14:18:02,133.8,0.949666666666667,-0.0700555555555556,-0.0366555555555556,80.76625,-7.475,-10.04775,191.3615,0,0,0,0,0,0,0,1.04446,0.04892,-0.08512,1.463,-1.88142857142857,7.73485714285714,0.022,-0.945657142857143,-0.1981,0.1005,-13.1185714285714,6.29785714285714,2.07314285714286,520.78525,1,1,1,0
24-May-2018 14:18:03,-23,0.9636875,0.026725,-0.034125,24.57,0.3385,-3.343875,191.3615,0,0,0,0,0,0,0,0.357116666666667,0.1861,-0.012,-14.142,10.3956,2.346,0.022,-0.914733333333333,-0.21015,0.07655,23.1184285714286,11.7332857142857,1.411,537.739,1,1,1,0
24-May-2018 14:18:03,-23,0.9636875,0.026725,-0.034125,24.57,0.3385,-3.343875,191.3615,0,0,0,0,0,0,0,0.357116666666667,0.1861,-0.012,-14.142,10.3956,2.346,0.022,-0.914733333333333,-0.21015,0.07655,23.1184285714286,11.7332857142857,1.411,537.739,1,1,1,0
24-May-2018 14:18:03,-23,0.9636875,0.026725,-0.034125,24.57,0.3385,-3.343875,0,0,0,0,0,0,0,0,0.357116666666667,0.1861,-0.012,-14.142,10.3956,2.346,0.022,-0.914733333333333,-0.21015,0.07655,23.1184285714286,11.7332857142857,1.411,537.739,1,1,1,0
24-May-2018 14:18:03,-23,0.9636875,0.026725,-0.034125,24.57,0.3385,-3.343875,0,0,0,0,0,0,0,0,0.357116666666667,0.1861,-0.012,-14.142,10.3956,2.346,0.022,-0.914733333333333,-0.21015,0.07655,23.1184285714286,11.7332857142857,1.411,537.739,1,1,1,0
24-May-2018 14:18:04,-286.777777777778,0.958071428571429,0.0303428571428571,-0.0323571428571429,3.651,-0.468,-1.25985714285714,348.48,0,0,0,0,0,0,0,0.64305,0.07985,-0.2102,-28.64,2.27783333333334,-5.7305,0.022,-0.954633333333333,-0.154133333333333,0.06835,29.0592857142857,-1.45457142857143,7.55214285714286,493.78,0,1,1,0
24-May-2018 14:18:04,-286.777777777778,0.958071428571429,0.0303428571428571,-0.0323571428571429,3.651,-0.468,-1.25985714285714,348.48,0,0,0,0,0,0,0,0.64305,0.07985,-0.2102,-28.64,2.27783333333334,-5.7305,0.022,-0.954633333333333,-0.154133333333333,0.06835,29.0592857142857,-1.45457142857143,7.55214285714286,493.78,0,1,1,0
24-May-2018 14:18:04,-286.777777777778,0.958071428571429,0.0303428571428571,-0.0323571428571429,3.651,-0.468,-1.25985714285714,348.48,0,0,0,0,0,0,0,0.64305,0.07985,-0.2102,-28.64,2.27783333333334,-5.7305,0.022,-0.954633333333333,-0.154133333333333,0.06835,29.0592857142857,-1.45457142857143,7.55214285714286,493.78,0,1,1,0
24-May-2018 14:18:04,-286.777777777778,0.958071428571429,0.0303428571428571,-0.0323571428571429,3.651,-0.468,-1.25985714285714,348.48,0,0,0,0,0,0,0,0.64305,0.07985,-0.2102,-28.64,2.27783333333334,-5.7305,0.022,-0.954633333333333,-0.154133333333333,0.06835,29.0592857142857,-1.45457142857143,7.55214285714286,493.78,0,1,1,0
24-May-2018 14:18:05,-138.454545454545,0.96002,0.0504,-0.0154,-23.754,-0.0834000000000001,-2.3256,351.5075,0,0,0,0,0,0,0,1.0013,0.309083333333333,-0.1612,13.1057142857143,-8.25714285714286,-3.09714285714286,0.022,-0.9436875,-0.029925,0.1308,-0.0785714285714288,3.72814285714286,0.871142857142857,511.642666666667,0,1,1,0
24-May-2018 14:18:05,-138.454545454545,0.96002,0.0504,-0.0154,-23.754,-0.0834000000000001,-2.3256,351.5075,0,0,0,0,0,0,0,1.0013,0.309083333333333,-0.1612,13.1057142857143,-8.25714285714286,-3.09714285714286,0.022,-0.9436875,-0.029925,0.1308,-0.0785714285714288,3.72814285714286,0.871142857142857,511.642666666667,0,1,1,0
24-May-2018 14:18:05,-138.454545454545,0.96002,0.0504,-0.0154,-23.754,-0.0834000000000001,-2.3256,351.5075,0,0,0,0,0,0,0,1.0013,0.309083333333333,-0.1612,13.1057142857143,-8.25714285714286,-3.09714285714286,0.022,-0.9436875,-0.029925,0.1308,-0.0785714285714288,3.72814285714286,0.871142857142857,511.642666666667,0,1,1,0
24-May-2018 14:18:05,-138.454545454545,0.96002,0.0504,-0.0154,-23.754,-0.0834000000000001,-2.3256,351.5075,0,0,0,0,0,0,0,1.0013,0.309083333333333,-0.1612,13.1057142857143,-8.25714285714286,-3.09714285714286,0.022,-0.9436875,-0.029925,0.1308,-0.0785714285714288,3.72814285714286,0.871142857142857,511.642666666667,0,1,1,0
24-May-2018 14:18:06,15.25,0.967616666666667,0.0593333333333333,-0.0516666666666667,-6.312,-1.1216,5.5976,350.989,0,0,0,0,0,0,0,0.78122,0.35584,-0.10498,-99.32,-15.674,-8.832,0.022,-0.932616666666667,-0.0508833333333333,0.0466,-39.214375,4.748375,-0.929875,465.835,0,1,1,0
24-May-2018 14:18:06,15.25,0.967616666666667,0.0593333333333333,-0.0516666666666667,-6.312,-1.1216,5.5976,350.989,0,0,0,0,0,0,0,0.78122,0.35584,-0.10498,-99.32,-15.674,-8.832,0.022,-0.932616666666667,-0.0508833333333333,0.0466,-39.214375,4.748375,-0.929875,465.835,0,1,1,0
24-May-2018 14:18:06,15.25,0.967616666666667,0.0593333333333333,-0.0516666666666667,-6.312,-1.1216,5.5976,350.989,0,0,0,0,0,0,0,0.78122,0.35584,-0.10498,-99.32,-15.674,-8.832,0.022,-0.932616666666667,-0.0508833333333333,0.0466,-39.214375,4.748375,-0.929875,465.835,0,1,1,0
24-May-2018 14:18:06,15.25,0.967616666666667,0.0593333333333333,-0.0516666666666667,-6.312,-1.1216,5.5976,350.989,0,0,0,0,0,0,0,0.78122,0.35584,-0.10498,-99.32,-15.674,-8.832,0.022,-0.932616666666667,-0.0508833333333333,0.0466,-39.214375,4.748375,-0.929875,465.835,0,1,1,0
24-May-2018 14:18:07,44.1,0.9233125,0.0124375,-0.039875,4.27783333333333,-0.1505,0.367,345.97775,0,0,0,0,0,0,0,0.556466666666667,0.279816666666667,-0.105266666666667,10.782,-14.81,-5.5436,0.022,-1.16774285714286,-0.145314285714286,-0.00842857142857143,-12.5296666666667,-3.99383333333333,3.70933333333333,436.365,1,1,1,0
24-May-2018 14:18:07,44.1,0.9233125,0.0124375,-0.039875,4.27783333333333,-0.1505,0.367,345.97775,0,0,0,0,0,0,0,0.556466666666667,0.279816666666667,-0.105266666666667,10.782,-14.81,-5.5436,0.022,-1.16774285714286,-0.145314285714286,-0.00842857142857143,-12.5296666666667,-3.99383333333333,3.70933333333333,436.365,1,1,1,0
24-May-2018 14:18:07,44.1,0.9233125,0.0124375,-0.039875,4.27783333333333,-0.1505,0.367,345.97775,0,0,0,0,0,0,0,0.556466666666667,0.279816666666667,-0.105266666666667,10.782,-14.81,-5.5436,0.022,-1.16774285714286,-0.145314285714286,-0.00842857142857143,-12.5296666666667,-3.99383333333333,3.70933333333333,436.365,1,1,1,0
24-May-2018 14:18:07,44.1,0.9233125,0.0124375,-0.039875,4.27783333333333,-0.1505,0.367,345.97775,0,0,0,0,0,0,0,0.556466666666667,0.279816666666667,-0.105266666666667,10.782,-14.81,-5.5436,0.022,-1.16774285714286,-0.145314285714286,-0.00842857142857143,-12.5296666666667,-3.99383333333333,3.70933333333333,436.365,1,1,1,0
24-May-2018 14:18:08,231.9,0.775,0.0549142857142857,0.00468571428571429,21.243,-3.13414285714286,2.01714285714286,347.157,0,0,0,0,0,0,0,-0.0707,-0.0137333333333333,0.0881333333333333,2.71,13.7457142857143,11.9185714285714,0.022,-0.45942,-0.06376,0.08618,70.3834285714286,4.13757142857143,28.641,492.3675,1,1,1,0
24-May-2018 14:18:08,231.9,0.775,0.0549142857142857,0.00468571428571429,21.243,-3.13414285714286,2.01714285714286,347.157,0,0,0,0,0,0,0,-0.0707,-0.0137333333333333,0.0881333333333333,2.71,13.7457142857143,11.9185714285714,0.022,-0.45942,-0.06376,0.08618,70.3834285714286,4.13757142857143,28.641,492.3675,1,1,1,0
24-May-2018 14:18:08,231.9,0.775,0.0549142857142857,0.00468571428571429,21.243,-3.13414285714286,2.01714285714286,347.157,0,0,0,0,0,0,0,-0.0707,-0.0137333333333333,0.0881333333333333,2.71,13.7457142857143,11.9185714285714,0.022,-0.45942,-0.06376,0.08618,70.3834285714286,4.13757142857143,28.641,492.3675,1,1,1,0
24-May-2018 14:18:08,231.9,0.775,0.0549142857142857,0.00468571428571429,21.243,-3.13414285714286,2.01714285714286,347.157,0,0,0,0,0,0,0,-0.0707,-0.0137333333333333,0.0881333333333333,2.71,13.7457142857143,11.9185714285714,0.022,-0.45942,-0.06376,0.08618,70.3834285714286,4.13757142857143,28.641,492.3675,1,1,1,0
24-May-2018 14:18:09,250.7,0.990128571428571,-0.0387285714285714,0.0586714285714286,9.7426,-24.758,-3.51,341.89375,0,0,0,0,0,0,0,0.894333333333333,0.0962333333333333,-0.1899,101.334,2.292,21.726,0.022,-0.902271428571429,-0.0391857142857143,0.0035,28.987125,14.969625,4.428375,441.292333333333,1,1,1,0
24-May-2018 14:18:09,250.7,0.990128571428571,-0.0387285714285714,0.0586714285714286,9.7426,-24.758,-3.51,341.89375,0,0,0,0,0,0,0,0.894333333333333,0.0962333333333333,-0.1899,101.334,2.292,21.726,0.022,-0.902271428571429,-0.0391857142857143,0.0035,28.987125,14.969625,4.428375,441.292333333333,1,1,1,0
24-May-2018 14:18:09,250.7,0.990128571428571,-0.0387285714285714,0.0586714285714286,9.7426,-24.758,-3.51,341.89375,0,0,0,0,0,0,0,0.894333333333333,0.0962333333333333,-0.1899,101.334,2.292,21.726,0.022,-0.902271428571429,-0.0391857142857143,0.0035,28.987125,14.969625,4.428375,441.292333333333,1,1,1,0
24-May-2018 14:18:09,250.7,0.990128571428571,-0.0387285714285714,0.0586714285714286,9.7426,-24.758,-3.51,341.89375,0,0,0,0,0,0,0,0.894333333333333,0.0962333333333333,-0.1899,101.334,2.292,21.726,0.022,-0.902271428571429,-0.0391857142857143,0.0035,28.987125,14.969625,4.428375,441.292333333333,1,1,1,0
24-May-2018 14:18:10,267.5,0.7069625,0.124575,-0.135125,-6.942,-18.1566,-2.5946,288.887,0,0,0,0,0,0,0,0.77218,0.41362,-0.19594,-76.95,-22.525,-27.7116666666667,0.022,-0.774742857142857,-0.1388,0.0248571428571429,62.33225,-6.00525,-29.7105,432.7948,1,1,1,0
24-May-2018 14:18:10,267.5,0.7069625,0.124575,-0.135125,-6.942,-18.1566,-2.5946,288.887,0,0,0,0,0,0,0,0.77218,0.41362,-0.19594,-76.95,-22.525,-27.7116666666667,0.022,-0.774742857142857,-0.1388,0.0248571428571429,62.33225,-6.00525,-29.7105,432.7948,1,1,1,0
24-May-2018 14:18:10,267.5,0.7069625,0.124575,-0.135125,-6.942,-18.1566,-2.5946,288.887,0,0,0,0,0,0,0,0.77218,0.41362,-0.19594,-76.95,-22.525,-27.7116666666667,0.022,-0.774742857142857,-0.1388,0.0248571428571429,62.33225,-6.00525,-29.7105,432.7948,1,1,1,0
24-May-2018 14:18:10,267.5,0.7069625,0.124575,-0.135125,-6.942,-18.1566,-2.5946,288.887,0,0,0,0,0,0,0,0.77218,0.41362,-0.19594,-76.95,-22.525,-27.7116666666667,0.022,-0.774742857142857,-0.1388,0.0248571428571429,62.33225,-6.00525,-29.7105,432.7948,1,1,1,0
24-May-2018 14:18:11,162.444444444444,0.837216666666667,-0.0159833333333333,-0.00168333333333333,-21.55,-7.25333333333333,1.96883333333333,315.8405,0,0,0,0,0,0,0,0.345866666666667,0.1416,-0.0859666666666667,53.4875,11.2775,20.9775,0.022,-0.237485714285714,-0.0547285714285714,0.0198428571428571,77.988,7.66685714285715,-17.7265714285714,424.519,1,1,1,1
24-May-2018 14:18:11,162.444444444444,0.837216666666667,-0.0159833333333333,-0.00168333333333333,-21.55,-7.25333333333333,1.96883333333333,315.8405,0,0,0,0,0,0,0,0.345866666666667,0.1416,-0.0859666666666667,53.4875,11.2775,20.9775,0.022,-0.237485714285714,-0.0547285714285714,0.0198428571428571,77.988,7.66685714285715,-17.7265714285714,424.519,1,1,1,1
24-May-2018 14:18:11,162.444444444444,0.837216666666667,-0.0159833333333333,-0.00168333333333333,-21.55,-7.25333333333333,1.96883333333333,315.8405,0,0,0,0,0,0,0,0.345866666666667,0.1416,-0.0859666666666667,53.4875,11.2775,20.9775,0.022,-0.237485714285714,-0.0547285714285714,0.0198428571428571,77.988,7.66685714285715,-17.7265714285714,424.519,1,1,1,1
24-May-2018 14:18:11,162.444444444444,0.837216666666667,-0.0159833333333333,-0.00168333333333333,-21.55,-7.25333333333333,1.96883333333333,315.8405,0,0,0,0,0,0,0,0.345866666666667,0.1416,-0.0859666666666667,53.4875,11.2775,20.9775,0.022,-0.237485714285714,-0.0547285714285714,0.0198428571428571,77.988,7.66685714285715,-17.7265714285714,424.519,1,1,1,1
24-May-2018 14:18:12,-13.8,0.7531,0.0658,-0.0558909090909091,-35.1001666666667,-8.20666666666667,4.04233333333333,315.8405,0,0,0,0,0,0,0,0.84065,0.500175,-0.090575,33.39875,22.50625,23.687125,0.022,-1.24251666666667,-0.2241,-0.0103333333333333,-15.873,-18.1706666666667,2.40833333333333,412.0456,0,1,1,1
24-May-2018 14:18:12,-13.8,0.7531,0.0658,-0.0558909090909091,-35.1001666666667,-8.20666666666667,4.04233333333333,315.8405,0,0,0,0,0,0,0,0.84065,0.500175,-0.090575,33.39875,22.50625,23.687125,0.022,-1.24251666666667,-0.2241,-0.0103333333333333,-15.873,-18.1706666666667,2.40833333333333,412.0456,0,1,1,1
24-May-2018 14:18:12,-13.8,0.7531,0.0658,-0.0558909090909091,-35.1001666666667,-8.20666666666667,4.04233333333333,315.8405,0,0,0,0,0,0,0,0.84065,0.500175,-0.090575,33.39875,22.50625,23.687125,0.022,-1.24251666666667,-0.2241,-0.0103333333333333,-15.873,-18.1706666666667,2.40833333333333,412.0456,0,1,1,1
24-May-2018 14:18:12,-13.8,0.7531,0.0658,-0.0558909090909091,-35.1001666666667,-8.20666666666667,4.04233333333333,0,0,0,0,0,0,0,0,0.84065,0.500175,-0.090575,33.39875,22.50625,23.687125,0.022,-1.24251666666667,-0.2241,-0.0103333333333333,-15.873,-18.1706666666667,2.40833333333333,412.0456,0,1,1,1
24-May-2018 14:18:13,-223.625,0.64129,0.06208,-0.04214,-86.7714285714286,-8.81285714285714,3.222,321.938,0,0,0,0,0,0,0,0.7424,0.156628571428571,-0.223771428571429,-41.6383333333333,8.72166666666667,-12.4003333333333,0.022,-0.452225,-0.00611249999999999,0.0468375,21.8471428571429,-3.309,3.57257142857143,452.718,1,1,1,0.5
24-May-2018 14:18:13,-223.625,0.64129,0.06208,-0.04214,-86.7714285714286,-8.81285714285714,3.222,321.938,0,0,0,0,0,0,0,0.7424,0.156628571428571,-0.223771428571429,-41.6383333333333,8.72166666666667,-12.4003333333333,0.022,-0.452225,-0.00611249999999999,0.0468375,21.8471428571429,-3.309,3.57257142857143,452.718,1,1,1,0.5
24-May-2018 14:18:13,-223.625,0.64129,0.06208,-0.04214,-86.7714285714286,-8.81285714285714,3.222,321.938,0,0,0,0,0,0,0,0.7424,0.156628571428571,-0.223771428571429,-41.6383333333333,8.72166666666667,-12.4003333333333,0.022,-0.452225,-0.00611249999999999,0.0468375,21.8471428571429,-3.309,3.57257142857143,452.718,1,1,1,0.5
24-May-2018 14:18:13,-223.625,0.64129,0.06208,-0.04214,-86.7714285714286,-8.81285714285714,3.222,321.938,0,0,0,0,0,0,0,0.7424,0.156628571428571,-0.223771428571429,-41.6383333333333,8.72166666666667,-12.4003333333333,0.022,-0.452225,-0.00611249999999999,0.0468375,21.8471428571429,-3.309,3.57257142857143,452.718,1,1,1,0.5
24-May-2018 14:18:14,-189.285714285714,0.700175,0.0552,-0.172625,-27.7275,8.7645,8.9725,352.0334,0,0,0,0,0,0,0,1.07808,0.21904,-0.13742,26.67,11.2626666666667,-2.515,0.022,-0.43175,-0.03315,0.010675,-82.8495,-19.89325,-31.18925,524.82825,1,1,1,0
24-May-2018 14:18:14,-189.285714285714,0.700175,0.0552,-0.172625,-27.7275,8.7645,8.9725,352.0334,0,0,0,0,0,0,0,1.07808,0.21904,-0.13742,26.67,11.2626666666667,-2.515,0.022,-0.43175,-0.03315,0.010675,-82.8495,-19.89325,-31.18925,524.82825,1,1,1,0
24-May-2018 14:18:14,-189.285714285714,0.700175,0.0552,-0.172625,-27.7275,8.7645,8.9725,352.0334,0,0,0,0,0,0,0,1.07808,0.21904,-0.13742,26.67,11.2626666666667,-2.515,0.022,-0.43175,-0.03315,0.010675,-82.8495,-19.89325,-31.18925,524.82825,1,1,1,0
24-May-2018 14:18:14,-189.285714285714,0.700175,0.0552,-0.172625,-27.7275,8.7645,8.9725,352.0334,0,0,0,0,0,0,0,1.07808,0.21904,-0.13742,26.67,11.2626666666667,-2.515,0.022,-0.43175,-0.03315,0.010675,-82.8495,-19.89325,-31.18925,524.82825,1,1,1,0
24-May-2018 14:18:15,25.25,0.5119,0.0124,-0.1544,-10.22,-14.2066666666667,-9.85266666666667,384.013666666667,0,0,0,0,0,0,0,0.79645,0.0997,-0.02595,-32.1313333333333,-13.5266666666667,11.6266666666667,0.022,-1.135775,-0.05295,-0.102325,21.8496666666667,10.6096666666667,0.996,505.472,0,1,1,1
24-May-2018 14:18:15,25.25,0.5119,0.0124,-0.1544,-10.22,-14.2066666666667,-9.85266666666667,384.013666666667,0,0,0,0,0,0,0,0.79645,0.0997,-0.02595,-32.1313333333333,-13.5266666666667,11.6266666666667,0.022,-1.135775,-0.05295,-0.102325,21.8496666666667,10.6096666666667,0.996,505.472,0,1,1,1
24-May-2018 14:18:15,25.25,0.5119,0.0124,-0.1544,-10.22,-14.2066666666667,-9.85266666666667,384.013666666667,0,0,0,0,0,0,0,0.79645,0.0997,-0.02595,-32.1313333333333,-13.5266666666667,11.6266666666667,0.022,-1.135775,-0.05295,-0.102325,21.8496666666667,10.6096666666667,0.996,505.472,0,1,1,1
24-May-2018 14:18:15,25.25,0.5119,0.0124,-0.1544,-10.22,-14.2066666666667,-9.85266666666667,384.013666666667,0,0,0,0,0,0,0,0.79645,0.0997,-0.02595,-32.1313333333333,-13.5266666666667,11.6266666666667,0.022,-1.135775,-0.05295,-0.102325,21.8496666666667,10.6096666666667,0.996,505.472,0,1,1,1
24-May-2018 14:18:16,110.3,0.663783333333333,0.01285,-0.0835666666666667,-41.9033333333333,11.1183333333333,36.6833333333333,483.0865,0,0,0,0,0,0,0,0.806075,0.5689,-0.11955,48.255,3.5725,22.205,0.022,-0.550133333333333,-0.00173333333333333,0.11325,-12.4146,9.0244,9.2806,535.98925,0,1,1,1
24-May-2018 14:18:16,110.3,0.663783333333333,0.01285,-0.0835666666666667,-41.9033333333333,11.1183333333333,36.6833333333333,483.0865,0,0,0,0,0,0,0,0.806075,0.5689,-0.11955,48.255,3.5725,22.205,0.022,-0.550133333333333,-0.00173333333333333,0.11325,-12.4146,9.0244,9.2806,535.98925,0,1,1,1
24-May-2018 14:18:16,110.3,0.663783333333333,0.01285,-0.0835666666666667,-41.9033333333333,11.1183333333333,36.6833333333333,483.0865,0,0,0,0,0,0,0,0.806075,0.5689,-0.11955,48.255,3.5725,22.205,0.022,-0.550133333333333,-0.00173333333333333,0.11325,-12.4146,9.0244,9.2806,535.98925,0,1,1,1
24-May-2018 14:18:16,110.3,0.663783333333333,0.01285,-0.0835666666666667,-41.9033333333333,11.1183333333333,36.6833333333333,483.0865,0,0,0,0,0,0,0,0.806075,0.5689,-0.11955,48.255,3.5725,22.205,0.022,-0.550133333333333,-0.00173333333333333,0.11325,-12.4146,9.0244,9.2806,535.98925,0,1,1,1
24-May-2018 14:18:17,112.272727272727,0.6849375,0.03085,0.03815,-7.555,-10.3096666666667,-1.37066666666667,548.752,0,0,0,0,0,0,0,0.793742857142857,0.225814285714286,-0.0541857142857143,-43.5742,21.6446,3.236,0.022,-0.924733333333333,-0.131916666666667,-0.00881666666666667,9.177,-1.974,-6.006125,557.5255,0,1,1,1
24-May-2018 14:18:17,112.272727272727,0.6849375,0.03085,0.03815,-7.555,-10.3096666666667,-1.37066666666667,548.752,0,0,0,0,0,0,0,0.793742857142857,0.225814285714286,-0.0541857142857143,-43.5742,21.6446,3.236,0.022,-0.924733333333333,-0.131916666666667,-0.00881666666666667,9.177,-1.974,-6.006125,557.5255,0,1,1,1
24-May-2018 14:18:17,112.272727272727,0.6849375,0.03085,0.03815,-7.555,-10.3096666666667,-1.37066666666667,548.752,0,0,0,0,0,0,0,0.793742857142857,0.225814285714286,-0.0541857142857143,-43.5742,21.6446,3.236,0.022,-0.924733333333333,-0.131916666666667,-0.00881666666666667,9.177,-1.974,-6.006125,557.5255,0,1,1,1
24-May-2018 14:18:17,112.272727272727,0.6849375,0.03085,0.03815,-7.555,-10.3096666666667,-1.37066666666667,548.752,0,0,0,0,0,0,0,0.793742857142857,0.225814285714286,-0.0541857142857143,-43.5742,21.6446,3.236,0.022,-0.924733333333333,-0.131916666666667,-0.00881666666666667,9.177,-1.974,-6.006125,557.5255,0,1,1,1
24-May-2018 14:18:18,302,0.716022222222222,0.111033333333333,0.0408333333333333,4.6766,-14.694,-3.7364,599.15475,0,0,0,0,0,0,0,0.82005,0.2430625,-0.00605,43.35,46.3658333333333,10.9933333333333,0.022,-0.97606,-0.06978,0.11536,-3.34183333333333,7.622,13.2723333333333,615.279,0,1,1,0
24-May-2018 14:18:18,302,0.716022222222222,0.111033333333333,0.0408333333333333,4.6766,-14.694,-3.7364,599.15475,0,0,0,0,0,0,0,0.82005,0.2430625,-0.00605,43.35,46.3658333333333,10.9933333333333,0.022,-0.97606,-0.06978,0.11536,-3.34183333333333,7.622,13.2723333333333,615.279,0,1,1,0
24-May-2018 14:18:18,302,0.716022222222222,0.111033333333333,0.0408333333333333,4.6766,-14.694,-3.7364,599.15475,0,0,0,0,0,0,0,0.82005,0.2430625,-0.00605,43.35,46.3658333333333,10.9933333333333,0.022,-0.97606,-0.06978,0.11536,-3.34183333333333,7.622,13.2723333333333,615.279,0,1,1,0
24-May-2018 14:18:18,302,0.716022222222222,0.111033333333333,0.0408333333333333,4.6766,-14.694,-3.7364,599.15475,0,0,0,0,0,0,0,0.82005,0.2430625,-0.00605,43.35,46.3658333333333,10.9933333333333,0.022,-0.97606,-0.06978,0.11536,-3.34183333333333,7.622,13.2723333333333,615.279,0,1,1,0
24-May-2018 14:18:19,204.1,0.9226125,0.0458875,0.0303,-1.99366666666667,8.17,11.0035,627.133,0,0,0,0,0,0,0,0.8018125,0.272425,-0.0319375,25.4471428571429,5.28142857142857,-6.11928571428572,0.022,-0.5121875,-0.0742375,0.1381,-2.33766666666667,30.6911666666667,-12.0325,591.752333333333,0.5,1,1,0
24-May-2018 14:18:19,204.1,0.9226125,0.0458875,0.0303,-1.99366666666667,8.17,11.0035,627.133,0,0,0,0,0,0,0,0.8018125,0.272425,-0.0319375,25.4471428571429,5.28142857142857,-6.11928571428572,0.022,-0.5121875,-0.0742375,0.1381,-2.33766666666667,30.6911666666667,-12.0325,591.752333333333,0.5,1,1,0
24-May-2018 14:18:19,204.1,0.9226125,0.0458875,0.0303,-1.99366666666667,8.17,11.0035,627.133,0,0,0,0,0,0,0,0.8018125,0.272425,-0.0319375,25.4471428571429,5.28142857142857,-6.11928571428572,0.022,-0.5121875,-0.0742375,0.1381,-2.33766666666667,30.6911666666667,-12.0325,591.752333333333,0.5,1,1,0
24-May-2018 14:18:19,204.1,0.9226125,0.0458875,0.0303,-1.99366666666667,8.17,11.0035,627.133,0,0,0,0,0,0,0,0.8018125,0.272425,-0.0319375,25.4471428571429,5.28142857142857,-6.11928571428572,0.022,-0.5121875,-0.0742375,0.1381,-2.33766666666667,30.6911666666667,-12.0325,591.752333333333,0.5,1,1,0
24-May-2018 14:18:20,-58.625,0.502683333333333,0.0879833333333333,0.0543166666666667,9.13216666666667,-21.7723333333333,0.442833333333333,682.944,0,0,0,0,0,0,0,0.657971428571429,0.129728571428571,-0.0285857142857143,45.79,15.98,9.666,0.022,-0.84612,-0.15812,0.11308,-8.7804,14.7682,1.244,571.2095,1,1,1,0
24-May-2018 14:18:20,-58.625,0.502683333333333,0.0879833333333333,0.0543166666666667,9.13216666666667,-21.7723333333333,0.442833333333333,682.944,0,0,0,0,0,0,0,0.657971428571429,0.129728571428571,-0.0285857142857143,45.79,15.98,9.666,0.022,-0.84612,-0.15812,0.11308,-8.7804,14.7682,1.244,571.2095,1,1,1,0
24-May-2018 14:18:20,-58.625,0.502683333333333,0.0879833333333333,0.0543166666666667,9.13216666666667,-21.7723333333333,0.442833333333333,682.944,0,0,0,0,0,0,0,0.657971428571429,0.129728571428571,-0.0285857142857143,45.79,15.98,9.666,0.022,-0.84612,-0.15812,0.11308,-8.7804,14.7682,1.244,571.2095,1,1,1,0
24-May-2018 14:18:20,-58.625,0.502683333333333,0.0879833333333333,0.0543166666666667,9.13216666666667,-21.7723333333333,0.442833333333333,682.944,0,0,0,0,0,0,0,0.657971428571429,0.129728571428571,-0.0285857142857143,45.79,15.98,9.666,0.022,-0.84612,-0.15812,0.11308,-8.7804,14.7682,1.244,571.2095,1,1,1,0
24-May-2018 14:18:21,-258.3,0.770522222222222,0.0462666666666667,0.104655555555556,0.473285714285714,-7.38357142857143,0.347142857142856,662.357,0,0,0,0,0,0,0,1.068,0.4656,0.0605,47.3828571428571,-0.907571428571428,6.34571428571429,0.022,-0.758211111111111,-0.0127666666666667,-0.0155777777777778,-6.7404,9.2196,4.8904,579.715,1,1,1,0
24-May-2018 14:18:21,-258.3,0.770522222222222,0.0462666666666667,0.104655555555556,0.473285714285714,-7.38357142857143,0.347142857142856,662.357,0,0,0,0,0,0,0,1.068,0.4656,0.0605,47.3828571428571,-0.907571428571428,6.34571428571429,0.022,-0.758211111111111,-0.0127666666666667,-0.0155777777777778,-6.7404,9.2196,4.8904,579.715,1,1,1,0
24-May-2018 14:18:21,-258.3,0.770522222222222,0.0462666666666667,0.104655555555556,0.473285714285714,-7.38357142857143,0.347142857142856,662.357,0,0,0,0,0,0,0,1.068,0.4656,0.0605,47.3828571428571,-0.907571428571428,6.34571428571429,0.022,-0.758211111111111,-0.0127666666666667,-0.0155777777777778,-6.7404,9.2196,4.8904,579.715,1,1,1,0
24-May-2018 14:18:21,-258.3,0.770522222222222,0.0462666666666667,0.104655555555556,0.473285714285714,-7.38357142857143,0.347142857142856,662.357,0,0,0,0,0,0,0,1.068,0.4656,0.0605,47.3828571428571,-0.907571428571428,6.34571428571429,0.022,-0.758211111111111,-0.0127666666666667,-0.0155777777777778,-6.7404,9.2196,4.8904,579.715,1,1,1,0
24-May-2018 14:18:22,-252.111111111111,0.850333333333333,0.0664555555555556,0.00257777777777778,8.64875,-23.108125,-12.586125,616.658,0,0,0,0,0,0,0,0.776014285714286,0.291514285714286,-0.00425714285714285,-26.0625,18.06675,2.485,0.0176,-0.767275,-0.144525,0.1683,7.4395,19.014,-2.09366666666667,601.161,1,0,1,1
24-May-2018 14:18:22,-252.111111111111,0.850333333333333,0.0664555555555556,0.00257777777777778,8.64875,-23.108125,-12.586125,616.658,0,0,0,0,0,0,0,0.776014285714286,0.291514285714286,-0.00425714285714285,-26.0625,18.06675,2.485,0.0176,-0.767275,-0.144525,0.1683,7.4395,19.014,-2.09366666666667,601.161,1,0,1,1
24-May-2018 14:18:22,-252.111111111111,0.850333333333333,0.0664555555555556,0.00257777777777778,8.64875,-23.108125,-12.586125,616.658,0,0,0,0,0,0,0,0.776014285714286,0.291514285714286,-0.00425714285714285,-26.0625,18.06675,2.485,0.0176,-0.767275,-0.144525,0.1683,7.4395,19.014,-2.09366666666667,601.161,1,0,1,1
24-May-2018 14:18:22,-252.111111111111,0.850333333333333,0.0664555555555556,0.00257777777777778,8.64875,-23.108125,-12.586125,616.658,0,0,0,0,0,0,0,0.776014285714286,0.291514285714286,-0.00425714285714285,-26.0625,18.06675,2.485,0.0176,-0.767275,-0.144525,0.1683,7.4395,19.014,-2.09366666666667,601.161,1,0,1,1
24-May-2018 14:18:23,-87.8,1.08766666666667,0.0033,0.228083333333333,16.974,-22.5853333333333,-8.99666666666667,659.612833333333,0,0,0,0,0,0,0,0.719757142857143,0.157585714285714,-0.0134571428571429,-82.5271428571429,-4.77042857142857,-10.7157142857143,0.088,-0.579114285714286,0.00971428571428572,0.00442857142857143,1.09775,48.0335,2.49975,679.3694,1,0,1,0.5
24-May-2018 14:18:23,-87.8,1.08766666666667,0.0033,0.228083333333333,16.974,-22.5853333333333,-8.99666666666667,659.612833333333,0,0,0,0,0,0,0,0.719757142857143,0.157585714285714,-0.0134571428571429,-82.5271428571429,-4.77042857142857,-10.7157142857143,0.088,-0.579114285714286,0.00971428571428572,0.00442857142857143,1.09775,48.0335,2.49975,679.3694,1,0,1,0.5
24-May-2018 14:18:23,-87.8,1.08766666666667,0.0033,0.228083333333333,16.974,-22.5853333333333,-8.99666666666667,659.612833333333,0,0,0,0,0,0,0,0.719757142857143,0.157585714285714,-0.0134571428571429,-82.5271428571429,-4.77042857142857,-10.7157142857143,0.088,-0.579114285714286,0.00971428571428572,0.00442857142857143,1.09775,48.0335,2.49975,679.3694,1,0,1,0.5
24-May-2018 14:18:23,-87.8,1.08766666666667,0.0033,0.228083333333333,16.974,-22.5853333333333,-8.99666666666667,659.612833333333,0,0,0,0,0,0,0,0.719757142857143,0.157585714285714,-0.0134571428571429,-82.5271428571429,-4.77042857142857,-10.7157142857143,0.088,-0.579114285714286,0.00971428571428572,0.00442857142857143,1.09775,48.0335,2.49975,679.3694,1,0,1,0.5
