TIME,HELMET_RAW,BELT_ACC_X,BELT_ACC_Y,BELT_ACC_Z,BELT_ANG_X,BELT_ANG_Y,BELT_ANG_Z,BELT_LUMINOSITY,NECK_ACC_X,NECK_ACC_Y,NECK_ACC_Z,NECK_ANG_X,NECK_ANG_Y,NECK_ANG_Z,NECK_LUMINOSITY,PCKT_ACC_X,PCKT_ACC_Y,PCKT_ACC_Z,PCKT_ANG_X,PCKT_ANG_Y,PCKT_ANG_Z,PCKT_LUMINOSITY,WRST_ACC_X,WRST_ACC_Y,WRST_ACC_Z,WRST_ANG_X,WRST_ANG_Y,WRST_ANG_Z,WRST_LUMINOSITY,IR_1,IR_2,IR_3,IR_4
24-May-2018 12:44:17,56.3333333333333,0.767616666666667,0.3375,-0.34105,17.3966666666667,49.9466666666667,34.965,5.70566666666667,-0.6676,0.14072,-0.80986,-10.6735555555556,14.5502222222222,-25.7888888888889,150.821,0.928383333333333,-0.131,0.344166666666667,-4.07666666666667,-30.4256666666667,-6.85666666666667,2.9565,-0.8629,-0.015525,0.344375,4.557875,28.01075,-48.73325,543.414333333333,0,0,1,1
24-May-2018 12:44:17,56.3333333333333,0.767616666666667,0.3375,-0.34105,17.3966666666667,49.9466666666667,34.965,5.70566666666667,-0.6676,0.14072,-0.80986,-10.6735555555556,14.5502222222222,-25.7888888888889,150.821,0.928383333333333,-0.131,0.344166666666667,-4.07666666666667,-30.4256666666667,-6.85666666666667,2.9565,-0.8629,-0.015525,0.344375,4.557875,28.01075,-48.73325,543.414333333333,0,0,1,1
24-May-2018 12:44:17,56.3333333333333,0.767616666666667,0.3375,-0.34105,17.3966666666667,49.9466666666667,34.965,5.70566666666667,-0.6676,0.14072,-0.80986,-10.6735555555556,14.5502222222222,-25.7888888888889,150.821,0.928383333333333,-0.131,0.344166666666667,-4.07666666666667,-30.4256666666667,-6.85666666666667,2.9565,-0.8629,-0.015525,0.344375,4.557875,28.01075,-48.73325,543.414333333333,0,0,1,1
24-May-2018 12:44:17,56.3333333333333,0.767616666666667,0.3375,-0.34105,17.3966666666667,49.9466666666667,34.965,5.70566666666667,-0.6676,0.14072,-0.80986,-10.6735555555556,14.5502222222222,-25.7888888888889,150.821,0.928383333333333,-0.131,0.344166666666667,-4.07666666666667,-30.4256666666667,-6.85666666666667,2.9565,-0.8629,-0.015525,0.344375,4.557875,28.01075,-48.73325,543.414333333333,0,0,1,1
24-May-2018 12:44:18,54.7777777777778,0.924757142857143,0.105,0.347271428571429,-1.388,-8.867,-25.782,0.852666666666667,-0.628025,0.031125,-0.803825,5.8655,-6.1589,-20.66,150.821,0.980566666666667,-0.206966666666667,-0.0814666666666667,-16.91,-6.8175,1.297,3.193,-0.43722,-0.41856,0.88052,-111.23175,-72.588,-104.9215,582.250666666667,0,0,1,1
24-May-2018 12:44:18,54.7777777777778,0.924757142857143,0.105,0.347271428571429,-1.388,-8.867,-25.782,0.852666666666667,-0.628025,0.031125,-0.803825,5.8655,-6.1589,-20.66,150.821,0.980566666666667,-0.206966666666667,-0.0814666666666667,-16.91,-6.8175,1.297,3.193,-0.43722,-0.41856,0.88052,-111.23175,-72.588,-104.9215,582.250666666667,0,0,1,1
24-May-2018 12:44:18,54.7777777777778,0.924757142857143,0.105,0.347271428571429,-1.388,-8.867,-25.782,0.852666666666667,-0.628025,0.031125,-0.803825,5.8655,-6.1589,-20.66,150.821,0.980566666666667,-0.206966666666667,-0.0814666666666667,-16.91,-6.8175,1.297,3.193,-0.43722,-0.41856,0.88052,-111.23175,-72.588,-104.9215,582.250666666667,0,0,1,1
24-May-2018 12:44:18,54.7777777777778,0.924757142857143,0.105,0.347271428571429,-1.388,-8.867,-25.782,0.852666666666667,-0.628025,0.031125,-0.803825,5.8655,-6.1589,-20.66,150.821,0.980566666666667,-0.206966666666667,-0.0814666666666667,-16.91,-6.8175,1.297,3.193,-0.43722,-0.41856,0.88052,-111.23175,-72.588,-104.9215,582.250666666667,0,0,1,1
24-May-2018 12:44:19,53.25,0.779428571428571,0.488114285714286,0.356828571428571,-16.5951428571429,6.92428571428572,-23.0771428571429,0.365,-0.70706,-0.12958,-0.80884,21.6788888888889,-2.92777777777778,-5.862,150.517333333333,0.8958,0.158016666666667,-0.195383333333333,-46.5,6.157,-14.8933333333333,2.851,-0.876925,-0.25585,-0.271375,-35.615875,1.12799999999999,11.890125,383.71075,0,0,1,1
24-May-2018 12:44:19,53.25,0.779428571428571,0.488114285714286,0.356828571428571,-16.5951428571429,6.92428571428572,-23.0771428571429,0.365,-0.70706,-0.12958,-0.80884,21.6788888888889,-2.92777777777778,-5.862,150.517333333333,0.8958,0.158016666666667,-0.195383333333333,-46.5,6.157,-14.8933333333333,2.851,-0.876925,-0.25585,-0.271375,-35.615875,1.12799999999999,11.890125,383.71075,0,0,1,1
24-May-2018 12:44:19,53.25,0.779428571428571,0.488114285714286,0.356828571428571,-16.5951428571429,6.92428571428572,-23.0771428571429,0.365,-0.70706,-0.12958,-0.80884,21.6788888888889,-2.92777777777778,-5.862,150.517333333333,0.8958,0.158016666666667,-0.195383333333333,-46.5,6.157,-14.8933333333333,2.851,-0.876925,-0.25585,-0.271375,-35.615875,1.12799999999999,11.890125,383.71075,0,0,1,1
24-May-2018 12:44:19,53.25,0.779428571428571,0.488114285714286,0.356828571428571,-16.5951428571429,6.92428571428572,-23.0771428571429,0.365,-0.70706,-0.12958,-0.80884,21.6788888888889,-2.92777777777778,-5.862,150.517333333333,0.8958,0.158016666666667,-0.195383333333333,-46.5,6.157,-14.8933333333333,2.851,-0.876925,-0.25585,-0.271375,-35.615875,1.12799999999999,11.890125,383.71075,0,0,1,1
24-May-2018 12:44:20,53.7142857142857,0.817057142857143,0.418885714285714,0.431185714285714,-42.16625,-34.42875,-10.88625,1.08766666666667,-0.6868,-0.15282,-0.78748,17.6106666666667,-4.49422222222222,13.3573333333333,149.91,0.786525,0.420975,0.1033,-16.9832,11.498,-0.909999999999998,2.198,0.304033333333333,-0.2282,0.211966666666667,-15.5795,-36.5855,-174.48,525.5045,1,1,1,1
24-May-2018 12:44:20,53.7142857142857,0.817057142857143,0.418885714285714,0.431185714285714,-42.16625,-34.42875,-10.88625,1.08766666666667,-0.6868,-0.15282,-0.78748,17.6106666666667,-4.49422222222222,13.3573333333333,149.91,0.786525,0.420975,0.1033,-16.9832,11.498,-0.909999999999998,2.198,0.304033333333333,-0.2282,0.211966666666667,-15.5795,-36.5855,-174.48,525.5045,1,1,1,1
24-May-2018 12:44:20,53.7142857142857,0.817057142857143,0.418885714285714,0.431185714285714,-42.16625,-34.42875,-10.88625,1.08766666666667,-0.6868,-0.15282,-0.78748,17.6106666666667,-4.49422222222222,13.3573333333333,149.91,0.786525,0.420975,0.1033,-16.9832,11.498,-0.909999999999998,2.198,0.304033333333333,-0.2282,0.211966666666667,-15.5795,-36.5855,-174.48,525.5045,1,1,1,1
24-May-2018 12:44:20,53.7142857142857,0.817057142857143,0.418885714285714,0.431185714285714,-42.16625,-34.42875,-10.88625,1.08766666666667,-0.6868,-0.15282,-0.78748,17.6106666666667,-4.49422222222222,13.3573333333333,149.91,0.786525,0.420975,0.1033,-16.9832,11.498,-0.909999999999998,2.198,0.304033333333333,-0.2282,0.211966666666667,-15.5795,-36.5855,-174.48,525.5045,1,1,1,1
24-May-2018 12:44:21,54.2222222222222,0.833585714285714,0.00655714285714286,0.227571428571429,12.0971428571429,-1.049,17.6121428571429,2.194,-0.657675,-0.097925,-0.78495,-3.1973,2.9321,8.6814,149.91,0.856933333333333,0.175533333333333,0.428516666666667,2.79125,13.624,10.0435,3.14425,0.4978,0.29734,0.28354,26.327125,34.924,76.356625,1000.154,1,1,1,1
24-May-2018 12:44:21,54.2222222222222,0.833585714285714,0.00655714285714286,0.227571428571429,12.0971428571429,-1.049,17.6121428571429,2.194,-0.657675,-0.097925,-0.78495,-3.1973,2.9321,8.6814,149.91,0.856933333333333,0.175533333333333,0.428516666666667,2.79125,13.624,10.0435,3.14425,0.4978,0.29734,0.28354,26.327125,34.924,76.356625,1000.154,1,1,1,1
24-May-2018 12:44:21,54.2222222222222,0.833585714285714,0.00655714285714286,0.227571428571429,12.0971428571429,-1.049,17.6121428571429,2.194,-0.657675,-0.097925,-0.78495,-3.1973,2.9321,8.6814,149.91,0.856933333333333,0.175533333333333,0.428516666666667,2.79125,13.624,10.0435,3.14425,0.4978,0.29734,0.28354,26.327125,34.924,76.356625,1000.154,1,1,1,1
24-May-2018 12:44:21,54.2222222222222,0.833585714285714,0.00655714285714286,0.227571428571429,12.0971428571429,-1.049,17.6121428571429,2.194,-0.657675,-0.097925,-0.78495,-3.1973,2.9321,8.6814,149.91,0.856933333333333,0.175533333333333,0.428516666666667,2.79125,13.624,10.0435,3.14425,0.4978,0.29734,0.28354,26.327125,34.924,76.356625,1000.154,1,1,1,1
24-May-2018 12:44:22,54,0.917775,-0.163225,0.266225,23.814625,7.021125,3.339125,2.194,-0.66714,-0.02864,-0.80694,-13.9222222222222,8.60866666666667,-2.60666666666667,142.485,0.85325,0.220383333333333,0.423583333333333,23.7281428571429,-3.824,5.80942857142857,4.161,-1.00956666666667,-0.213166666666667,0.344866666666667,-76.32225,79.51225,244.5885,995.764,1,1,1,1
24-May-2018 12:44:22,54,0.917775,-0.163225,0.266225,23.814625,7.021125,3.339125,2.194,-0.66714,-0.02864,-0.80694,-13.9222222222222,8.60866666666667,-2.60666666666667,142.485,0.85325,0.220383333333333,0.423583333333333,23.7281428571429,-3.824,5.80942857142857,4.161,-1.00956666666667,-0.213166666666667,0.344866666666667,-76.32225,79.51225,244.5885,995.764,1,1,1,1
24-May-2018 12:44:22,54,0.917775,-0.163225,0.266225,23.814625,7.021125,3.339125,2.194,-0.66714,-0.02864,-0.80694,-13.9222222222222,8.60866666666667,-2.60666666666667,142.485,0.85325,0.220383333333333,0.423583333333333,23.7281428571429,-3.824,5.80942857142857,4.161,-1.00956666666667,-0.213166666666667,0.344866666666667,-76.32225,79.51225,244.5885,995.764,1,1,1,1
24-May-2018 12:44:22,54,0.917775,-0.163225,0.266225,23.814625,7.021125,3.339125,2.194,-0.66714,-0.02864,-0.80694,-13.9222222222222,8.60866666666667,-2.60666666666667,142.485,0.85325,0.220383333333333,0.423583333333333,23.7281428571429,-3.824,5.80942857142857,4.161,-1.00956666666667,-0.213166666666667,0.344866666666667,-76.32225,79.51225,244.5885,995.764,1,1,1,1
24-May-2018 12:44:23,54,0.908414285714286,0.0234571428571428,0.337328571428571,6.1475,-2.24,2.89166666666667,2.194,-0.6444,0.0138666666666667,-0.8362,-10.7842857142857,11.9642857142857,-3.88857142857143,140.01,0.94895,0.22765,0.3218,-2.374,-3.07766666666667,-3.27,5.036,-0.962,-0.022275,0.293125,17.256,13.5363333333333,-5.26433333333333,829.3895,1,1,1,1
24-May-2018 12:44:23,54,0.908414285714286,0.0234571428571428,0.337328571428571,6.1475,-2.24,2.89166666666667,2.194,-0.6444,0.0138666666666667,-0.8362,-10.7842857142857,11.9642857142857,-3.88857142857143,140.01,0.94895,0.22765,0.3218,-2.374,-3.07766666666667,-3.27,5.036,-0.962,-0.022275,0.293125,17.256,13.5363333333333,-5.26433333333333,829.3895,1,1,1,1
24-May-2018 12:44:23,54,0.908414285714286,0.0234571428571428,0.337328571428571,6.1475,-2.24,2.89166666666667,2.194,-0.6444,0.0138666666666667,-0.8362,-10.7842857142857,11.9642857142857,-3.88857142857143,140.01,0.94895,0.22765,0.3218,-2.374,-3.07766666666667,-3.27,5.036,-0.962,-0.022275,0.293125,17.256,13.5363333333333,-5.26433333333333,829.3895,1,1,1,1
24-May-2018 12:44:23,54,0.908414285714286,0.0234571428571428,0.337328571428571,6.1475,-2.24,2.89166666666667,2.194,-0.6444,0.0138666666666667,-0.8362,-10.7842857142857,11.9642857142857,-3.88857142857143,140.01,0.94895,0.22765,0.3218,-2.374,-3.07766666666667,-3.27,5.036,-0.962,-0.022275,0.293125,17.256,13.5363333333333,-5.26433333333333,829.3895,1,1,1,1
24-May-2018 12:44:24,54,0.878742857142857,-0.0434142857142857,0.3653,7.90942857142857,3.76328571428571,-2.01614285714286,2.194,-0.63785,0.013975,-0.8516,-2.74075,10.44725,-1.79575,140.01,0.8024,0.25235,0.387,39.268,-8.273,18.075,5.3165,-0.967333333333333,-0.205233333333333,0.1159,-19.17675,-4.39,-14.67975,761.3065,1,1,1,1
24-May-2018 12:44:24,54,0.878742857142857,-0.0434142857142857,0.3653,7.90942857142857,3.76328571428571,-2.01614285714286,2.194,-0.63785,0.013975,-0.8516,-2.74075,10.44725,-1.79575,140.01,0.8024,0.25235,0.387,39.268,-8.273,18.075,5.3165,-0.967333333333333,-0.205233333333333,0.1159,-19.17675,-4.39,-14.67975,761.3065,1,1,1,1
24-May-2018 12:44:24,54,0.878742857142857,-0.0434142857142857,0.3653,7.90942857142857,3.76328571428571,-2.01614285714286,2.194,-0.63785,0.013975,-0.8516,-2.74075,10.44725,-1.79575,140.01,0.8024,0.25235,0.387,39.268,-8.273,18.075,5.3165,-0.967333333333333,-0.205233333333333,0.1159,-19.17675,-4.39,-14.67975,761.3065,1,1,1,1
24-May-2018 12:44:24,54,0.878742857142857,-0.0434142857142857,0.3653,7.90942857142857,3.76328571428571,-2.01614285714286,2.194,-0.63785,0.013975,-0.8516,-2.74075,10.44725,-1.79575,140.01,0.8024,0.25235,0.387,39.268,-8.273,18.075,5.3165,-0.967333333333333,-0.205233333333333,0.1159,-19.17675,-4.39,-14.67975,761.3065,1,1,1,1
24-May-2018 12:44:25,53.7142857142857,0.637744444444444,0.2779,-0.0328,-5.37125,-14.256375,-25.585,2.194,-0.5846,0.01238,-0.84732,-7.985,19.822125,-7.384875,148.967,0.5449,0.2652,0.266475,25.5056666666667,8.54333333333333,-1.64666666666667,5.137,-0.98815,-0.1539,-0.11125,-16.8065,-14.1765,-121.249,855.794333333333,0,0,1,1
24-May-2018 12:44:25,53.7142857142857,0.637744444444444,0.2779,-0.0328,-5.37125,-14.256375,-25.585,2.194,-0.5846,0.01238,-0.84732,-7.985,19.822125,-7.384875,148.967,0.5449,0.2652,0.266475,25.5056666666667,8.54333333333333,-1.64666666666667,5.137,-0.98815,-0.1539,-0.11125,-16.8065,-14.1765,-121.249,855.794333333333,0,0,1,1
24-May-2018 12:44:25,53.7142857142857,0.637744444444444,0.2779,-0.0328,-5.37125,-14.256375,-25.585,2.194,-0.5846,0.01238,-0.84732,-7.985,19.822125,-7.384875,148.967,0.5449,0.2652,0.266475,25.5056666666667,8.54333333333333,-1.64666666666667,5.137,-0.98815,-0.1539,-0.11125,-16.8065,-14.1765,-121.249,855.794333333333,0,0,1,1
24-May-2018 12:44:25,53.7142857142857,0.637744444444444,0.2779,-0.0328,-5.37125,-14.256375,-25.585,0,-0.5846,0.01238,-0.84732,-7.985,19.822125,-7.384875,148.967,0.5449,0.2652,0.266475,25.5056666666667,8.54333333333333,-1.64666666666667,5.137,-0.98815,-0.1539,-0.11125,-16.8065,-14.1765,-121.249,855.794333333333,0,0,1,1
24-May-2018 12:44:26,53.5,0.19516,0.86864,-0.16266,-30.16,49.585,0.630166666666667,19.2704285714286,-0.52554,0.04212,-0.90694,-8.97888888888889,6.36188888888889,-4.61222222222222,157.924,0.900033333333333,-0.52,-0.445966666666667,23.6075,-138.8375,109.805,2.6955,-0.363414285714286,-0.601528571428571,0.984157142857143,-5.51816666666667,1.71733333333333,7.76433333333333,753.9868,0,0,1,1
24-May-2018 12:44:26,53.5,0.19516,0.86864,-0.16266,-30.16,49.585,0.630166666666667,19.2704285714286,-0.52554,0.04212,-0.90694,-8.97888888888889,6.36188888888889,-4.61222222222222,157.924,0.900033333333333,-0.52,-0.445966666666667,23.6075,-138.8375,109.805,2.6955,-0.363414285714286,-0.601528571428571,0.984157142857143,-5.51816666666667,1.71733333333333,7.76433333333333,753.9868,0,0,1,1
24-May-2018 12:44:26,53.5,0.19516,0.86864,-0.16266,-30.16,49.585,0.630166666666667,19.2704285714286,-0.52554,0.04212,-0.90694,-8.97888888888889,6.36188888888889,-4.61222222222222,157.924,0.900033333333333,-0.52,-0.445966666666667,23.6075,-138.8375,109.805,2.6955,-0.363414285714286,-0.601528571428571,0.984157142857143,-5.51816666666667,1.71733333333333,7.76433333333333,753.9868,0,0,1,1
24-May-2018 12:44:26,53.5,0.19516,0.86864,-0.16266,-30.16,49.585,0.630166666666667,19.2704285714286,-0.52554,0.04212,-0.90694,-8.97888888888889,6.36188888888889,-4.61222222222222,157.924,0.900033333333333,-0.52,-0.445966666666667,23.6075,-138.8375,109.805,2.6955,-0.363414285714286,-0.601528571428571,0.984157142857143,-5.51816666666667,1.71733333333333,7.76433333333333,753.9868,0,0,1,1
