TIME,HELMET_RAW,BELT_ACC_X,BELT_ACC_Y,BELT_ACC_Z,BELT_ANG_X,BELT_ANG_Y,BELT_ANG_Z,BELT_LUMINOSITY,NECK_ACC_X,NECK_ACC_Y,NECK_ACC_Z,NECK_ANG_X,NECK_ANG_Y,NECK_ANG_Z,NECK_LUMINOSITY,PCKT_ACC_X,PCKT_ACC_Y,PCKT_ACC_Z,PCKT_ANG_X,PCKT_ANG_Y,PCKT_ANG_Z,PCKT_LUMINOSITY,WRST_ACC_X,WRST_ACC_Y,WRST_ACC_Z,WRST_ANG_X,WRST_ANG_Y,WRST_ANG_Z,WRST_LUMINOSITY,IR_1,IR_2,IR_3,IR_4
24-May-2018 12:43:52,52,0.161388888888889,0.926533333333333,-0.3564,-0.810444444444445,0.373666666666667,0.555888888888889,9.62,-0.78088,-0.07942,-0.72342,8.353,2.6835,24.296,135.361,0.09362,-0.30024,-0.8802,-0.8175,-1.1075,-0.21,1.54433333333333,-0.31348,0.05348,0.94612,-0.705571428571429,1.24557142857143,-0.984428571428571,751.552,1,1,1,1
24-May-2018 12:43:52,52,0.161388888888889,0.926533333333333,-0.3564,-0.810444444444445,0.373666666666667,0.555888888888889,9.62,-0.78088,-0.07942,-0.72342,8.353,2.6835,24.296,135.361,0.09362,-0.30024,-0.8802,-0.8175,-1.1075,-0.21,1.54433333333333,-0.31348,0.05348,0.94612,-0.705571428571429,1.24557142857143,-0.984428571428571,751.552,1,1,1,1
24-May-2018 12:43:52,52,0.161388888888889,0.926533333333333,-0.3564,-0.810444444444445,0.373666666666667,0.555888888888889,9.62,-0.78088,-0.07942,-0.72342,8.353,2.6835,24.296,135.361,0.09362,-0.30024,-0.8802,-0.8175,-1.1075,-0.21,1.54433333333333,-0.31348,0.05348,0.94612,-0.705571428571429,1.24557142857143,-0.984428571428571,751.552,1,1,1,1
24-May-2018 12:43:52,52,0.161388888888889,0.926533333333333,-0.3564,-0.810444444444445,0.373666666666667,0.555888888888889,9.62,-0.78088,-0.07942,-0.72342,8.353,2.6835,24.296,135.361,0.09362,-0.30024,-0.8802,-0.8175,-1.1075,-0.21,1.54433333333333,-0.31348,0.05348,0.94612,-0.705571428571429,1.24557142857143,-0.984428571428571,0,1,1,1,1
24-May-2018 12:43:53,675.625,0.16297,0.93477,-0.33259,0.838875,-0.03475,0.07,9.62,-0.837128571428572,0.112028571428571,-0.746028571428571,-29.6983333333333,12.4033333333333,11.0551666666667,132.85075,0.091425,-0.290875,-0.88125,-0.97,-0.766666666666667,-0.32,1.54433333333333,-0.3225,0.03395,0.9454,-1.988,0.0976,0.1586,753.529,1,1,1,1
24-May-2018 12:43:53,675.625,0.16297,0.93477,-0.33259,0.838875,-0.03475,0.07,9.62,-0.837128571428572,0.112028571428571,-0.746028571428571,-29.6983333333333,12.4033333333333,11.0551666666667,132.85075,0.091425,-0.290875,-0.88125,-0.97,-0.766666666666667,-0.32,1.54433333333333,-0.3225,0.03395,0.9454,-1.988,0.0976,0.1586,753.529,1,1,1,1
24-May-2018 12:43:53,675.625,0.16297,0.93477,-0.33259,0.838875,-0.03475,0.07,9.62,-0.837128571428572,0.112028571428571,-0.746028571428571,-29.6983333333333,12.4033333333333,11.0551666666667,132.85075,0.091425,-0.290875,-0.88125,-0.97,-0.766666666666667,-0.32,1.54433333333333,-0.3225,0.03395,0.9454,-1.988,0.0976,0.1586,753.529,1,1,1,1
24-May-2018 12:43:53,675.625,0.16297,0.93477,-0.33259,0.838875,-0.03475,0.07,9.62,-0.837128571428572,0.112028571428571,-0.746028571428571,-29.6983333333333,12.4033333333333,11.0551666666667,132.85075,0.091425,-0.290875,-0.88125,-0.97,-0.766666666666667,-0.32,1.54433333333333,-0.3225,0.03395,0.9454,-1.988,0.0976,0.1586,753.529,1,1,1,1
24-May-2018 12:43:54,566.2,0.155314285714286,0.927742857142857,-0.355842857142857,1.49416666666667,-0.555,-0.0376666666666666,10.121,-0.74486,0.19316,-0.63372,-1.956625,-17.48,0.377,135.237,0.0947666666666667,-0.291466666666667,-0.884266666666667,-0.1312,-0.91,-0.264,1.54433333333333,-0.337533333333333,0.0510833333333333,0.948733333333333,3.252,4.00416666666667,0.386,765.143,1,1,1,1
24-May-2018 12:43:54,566.2,0.155314285714286,0.927742857142857,-0.355842857142857,1.49416666666667,-0.555,-0.0376666666666666,10.121,-0.74486,0.19316,-0.63372,-1.956625,-17.48,0.377,135.237,0.0947666666666667,-0.291466666666667,-0.884266666666667,-0.1312,-0.91,-0.264,1.54433333333333,-0.337533333333333,0.0510833333333333,0.948733333333333,3.252,4.00416666666667,0.386,765.143,1,1,1,1
24-May-2018 12:43:54,566.2,0.155314285714286,0.927742857142857,-0.355842857142857,1.49416666666667,-0.555,-0.0376666666666666,10.121,-0.74486,0.19316,-0.63372,-1.956625,-17.48,0.377,135.237,0.0947666666666667,-0.291466666666667,-0.884266666666667,-0.1312,-0.91,-0.264,1.54433333333333,-0.337533333333333,0.0510833333333333,0.948733333333333,3.252,4.00416666666667,0.386,765.143,1,1,1,1
24-May-2018 12:43:54,566.2,0.155314285714286,0.927742857142857,-0.355842857142857,1.49416666666667,-0.555,-0.0376666666666666,10.121,-0.74486,0.19316,-0.63372,-1.956625,-17.48,0.377,135.237,0.0947666666666667,-0.291466666666667,-0.884266666666667,-0.1312,-0.91,-0.264,1.54433333333333,-0.337533333333333,0.0510833333333333,0.948733333333333,3.252,4.00416666666667,0.386,765.143,1,1,1,1
24-May-2018 12:43:55,819.333333333333,0.159057142857143,0.957028571428571,-0.365385714285714,10.5598,-1.3614,6.7074,10.1648333333333,-0.86584,0.18402,-0.73634,-0.4782,7.8349,-33.8,138.46,0.0949,-0.2948,-0.8838,-0.491666666666667,-1.07333333333333,-0.24,1.54433333333333,-0.6767,0.256,1.15265,32.096,16.044125,29.89325,765.18225,1,1,1,1
24-May-2018 12:43:55,819.333333333333,0.159057142857143,0.957028571428571,-0.365385714285714,10.5598,-1.3614,6.7074,10.1648333333333,-0.86584,0.18402,-0.73634,-0.4782,7.8349,-33.8,138.46,0.0949,-0.2948,-0.8838,-0.491666666666667,-1.07333333333333,-0.24,1.54433333333333,-0.6767,0.256,1.15265,32.096,16.044125,29.89325,765.18225,1,1,1,1
24-May-2018 12:43:55,819.333333333333,0.159057142857143,0.957028571428571,-0.365385714285714,10.5598,-1.3614,6.7074,10.1648333333333,-0.86584,0.18402,-0.73634,-0.4782,7.8349,-33.8,138.46,0.0949,-0.2948,-0.8838,-0.491666666666667,-1.07333333333333,-0.24,1.54433333333333,-0.6767,0.256,1.15265,32.096,16.044125,29.89325,765.18225,1,1,1,1
24-May-2018 12:43:55,819.333333333333,0.159057142857143,0.957028571428571,-0.365385714285714,10.5598,-1.3614,6.7074,10.1648333333333,-0.86584,0.18402,-0.73634,-0.4782,7.8349,-33.8,138.46,0.0949,-0.2948,-0.8838,-0.491666666666667,-1.07333333333333,-0.24,1.54433333333333,-0.6767,0.256,1.15265,32.096,16.044125,29.89325,765.18225,1,1,1,1
24-May-2018 12:43:56,2047,0.164025,0.70455,-0.609925,25.286,31.012,30.5574,10.648,-0.861825,-0.009475,-0.549775,5.611875,-7.266625,-7.01675,137.6605,0.100966666666667,-0.3324,-0.863633333333333,11.7562,2.537,1.5274,1.54433333333333,-0.379725,0.572525,0.502275,8.8536,126.793,187.0976,742.259,1,1,1,1
24-May-2018 12:43:56,2047,0.164025,0.70455,-0.609925,25.286,31.012,30.5574,10.648,-0.861825,-0.009475,-0.549775,5.611875,-7.266625,-7.01675,137.6605,0.100966666666667,-0.3324,-0.863633333333333,11.7562,2.537,1.5274,1.54433333333333,-0.379725,0.572525,0.502275,8.8536,126.793,187.0976,742.259,1,1,1,1
24-May-2018 12:43:56,2047,0.164025,0.70455,-0.609925,25.286,31.012,30.5574,10.648,-0.861825,-0.009475,-0.549775,5.611875,-7.266625,-7.01675,137.6605,0.100966666666667,-0.3324,-0.863633333333333,11.7562,2.537,1.5274,0,-0.379725,0.572525,0.502275,8.8536,126.793,187.0976,742.259,1,1,1,1
24-May-2018 12:43:56,2047,0.164025,0.70455,-0.609925,25.286,31.012,30.5574,10.648,-0.861825,-0.009475,-0.549775,5.611875,-7.266625,-7.01675,137.6605,0.100966666666667,-0.3324,-0.863633333333333,11.7562,2.537,1.5274,0,-0.379725,0.572525,0.502275,8.8536,126.793,187.0976,742.259,1,1,1,1
24-May-2018 12:43:57,1933.2,0.825316666666667,0.404333333333333,-0.2945,-52.58,3.96285714285714,21.9457142857143,2.57333333333333,-0.86565,-0.075425,-0.582175,11.8936666666667,-0.159555555555555,16.169,133.98025,0.64704,-0.48412,-0.02364,7.4725,13.7525,-74.325,0.5925,-0.57328,-0.63364,0.91586,-29.7812857142857,71.2718571428571,-134.710285714286,897.366333333333,1,1,1,0
24-May-2018 12:43:57,1933.2,0.825316666666667,0.404333333333333,-0.2945,-52.58,3.96285714285714,21.9457142857143,2.57333333333333,-0.86565,-0.075425,-0.582175,11.8936666666667,-0.159555555555555,16.169,133.98025,0.64704,-0.48412,-0.02364,7.4725,13.7525,-74.325,0.5925,-0.57328,-0.63364,0.91586,-29.7812857142857,71.2718571428571,-134.710285714286,897.366333333333,1,1,1,0
24-May-2018 12:43:57,1933.2,0.825316666666667,0.404333333333333,-0.2945,-52.58,3.96285714285714,21.9457142857143,2.57333333333333,-0.86565,-0.075425,-0.582175,11.8936666666667,-0.159555555555555,16.169,133.98025,0.64704,-0.48412,-0.02364,7.4725,13.7525,-74.325,0.5925,-0.57328,-0.63364,0.91586,-29.7812857142857,71.2718571428571,-134.710285714286,897.366333333333,1,1,1,0
24-May-2018 12:43:57,1933.2,0.825316666666667,0.404333333333333,-0.2945,-52.58,3.96285714285714,21.9457142857143,2.57333333333333,-0.86565,-0.075425,-0.582175,11.8936666666667,-0.159555555555555,16.169,133.98025,0.64704,-0.48412,-0.02364,7.4725,13.7525,-74.325,0.5925,-0.57328,-0.63364,0.91586,-29.7812857142857,71.2718571428571,-134.710285714286,897.366333333333,1,1,1,0
24-May-2018 12:43:58,1378.18181818182,0.790316666666667,0.3799,0.36165,-41.6083333333333,40.985,4.99666666666667,1.48825,-0.860175,0.111875,-0.643625,-19.355,1.235,12.763625,125.338,0.820266666666667,0.326666666666667,-0.1821,-55.675,-9.775,-18.7475,2.539,-1.07355,-0.303225,-0.193175,-17.20175,-11.9895,36.50925,524.427333333333,1,1,1,0
24-May-2018 12:43:58,1378.18181818182,0.790316666666667,0.3799,0.36165,-41.6083333333333,40.985,4.99666666666667,1.48825,-0.860175,0.111875,-0.643625,-19.355,1.235,12.763625,125.338,0.820266666666667,0.326666666666667,-0.1821,-55.675,-9.775,-18.7475,2.539,-1.07355,-0.303225,-0.193175,-17.20175,-11.9895,36.50925,524.427333333333,1,1,1,0
24-May-2018 12:43:58,1378.18181818182,0.790316666666667,0.3799,0.36165,-41.6083333333333,40.985,4.99666666666667,1.48825,-0.860175,0.111875,-0.643625,-19.355,1.235,12.763625,125.338,0.820266666666667,0.326666666666667,-0.1821,-55.675,-9.775,-18.7475,2.539,-1.07355,-0.303225,-0.193175,-17.20175,-11.9895,36.50925,524.427333333333,1,1,1,0
24-May-2018 12:43:58,1378.18181818182,0.790316666666667,0.3799,0.36165,-41.6083333333333,40.985,4.99666666666667,1.48825,-0.860175,0.111875,-0.643625,-19.355,1.235,12.763625,125.338,0.820266666666667,0.326666666666667,-0.1821,-55.675,-9.775,-18.7475,2.539,-1.07355,-0.303225,-0.193175,-17.20175,-11.9895,36.50925,524.427333333333,1,1,1,0
24-May-2018 12:43:59,964.888888888889,0.83125,-0.06945,0.325883333333333,7.264,-3.69642857142857,7.75285714285714,6.08133333333333,-0.82845,0.305575,-0.514775,-46,-0.0400000000000002,8.425,128.652,0.837666666666667,0.274516666666667,0.2198,-8.685,13.6105,19.90575,3.07025,-0.91318,-0.16978,0.31386,13.2082,-12.3538,-40.7438,666.366,0,0,1,1
24-May-2018 12:43:59,964.888888888889,0.83125,-0.06945,0.325883333333333,7.264,-3.69642857142857,7.75285714285714,6.08133333333333,-0.82845,0.305575,-0.514775,-46,-0.0400000000000002,8.425,128.652,0.837666666666667,0.274516666666667,0.2198,-8.685,13.6105,19.90575,3.07025,-0.91318,-0.16978,0.31386,13.2082,-12.3538,-40.7438,666.366,0,0,1,1
24-May-2018 12:43:59,964.888888888889,0.83125,-0.06945,0.325883333333333,7.264,-3.69642857142857,7.75285714285714,6.08133333333333,-0.82845,0.305575,-0.514775,-46,-0.0400000000000002,8.425,128.652,0.837666666666667,0.274516666666667,0.2198,-8.685,13.6105,19.90575,3.07025,-0.91318,-0.16978,0.31386,13.2082,-12.3538,-40.7438,666.366,0,0,1,1
24-May-2018 12:43:59,964.888888888889,0.83125,-0.06945,0.325883333333333,7.264,-3.69642857142857,7.75285714285714,6.08133333333333,-0.82845,0.305575,-0.514775,-46,-0.0400000000000002,8.425,128.652,0.837666666666667,0.274516666666667,0.2198,-8.685,13.6105,19.90575,3.07025,-0.91318,-0.16978,0.31386,13.2082,-12.3538,-40.7438,666.366,0,0,1,1
24-May-2018 12:44:00,728.142857142857,0.9055,-0.137585714285714,0.351171428571429,7.88075,2.783875,1.39575,7.0335,-0.831925,0.331925,-0.56725,6.61444444444444,16.0277777777778,-16.1811111111111,128.652,0.832575,0.254625,0.485425,4.8312,-4.1746,-1.1924,3.551,-0.94225,-0.112333333333333,0.182516666666667,0.624875,7.8505,6.27275,666.366,0,1,1,0
24-May-2018 12:44:00,728.142857142857,0.9055,-0.137585714285714,0.351171428571429,7.88075,2.783875,1.39575,7.0335,-0.831925,0.331925,-0.56725,6.61444444444444,16.0277777777778,-16.1811111111111,128.652,0.832575,0.254625,0.485425,4.8312,-4.1746,-1.1924,3.551,-0.94225,-0.112333333333333,0.182516666666667,0.624875,7.8505,6.27275,666.366,0,1,1,0
24-May-2018 12:44:00,728.142857142857,0.9055,-0.137585714285714,0.351171428571429,7.88075,2.783875,1.39575,7.0335,-0.831925,0.331925,-0.56725,6.61444444444444,16.0277777777778,-16.1811111111111,128.652,0.832575,0.254625,0.485425,4.8312,-4.1746,-1.1924,3.551,-0.94225,-0.112333333333333,0.182516666666667,0.624875,7.8505,6.27275,666.366,0,1,1,0
24-May-2018 12:44:00,728.142857142857,0.9055,-0.137585714285714,0.351171428571429,7.88075,2.783875,1.39575,7.0335,-0.831925,0.331925,-0.56725,6.61444444444444,16.0277777777778,-16.1811111111111,128.652,0.832575,0.254625,0.485425,4.8312,-4.1746,-1.1924,3.551,-0.94225,-0.112333333333333,0.182516666666667,0.624875,7.8505,6.27275,0,0,1,1,0
24-May-2018 12:44:01,563.375,0.8840875,-0.0840375,0.3815125,3.01485714285714,4.57142857142857,0.708714285714286,7.0335,-0.85015,0.139425,-0.51145,84.3466666666667,-6.00888888888889,5.56166666666667,126.107,0.8742,0.3783,0.498433333333333,5.43533333333333,-11.0703333333333,4.85733333333333,4.4058,-0.88054,-0.0366,0.2578,-2.87616666666667,6.5245,19.5631666666667,678.9948,1,1,1,1
24-May-2018 12:44:01,563.375,0.8840875,-0.0840375,0.3815125,3.01485714285714,4.57142857142857,0.708714285714286,7.0335,-0.85015,0.139425,-0.51145,84.3466666666667,-6.00888888888889,5.56166666666667,126.107,0.8742,0.3783,0.498433333333333,5.43533333333333,-11.0703333333333,4.85733333333333,4.4058,-0.88054,-0.0366,0.2578,-2.87616666666667,6.5245,19.5631666666667,678.9948,1,1,1,1
24-May-2018 12:44:01,563.375,0.8840875,-0.0840375,0.3815125,3.01485714285714,4.57142857142857,0.708714285714286,7.0335,-0.85015,0.139425,-0.51145,84.3466666666667,-6.00888888888889,5.56166666666667,126.107,0.8742,0.3783,0.498433333333333,5.43533333333333,-11.0703333333333,4.85733333333333,4.4058,-0.88054,-0.0366,0.2578,-2.87616666666667,6.5245,19.5631666666667,678.9948,1,1,1,1
24-May-2018 12:44:01,563.375,0.8840875,-0.0840375,0.3815125,3.01485714285714,4.57142857142857,0.708714285714286,7.0335,-0.85015,0.139425,-0.51145,84.3466666666667,-6.00888888888889,5.56166666666667,126.107,0.8742,0.3783,0.498433333333333,5.43533333333333,-11.0703333333333,4.85733333333333,4.4058,-0.88054,-0.0366,0.2578,-2.87616666666667,6.5245,19.5631666666667,678.9948,1,1,1,1
