TIME,HELMET_RAW,BELT_ACC_X,BELT_ACC_Y,BELT_ACC_Z,BELT_ANG_X,BELT_ANG_Y,BELT_ANG_Z,BELT_LUMINOSITY,NECK_ACC_X,NECK_ACC_Y,NECK_ACC_Z,NECK_ANG_X,NECK_ANG_Y,NECK_ANG_Z,NECK_LUMINOSITY,PCKT_ACC_X,PCKT_ACC_Y,PCKT_ACC_Z,PCKT_ANG_X,PCKT_ANG_Y,PCKT_ANG_Z,PCKT_LUMINOSITY,WRST_ACC_X,WRST_ACC_Y,WRST_ACC_Z,WRST_ANG_X,WRST_ANG_Y,WRST_ANG_Z,WRST_LUMINOSITY,IR_1,IR_2,IR_3,IR_4
24-May-2018 14:30:58,-221.222222222222,0.313916666666667,0.0949666666666667,-0.9128,0.61,0.1,0.5002,10.134,0,0,0,0,0,0,0,-0.42045,0.830233333333333,0.464283333333333,-0.606666666666667,-0.951666666666667,-0.209833333333333,1.738,-0.16266,-0.60638,0.82082,-23.086875,6.5015,17.179875,835.242666666667,1,1,1,1
24-May-2018 14:30:58,-221.222222222222,0.313916666666667,0.0949666666666667,-0.9128,0.61,0.1,0.5002,10.134,0,0,0,0,0,0,0,-0.42045,0.830233333333333,0.464283333333333,-0.606666666666667,-0.951666666666667,-0.209833333333333,1.738,-0.16266,-0.60638,0.82082,-23.086875,6.5015,17.179875,835.242666666667,1,1,1,1
24-May-2018 14:30:58,-221.222222222222,0.313916666666667,0.0949666666666667,-0.9128,0.61,0.1,0.5002,10.134,0,0,0,0,0,0,0,-0.42045,0.830233333333333,0.464283333333333,-0.606666666666667,-0.951666666666667,-0.209833333333333,1.738,-0.16266,-0.60638,0.82082,-23.086875,6.5015,17.179875,835.242666666667,1,1,1,1
24-May-2018 14:30:58,-221.222222222222,0.313916666666667,0.0949666666666667,-0.9128,0.61,0.1,0.5002,10.134,0,0,0,0,0,0,0,-0.42045,0.830233333333333,0.464283333333333,-0.606666666666667,-0.951666666666667,-0.209833333333333,1.738,-0.16266,-0.60638,0.82082,-23.086875,6.5015,17.179875,835.242666666667,1,1,1,1
24-May-2018 14:30:59,-221.222222222222,0.310844444444444,0.0958111111111111,-0.914066666666667,0.556625,0.214625,0.50325,10.134,0,0,0,0,0,0,0,-0.42166,0.82824,0.46466,-0.618,-0.628,-0.2036,1.742,0.44495,-0.013925,0.31145,26.1993333333333,-93.9515,36.1585,892.573666666667,0,0,1,1
24-May-2018 14:30:59,-221.222222222222,0.310844444444444,0.0958111111111111,-0.914066666666667,0.556625,0.214625,0.50325,10.134,0,0,0,0,0,0,0,-0.42166,0.82824,0.46466,-0.618,-0.628,-0.2036,1.742,0.44495,-0.013925,0.31145,26.1993333333333,-93.9515,36.1585,892.573666666667,0,0,1,1
24-May-2018 14:30:59,-221.222222222222,0.310844444444444,0.0958111111111111,-0.914066666666667,0.556625,0.214625,0.50325,10.134,0,0,0,0,0,0,0,-0.42166,0.82824,0.46466,-0.618,-0.628,-0.2036,1.742,0.44495,-0.013925,0.31145,26.1993333333333,-93.9515,36.1585,892.573666666667,0,0,1,1
24-May-2018 14:30:59,-221.222222222222,0.310844444444444,0.0958111111111111,-0.914066666666667,0.556625,0.214625,0.50325,10.134,0,0,0,0,0,0,0,-0.42166,0.82824,0.46466,-0.618,-0.628,-0.2036,1.742,0.44495,-0.013925,0.31145,26.1993333333333,-93.9515,36.1585,892.573666666667,0,0,1,1
24-May-2018 14:31:00,-221.222222222222,0.314775,0.094,-0.9127125,0.62525,0.320875,0.488,10.134,0,0,0,0,0,0,0,-0.422066666666667,0.82855,0.46065,-0.565555555555556,-0.857777777777778,-0.26,1.742,1.09436,-0.23668,-0.02314,-20.8972857142857,-18.789,19.2772857142857,621.331,0,0,1,1
24-May-2018 14:31:00,-221.222222222222,0.314775,0.094,-0.9127125,0.62525,0.320875,0.488,10.134,0,0,0,0,0,0,0,-0.422066666666667,0.82855,0.46065,-0.565555555555556,-0.857777777777778,-0.26,1.742,1.09436,-0.23668,-0.02314,-20.8972857142857,-18.789,19.2772857142857,621.331,0,0,1,1
24-May-2018 14:31:00,-221.222222222222,0.314775,0.094,-0.9127125,0.62525,0.320875,0.488,10.134,0,0,0,0,0,0,0,-0.422066666666667,0.82855,0.46065,-0.565555555555556,-0.857777777777778,-0.26,1.742,1.09436,-0.23668,-0.02314,-20.8972857142857,-18.789,19.2772857142857,621.331,0,0,1,1
24-May-2018 14:31:00,-221.222222222222,0.314775,0.094,-0.9127125,0.62525,0.320875,0.488,10.134,0,0,0,0,0,0,0,-0.422066666666667,0.82855,0.46065,-0.565555555555556,-0.857777777777778,-0.26,1.742,1.09436,-0.23668,-0.02314,-20.8972857142857,-18.789,19.2772857142857,621.331,0,0,1,1
24-May-2018 14:31:01,-221.222222222222,0.3126,0.0957,-0.911057142857143,0.436,-0.233714285714286,0.200428571428571,10.134,0,0,0,0,0,0,0,-0.426314285714286,0.829114285714286,0.462585714285714,-0.82,-0.901666666666667,0.682333333333333,1.742,0.872642857142857,-0.376928571428571,-0.172728571428571,21.7072857142857,17.0818571428571,-0.295142857142855,334.537,1,1,1,1
24-May-2018 14:31:01,-221.222222222222,0.3126,0.0957,-0.911057142857143,0.436,-0.233714285714286,0.200428571428571,10.134,0,0,0,0,0,0,0,-0.426314285714286,0.829114285714286,0.462585714285714,-0.82,-0.901666666666667,0.682333333333333,1.742,0.872642857142857,-0.376928571428571,-0.172728571428571,21.7072857142857,17.0818571428571,-0.295142857142855,334.537,1,1,1,1
24-May-2018 14:31:01,-221.222222222222,0.3126,0.0957,-0.911057142857143,0.436,-0.233714285714286,0.200428571428571,10.134,0,0,0,0,0,0,0,-0.426314285714286,0.829114285714286,0.462585714285714,-0.82,-0.901666666666667,0.682333333333333,1.742,0.872642857142857,-0.376928571428571,-0.172728571428571,21.7072857142857,17.0818571428571,-0.295142857142855,334.537,1,1,1,1
24-May-2018 14:31:01,-221.222222222222,0.3126,0.0957,-0.911057142857143,0.436,-0.233714285714286,0.200428571428571,10.134,0,0,0,0,0,0,0,-0.426314285714286,0.829114285714286,0.462585714285714,-0.82,-0.901666666666667,0.682333333333333,1.742,0.872642857142857,-0.376928571428571,-0.172728571428571,21.7072857142857,17.0818571428571,-0.295142857142855,334.537,1,1,1,1
24-May-2018 14:31:02,-221.222222222222,0.3432,0.12445,-0.88825,-1.96733333333333,9.469,-5.21,10.192,0,0,0,0,0,0,0,-0.352,0.80904,0.4639,10.3064,-3.9676,2.5624,1.75925,0.19535,-0.322725,0.188025,48.2926666666667,-8.3335,169.806833333333,442.3218,0,0,1,0.5
24-May-2018 14:31:02,-221.222222222222,0.3432,0.12445,-0.88825,-1.96733333333333,9.469,-5.21,10.192,0,0,0,0,0,0,0,-0.352,0.80904,0.4639,10.3064,-3.9676,2.5624,1.75925,0.19535,-0.322725,0.188025,48.2926666666667,-8.3335,169.806833333333,442.3218,0,0,1,0.5
24-May-2018 14:31:02,-221.222222222222,0.3432,0.12445,-0.88825,-1.96733333333333,9.469,-5.21,10.192,0,0,0,0,0,0,0,-0.352,0.80904,0.4639,10.3064,-3.9676,2.5624,1.75925,0.19535,-0.322725,0.188025,48.2926666666667,-8.3335,169.806833333333,442.3218,0,0,1,0.5
24-May-2018 14:31:02,-221.222222222222,0.3432,0.12445,-0.88825,-1.96733333333333,9.469,-5.21,10.192,0,0,0,0,0,0,0,-0.352,0.80904,0.4639,10.3064,-3.9676,2.5624,1.75925,0.19535,-0.322725,0.188025,48.2926666666667,-8.3335,169.806833333333,442.3218,0,0,1,0.5
24-May-2018 14:31:03,-221.222222222222,0.4121,0.12825,-0.8568,4.5735,3.69,4.7255,7.43866666666667,0,0,0,0,0,0,0,-0.47378,0.8362,0.46962,-21.1242857142857,-22.36,-22.7904285714286,1.684,-0.6002,-0.2872,0.6312,-78.5656666666667,-2.632,-5.02033333333333,845.537666666667,1,1,1,0
24-May-2018 14:31:03,-221.222222222222,0.4121,0.12825,-0.8568,4.5735,3.69,4.7255,7.43866666666667,0,0,0,0,0,0,0,-0.47378,0.8362,0.46962,-21.1242857142857,-22.36,-22.7904285714286,1.684,-0.6002,-0.2872,0.6312,-78.5656666666667,-2.632,-5.02033333333333,845.537666666667,1,1,1,0
24-May-2018 14:31:03,-221.222222222222,0.4121,0.12825,-0.8568,4.5735,3.69,4.7255,7.43866666666667,0,0,0,0,0,0,0,-0.47378,0.8362,0.46962,-21.1242857142857,-22.36,-22.7904285714286,1.684,-0.6002,-0.2872,0.6312,-78.5656666666667,-2.632,-5.02033333333333,845.537666666667,1,1,1,0
24-May-2018 14:31:03,-221.222222222222,0.4121,0.12825,-0.8568,4.5735,3.69,4.7255,7.43866666666667,0,0,0,0,0,0,0,-0.47378,0.8362,0.46962,-21.1242857142857,-22.36,-22.7904285714286,1.684,-0.6002,-0.2872,0.6312,-78.5656666666667,-2.632,-5.02033333333333,845.537666666667,1,1,1,0
24-May-2018 14:31:04,-221.222222222222,-0.03705,0.13895,-0.858275,1.404,-80.55,6.095,0.4926,0,0,0,0,0,0,0,-0.0987,0.18438,0.71172,-75.865,-38.583,72.45175,0.6755,-0.73695,-0.298075,0.4893,-56.978,-23.17075,24.5275,868.123,1,1,1,0
24-May-2018 14:31:04,-221.222222222222,-0.03705,0.13895,-0.858275,1.404,-80.55,6.095,0.4926,0,0,0,0,0,0,0,-0.0987,0.18438,0.71172,-75.865,-38.583,72.45175,0.6755,-0.73695,-0.298075,0.4893,-56.978,-23.17075,24.5275,868.123,1,1,1,0
24-May-2018 14:31:04,-221.222222222222,-0.03705,0.13895,-0.858275,1.404,-80.55,6.095,0.4926,0,0,0,0,0,0,0,-0.0987,0.18438,0.71172,-75.865,-38.583,72.45175,0.6755,-0.73695,-0.298075,0.4893,-56.978,-23.17075,24.5275,868.123,1,1,1,0
24-May-2018 14:31:04,-221.222222222222,-0.03705,0.13895,-0.858275,1.404,-80.55,6.095,0.4926,0,0,0,0,0,0,0,-0.0987,0.18438,0.71172,-75.865,-38.583,72.45175,0.6755,-0.73695,-0.298075,0.4893,-56.978,-23.17075,24.5275,868.123,1,1,1,0
24-May-2018 14:31:05,-221.222222222222,-0.7802,0.4057,-0.51715,-99.3,0.366,14.14,0.4926,0,0,0,0,0,0,0,-0.8907,-1.257,1.8055,-82,49.1733333333333,130.236666666667,3.152,-0.8067,-0.36795,0.4515,-55.2826666666667,-37.0323333333333,57.4593333333333,868.123,1,1,1,0
24-May-2018 14:31:05,-221.222222222222,-0.7802,0.4057,-0.51715,-99.3,0.366,14.14,0.4926,0,0,0,0,0,0,0,-0.8907,-1.257,1.8055,-82,49.1733333333333,130.236666666667,3.152,-0.8067,-0.36795,0.4515,-55.2826666666667,-37.0323333333333,57.4593333333333,868.123,1,1,1,0
24-May-2018 14:31:05,-221.222222222222,-0.7802,0.4057,-0.51715,-99.3,0.366,14.14,0.4926,0,0,0,0,0,0,0,-0.8907,-1.257,1.8055,-82,49.1733333333333,130.236666666667,3.152,-0.8067,-0.36795,0.4515,-55.2826666666667,-37.0323333333333,57.4593333333333,868.123,1,1,1,0
24-May-2018 14:31:05,-221.222222222222,-0.7802,0.4057,-0.51715,-99.3,0.366,14.14,0,0,0,0,0,0,0,0,-0.8907,-1.257,1.8055,-82,49.1733333333333,130.236666666667,3.152,-0.8067,-0.36795,0.4515,-55.2826666666667,-37.0323333333333,57.4593333333333,0,1,1,1,0
24-May-2018 14:31:06,-221.222222222222,-0.9689,0.167033333333333,0.03395,-60.2625,18.505875,-1.1355,0.116,0,0,0,0,0,0,0,-0.885133333333333,-0.6932,0.2398,-35.5783333333333,2.785,-19.6766666666667,2.57616666666667,-0.197325,-0.5563625,0.318625,6.6602,-16.9024,-38.8522,854.84525,0,1,1,0
24-May-2018 14:31:06,-221.222222222222,-0.9689,0.167033333333333,0.03395,-60.2625,18.505875,-1.1355,0.116,0,0,0,0,0,0,0,-0.885133333333333,-0.6932,0.2398,-35.5783333333333,2.785,-19.6766666666667,2.57616666666667,-0.197325,-0.5563625,0.318625,6.6602,-16.9024,-38.8522,854.84525,0,1,1,0
24-May-2018 14:31:06,-221.222222222222,-0.9689,0.167033333333333,0.03395,-60.2625,18.505875,-1.1355,0.116,0,0,0,0,0,0,0,-0.885133333333333,-0.6932,0.2398,-35.5783333333333,2.785,-19.6766666666667,2.57616666666667,-0.197325,-0.5563625,0.318625,6.6602,-16.9024,-38.8522,854.84525,0,1,1,0
24-May-2018 14:31:06,-221.222222222222,-0.9689,0.167033333333333,0.03395,-60.2625,18.505875,-1.1355,0.116,0,0,0,0,0,0,0,-0.885133333333333,-0.6932,0.2398,-35.5783333333333,2.785,-19.6766666666667,2.57616666666667,-0.197325,-0.5563625,0.318625,6.6602,-16.9024,-38.8522,854.84525,0,1,1,0
24-May-2018 14:31:07,-221.222222222222,-0.980471428571429,0.0335571428571429,-0.243385714285714,-75.34,0.2198,-14.2532,0.344,0,0,0,0,0,0,0,-0.437583333333333,-0.865133333333333,-0.140083333333333,-54.6642857142857,-51.51,-20.8287142857143,2.1054,0.721266666666667,-0.5029,0.478816666666667,31.1078333333333,33.9531666666667,17.815,873.4035,1,1,1,1
24-May-2018 14:31:07,-221.222222222222,-0.980471428571429,0.0335571428571429,-0.243385714285714,-75.34,0.2198,-14.2532,0.344,0,0,0,0,0,0,0,-0.437583333333333,-0.865133333333333,-0.140083333333333,-54.6642857142857,-51.51,-20.8287142857143,2.1054,0.721266666666667,-0.5029,0.478816666666667,31.1078333333333,33.9531666666667,17.815,873.4035,1,1,1,1
24-May-2018 14:31:07,-221.222222222222,-0.980471428571429,0.0335571428571429,-0.243385714285714,-75.34,0.2198,-14.2532,0.344,0,0,0,0,0,0,0,-0.437583333333333,-0.865133333333333,-0.140083333333333,-54.6642857142857,-51.51,-20.8287142857143,2.1054,0.721266666666667,-0.5029,0.478816666666667,31.1078333333333,33.9531666666667,17.815,873.4035,1,1,1,1
24-May-2018 14:31:07,-221.222222222222,-0.980471428571429,0.0335571428571429,-0.243385714285714,-75.34,0.2198,-14.2532,0.344,0,0,0,0,0,0,0,-0.437583333333333,-0.865133333333333,-0.140083333333333,-54.6642857142857,-51.51,-20.8287142857143,2.1054,0.721266666666667,-0.5029,0.478816666666667,31.1078333333333,33.9531666666667,17.815,873.4035,1,1,1,1
