TIME,HELMET_RAW,BELT_ACC_X,BELT_ACC_Y,BELT_ACC_Z,BELT_ANG_X,BELT_ANG_Y,BELT_ANG_Z,BELT_LUMINOSITY,NECK_ACC_X,NECK_ACC_Y,NECK_ACC_Z,NECK_ANG_X,NECK_ANG_Y,NECK_ANG_Z,NECK_LUMINOSITY,PCKT_ACC_X,PCKT_ACC_Y,PCKT_ACC_Z,PCKT_ANG_X,PCKT_ANG_Y,PCKT_ANG_Z,PCKT_LUMINOSITY,WRST_ACC_X,WRST_ACC_Y,WRST_ACC_Z,WRST_ANG_X,WRST_ANG_Y,WRST_ANG_Z,WRST_LUMINOSITY,IR_1,IR_2,IR_3,IR_4
24-May-2018 14:32:35,-221.222222222222,-1.0262,0.05452,-0.2172,-2.00666666666667,0.48,0.377833333333333,0.8035,0,0,0,0,0,0,0,-0.00368,-1.00402,-0.02054,1.833375,-9.569875,-0.372,1.789,-0.39555,-0.34865,0.814866666666667,18.902375,-2.89625,-0.79275,787.024333333333,0,1,1,0
24-May-2018 14:32:35,-221.222222222222,-1.0262,0.05452,-0.2172,-2.00666666666667,0.48,0.377833333333333,0.8035,0,0,0,0,0,0,0,-0.00368,-1.00402,-0.02054,1.833375,-9.569875,-0.372,1.789,-0.39555,-0.34865,0.814866666666667,18.902375,-2.89625,-0.79275,787.024333333333,0,1,1,0
24-May-2018 14:32:35,-221.222222222222,-1.0262,0.05452,-0.2172,-2.00666666666667,0.48,0.377833333333333,0.8035,0,0,0,0,0,0,0,-0.00368,-1.00402,-0.02054,1.833375,-9.569875,-0.372,1.789,-0.39555,-0.34865,0.814866666666667,18.902375,-2.89625,-0.79275,787.024333333333,0,1,1,0
24-May-2018 14:32:35,-221.222222222222,-1.0262,0.05452,-0.2172,-2.00666666666667,0.48,0.377833333333333,0.8035,0,0,0,0,0,0,0,-0.00368,-1.00402,-0.02054,1.833375,-9.569875,-0.372,1.789,-0.39555,-0.34865,0.814866666666667,18.902375,-2.89625,-0.79275,787.024333333333,0,1,1,0
24-May-2018 14:32:36,-221.222222222222,-1.02142,0.15938,-0.23224,-4.7488,-0.4856,-2.3124,0.8035,0,0,0,0,0,0,0,-0.0616875,-0.9788,0.1249875,-12.906,-15.007,-1.8236,1.807,-0.397616666666667,-0.00948333333333334,0.834916666666667,4.486,4.216,-69.7372857142857,839.55375,0,0,1,0
24-May-2018 14:32:36,-221.222222222222,-1.02142,0.15938,-0.23224,-4.7488,-0.4856,-2.3124,0.8035,0,0,0,0,0,0,0,-0.0616875,-0.9788,0.1249875,-12.906,-15.007,-1.8236,1.807,-0.397616666666667,-0.00948333333333334,0.834916666666667,4.486,4.216,-69.7372857142857,839.55375,0,0,1,0
24-May-2018 14:32:36,-221.222222222222,-1.02142,0.15938,-0.23224,-4.7488,-0.4856,-2.3124,0,0,0,0,0,0,0,0,-0.0616875,-0.9788,0.1249875,-12.906,-15.007,-1.8236,1.807,-0.397616666666667,-0.00948333333333334,0.834916666666667,4.486,4.216,-69.7372857142857,839.55375,0,0,1,0
24-May-2018 14:32:36,-221.222222222222,-1.02142,0.15938,-0.23224,-4.7488,-0.4856,-2.3124,0,0,0,0,0,0,0,0,-0.0616875,-0.9788,0.1249875,-12.906,-15.007,-1.8236,1.807,-0.397616666666667,-0.00948333333333334,0.834916666666667,4.486,4.216,-69.7372857142857,839.55375,0,0,1,0
24-May-2018 14:32:37,-221.222222222222,-1.01194,0.04552,-0.17606,-12.0116,-5.9708,-6.188,0.319,0,0,0,0,0,0,0,-0.1934875,-0.833325,0.1646375,16.9114285714286,-12.4764285714286,28.7101428571429,1.75566666666667,0.39976,-0.46734,0.73722,1.70025,22.54575,-101.924,637.058,0,0,0,0
24-May-2018 14:32:37,-221.222222222222,-1.01194,0.04552,-0.17606,-12.0116,-5.9708,-6.188,0.319,0,0,0,0,0,0,0,-0.1934875,-0.833325,0.1646375,16.9114285714286,-12.4764285714286,28.7101428571429,1.75566666666667,0.39976,-0.46734,0.73722,1.70025,22.54575,-101.924,637.058,0,0,0,0
24-May-2018 14:32:37,-221.222222222222,-1.01194,0.04552,-0.17606,-12.0116,-5.9708,-6.188,0.319,0,0,0,0,0,0,0,-0.1934875,-0.833325,0.1646375,16.9114285714286,-12.4764285714286,28.7101428571429,1.75566666666667,0.39976,-0.46734,0.73722,1.70025,22.54575,-101.924,637.058,0,0,0,0
24-May-2018 14:32:37,-221.222222222222,-1.01194,0.04552,-0.17606,-12.0116,-5.9708,-6.188,0.319,0,0,0,0,0,0,0,-0.1934875,-0.833325,0.1646375,16.9114285714286,-12.4764285714286,28.7101428571429,1.75566666666667,0.39976,-0.46734,0.73722,1.70025,22.54575,-101.924,637.058,0,0,0,0
24-May-2018 14:32:38,-221.222222222222,-1.07363333333333,-0.188616666666667,-0.296933333333333,-1.8398,12.196,-38.15,0.319,0,0,0,0,0,0,0,-0.533783333333333,-0.0194833333333333,-0.33785,-10.025,70.0416666666667,53.421,1.6588,1.0507,-0.1133,0.520766666666667,-31.0975714285714,-21.0184285714286,-11.6802857142857,609.4815,0,0,0,0
24-May-2018 14:32:38,-221.222222222222,-1.07363333333333,-0.188616666666667,-0.296933333333333,-1.8398,12.196,-38.15,0.319,0,0,0,0,0,0,0,-0.533783333333333,-0.0194833333333333,-0.33785,-10.025,70.0416666666667,53.421,1.6588,1.0507,-0.1133,0.520766666666667,-31.0975714285714,-21.0184285714286,-11.6802857142857,609.4815,0,0,0,0
24-May-2018 14:32:38,-221.222222222222,-1.07363333333333,-0.188616666666667,-0.296933333333333,-1.8398,12.196,-38.15,0.319,0,0,0,0,0,0,0,-0.533783333333333,-0.0194833333333333,-0.33785,-10.025,70.0416666666667,53.421,1.6588,1.0507,-0.1133,0.520766666666667,-31.0975714285714,-21.0184285714286,-11.6802857142857,609.4815,0,0,0,0
24-May-2018 14:32:38,-221.222222222222,-1.07363333333333,-0.188616666666667,-0.296933333333333,-1.8398,12.196,-38.15,0.319,0,0,0,0,0,0,0,-0.533783333333333,-0.0194833333333333,-0.33785,-10.025,70.0416666666667,53.421,1.6588,1.0507,-0.1133,0.520766666666667,-31.0975714285714,-21.0184285714286,-11.6802857142857,609.4815,0,0,0,0
24-May-2018 14:32:39,-221.222222222222,0.1266,-0.8805625,-0.3505,12.011,-6.08766666666667,-8.19533333333333,0.319,0,0,0,0,0,0,0,-0.584614285714286,0.168214285714286,-0.7579,-4.6522,4.2812,-0.0342,0.160666666666667,-0.101185714285714,-0.585042857142857,0.390828571428571,20.96025,-22.492375,143.1785,698.0615,1,1,0,0
24-May-2018 14:32:39,-221.222222222222,0.1266,-0.8805625,-0.3505,12.011,-6.08766666666667,-8.19533333333333,0.319,0,0,0,0,0,0,0,-0.584614285714286,0.168214285714286,-0.7579,-4.6522,4.2812,-0.0342,0.160666666666667,-0.101185714285714,-0.585042857142857,0.390828571428571,20.96025,-22.492375,143.1785,698.0615,1,1,0,0
24-May-2018 14:32:39,-221.222222222222,0.1266,-0.8805625,-0.3505,12.011,-6.08766666666667,-8.19533333333333,0,0,0,0,0,0,0,0,-0.584614285714286,0.168214285714286,-0.7579,-4.6522,4.2812,-0.0342,0.160666666666667,-0.101185714285714,-0.585042857142857,0.390828571428571,20.96025,-22.492375,143.1785,698.0615,1,1,0,0
24-May-2018 14:32:39,-221.222222222222,0.1266,-0.8805625,-0.3505,12.011,-6.08766666666667,-8.19533333333333,0,0,0,0,0,0,0,0,-0.584614285714286,0.168214285714286,-0.7579,-4.6522,4.2812,-0.0342,0.160666666666667,-0.101185714285714,-0.585042857142857,0.390828571428571,20.96025,-22.492375,143.1785,698.0615,1,1,0,0
24-May-2018 14:32:40,-221.222222222222,0.0744833333333333,-0.900416666666667,-0.35445,-1.56166666666667,-0.251666666666667,0.1135,0.441333333333333,0,0,0,0,0,0,0,-0.530785714285714,0.192585714285714,-0.795985714285714,-0.321666666666667,-1.124,-0.3715,0.160666666666667,-0.670285714285714,-0.399828571428571,0.642085714285714,-28.2834285714286,18.7367142857143,-2.39542857142857,899.6015,1,1,0,0
24-May-2018 14:32:40,-221.222222222222,0.0744833333333333,-0.900416666666667,-0.35445,-1.56166666666667,-0.251666666666667,0.1135,0.441333333333333,0,0,0,0,0,0,0,-0.530785714285714,0.192585714285714,-0.795985714285714,-0.321666666666667,-1.124,-0.3715,0.160666666666667,-0.670285714285714,-0.399828571428571,0.642085714285714,-28.2834285714286,18.7367142857143,-2.39542857142857,899.6015,1,1,0,0
24-May-2018 14:32:40,-221.222222222222,0.0744833333333333,-0.900416666666667,-0.35445,-1.56166666666667,-0.251666666666667,0.1135,0.441333333333333,0,0,0,0,0,0,0,-0.530785714285714,0.192585714285714,-0.795985714285714,-0.321666666666667,-1.124,-0.3715,0.160666666666667,-0.670285714285714,-0.399828571428571,0.642085714285714,-28.2834285714286,18.7367142857143,-2.39542857142857,899.6015,1,1,0,0
24-May-2018 14:32:40,-221.222222222222,0.0744833333333333,-0.900416666666667,-0.35445,-1.56166666666667,-0.251666666666667,0.1135,0.441333333333333,0,0,0,0,0,0,0,-0.530785714285714,0.192585714285714,-0.795985714285714,-0.321666666666667,-1.124,-0.3715,0.160666666666667,-0.670285714285714,-0.399828571428571,0.642085714285714,-28.2834285714286,18.7367142857143,-2.39542857142857,899.6015,1,1,0,0
24-May-2018 14:32:41,-221.222222222222,0.0852333333333333,-0.88615,-0.37625,-0.027,0.124,0.32175,0.43,0,0,0,0,0,0,0,-0.533333333333333,0.194383333333333,-0.785766666666667,-0.614285714285714,-0.858571428571429,-0.308571428571429,0.160666666666667,-0.672585714285714,-0.578528571428571,0.387914285714286,-31.4104285714286,-20.1481428571429,17.6392857142857,839.914,1,1,0,0
24-May-2018 14:32:41,-221.222222222222,0.0852333333333333,-0.88615,-0.37625,-0.027,0.124,0.32175,0.43,0,0,0,0,0,0,0,-0.533333333333333,0.194383333333333,-0.785766666666667,-0.614285714285714,-0.858571428571429,-0.308571428571429,0.160666666666667,-0.672585714285714,-0.578528571428571,0.387914285714286,-31.4104285714286,-20.1481428571429,17.6392857142857,839.914,1,1,0,0
24-May-2018 14:32:41,-221.222222222222,0.0852333333333333,-0.88615,-0.37625,-0.027,0.124,0.32175,0.43,0,0,0,0,0,0,0,-0.533333333333333,0.194383333333333,-0.785766666666667,-0.614285714285714,-0.858571428571429,-0.308571428571429,0.160666666666667,-0.672585714285714,-0.578528571428571,0.387914285714286,-31.4104285714286,-20.1481428571429,17.6392857142857,839.914,1,1,0,0
24-May-2018 14:32:41,-221.222222222222,0.0852333333333333,-0.88615,-0.37625,-0.027,0.124,0.32175,0.43,0,0,0,0,0,0,0,-0.533333333333333,0.194383333333333,-0.785766666666667,-0.614285714285714,-0.858571428571429,-0.308571428571429,0.160666666666667,-0.672585714285714,-0.578528571428571,0.387914285714286,-31.4104285714286,-20.1481428571429,17.6392857142857,839.914,1,1,0,0
24-May-2018 14:32:42,-221.222222222222,0.0852166666666667,-0.88765,-0.376916666666667,0.297166666666667,0.417333333333333,-0.0583333333333333,0.98,0,0,0,0,0,0,0,-0.534314285714286,0.192971428571429,-0.784085714285714,-0.586666666666667,-0.981666666666667,-0.28,0.160666666666667,-0.60376,-0.5923,0.52674,-5.83333333333333,-20.5893333333333,18.0285,850.4385,1,1,1,1
24-May-2018 14:32:42,-221.222222222222,0.0852166666666667,-0.88765,-0.376916666666667,0.297166666666667,0.417333333333333,-0.0583333333333333,0.98,0,0,0,0,0,0,0,-0.534314285714286,0.192971428571429,-0.784085714285714,-0.586666666666667,-0.981666666666667,-0.28,0.160666666666667,-0.60376,-0.5923,0.52674,-5.83333333333333,-20.5893333333333,18.0285,850.4385,1,1,1,1
24-May-2018 14:32:42,-221.222222222222,0.0852166666666667,-0.88765,-0.376916666666667,0.297166666666667,0.417333333333333,-0.0583333333333333,0.98,0,0,0,0,0,0,0,-0.534314285714286,0.192971428571429,-0.784085714285714,-0.586666666666667,-0.981666666666667,-0.28,0.160666666666667,-0.60376,-0.5923,0.52674,-5.83333333333333,-20.5893333333333,18.0285,850.4385,1,1,1,1
24-May-2018 14:32:42,-221.222222222222,0.0852166666666667,-0.88765,-0.376916666666667,0.297166666666667,0.417333333333333,-0.0583333333333333,0.98,0,0,0,0,0,0,0,-0.534314285714286,0.192971428571429,-0.784085714285714,-0.586666666666667,-0.981666666666667,-0.28,0.160666666666667,-0.60376,-0.5923,0.52674,-5.83333333333333,-20.5893333333333,18.0285,850.4385,1,1,1,1
24-May-2018 14:32:43,-221.222222222222,0.0917833333333333,-0.883683333333333,-0.384916666666667,0.133,0.540142857142857,0.0881428571428571,0.715,0,0,0,0,0,0,0,-0.536216666666667,0.194,-0.784333333333333,-0.545,-1.01333333333333,-0.24,0.160666666666667,-0.434871428571429,-0.6273,0.2994,-4.7015,45.82325,-85.585125,795.4815,1,1,1,1
24-May-2018 14:32:43,-221.222222222222,0.0917833333333333,-0.883683333333333,-0.384916666666667,0.133,0.540142857142857,0.0881428571428571,0.715,0,0,0,0,0,0,0,-0.536216666666667,0.194,-0.784333333333333,-0.545,-1.01333333333333,-0.24,0.160666666666667,-0.434871428571429,-0.6273,0.2994,-4.7015,45.82325,-85.585125,795.4815,1,1,1,1
24-May-2018 14:32:43,-221.222222222222,0.0917833333333333,-0.883683333333333,-0.384916666666667,0.133,0.540142857142857,0.0881428571428571,0.715,0,0,0,0,0,0,0,-0.536216666666667,0.194,-0.784333333333333,-0.545,-1.01333333333333,-0.24,0.160666666666667,-0.434871428571429,-0.6273,0.2994,-4.7015,45.82325,-85.585125,795.4815,1,1,1,1
24-May-2018 14:32:43,-221.222222222222,0.0917833333333333,-0.883683333333333,-0.384916666666667,0.133,0.540142857142857,0.0881428571428571,0.715,0,0,0,0,0,0,0,-0.536216666666667,0.194,-0.784333333333333,-0.545,-1.01333333333333,-0.24,0.160666666666667,-0.434871428571429,-0.6273,0.2994,-4.7015,45.82325,-85.585125,795.4815,1,1,1,1
24-May-2018 14:32:44,-221.222222222222,0.0908714285714286,-0.882571428571428,-0.389657142857143,0.57,-0.6255,0.275333333333333,0.201,0,0,0,0,0,0,0,-0.53855,0.1935,-0.78085,-0.588571428571429,-1.008,-0.265714285714286,0.160666666666667,0.140771428571429,-1.03684285714286,-0.181114285714286,-1.47214285714286,-10.27,-1.72471428571429,521.612666666667,1,0,1,1
24-May-2018 14:32:44,-221.222222222222,0.0908714285714286,-0.882571428571428,-0.389657142857143,0.57,-0.6255,0.275333333333333,0.201,0,0,0,0,0,0,0,-0.53855,0.1935,-0.78085,-0.588571428571429,-1.008,-0.265714285714286,0.160666666666667,0.140771428571429,-1.03684285714286,-0.181114285714286,-1.47214285714286,-10.27,-1.72471428571429,521.612666666667,1,0,1,1
24-May-2018 14:32:44,-221.222222222222,0.0908714285714286,-0.882571428571428,-0.389657142857143,0.57,-0.6255,0.275333333333333,0.201,0,0,0,0,0,0,0,-0.53855,0.1935,-0.78085,-0.588571428571429,-1.008,-0.265714285714286,0.160666666666667,0.140771428571429,-1.03684285714286,-0.181114285714286,-1.47214285714286,-10.27,-1.72471428571429,521.612666666667,1,0,1,1
24-May-2018 14:32:44,-221.222222222222,0.0908714285714286,-0.882571428571428,-0.389657142857143,0.57,-0.6255,0.275333333333333,0.201,0,0,0,0,0,0,0,-0.53855,0.1935,-0.78085,-0.588571428571429,-1.008,-0.265714285714286,0.160666666666667,0.140771428571429,-1.03684285714286,-0.181114285714286,-1.47214285714286,-10.27,-1.72471428571429,521.612666666667,1,0,1,1
