TIME,HELMET_RAW,BELT_ACC_X,BELT_ACC_Y,BELT_ACC_Z,BELT_ANG_X,BELT_ANG_Y,BELT_ANG_Z,BELT_LUMINOSITY,NECK_ACC_X,NECK_ACC_Y,NECK_ACC_Z,NECK_ANG_X,NECK_ANG_Y,NECK_ANG_Z,NECK_LUMINOSITY,PCKT_ACC_X,PCKT_ACC_Y,PCKT_ACC_Z,PCKT_ANG_X,PCKT_ANG_Y,PCKT_ANG_Z,PCKT_LUMINOSITY,WRST_ACC_X,WRST_ACC_Y,WRST_ACC_Z,WRST_ANG_X,WRST_ANG_Y,WRST_ANG_Z,WRST_LUMINOSITY,IR_1,IR_2,IR_3,IR_4
24-May-2018 14:32:53,-221.222222222222,0.0908714285714286,-0.882571428571428,-0.389657142857143,0.57,-0.6255,0.275333333333333,0.201,0,0,0,0,0,0,0,-0.235366666666667,-0.981566666666667,0.048,-14.112,-4.66,-3.8496,1.6752,-0.0436,-0.1532,-1.00926666666667,-0.183,-0.156857142857143,-0.0261428571428572,47.9478333333333,1,1,1,1
24-May-2018 14:32:53,-221.222222222222,0.0908714285714286,-0.882571428571428,-0.389657142857143,0.57,-0.6255,0.275333333333333,0.201,0,0,0,0,0,0,0,-0.235366666666667,-0.981566666666667,0.048,-14.112,-4.66,-3.8496,1.6752,-0.0436,-0.1532,-1.00926666666667,-0.183,-0.156857142857143,-0.0261428571428572,47.9478333333333,1,1,1,1
24-May-2018 14:32:53,-221.222222222222,0.0908714285714286,-0.882571428571428,-0.389657142857143,0.57,-0.6255,0.275333333333333,0.201,0,0,0,0,0,0,0,-0.235366666666667,-0.981566666666667,0.048,-14.112,-4.66,-3.8496,1.6752,-0.0436,-0.1532,-1.00926666666667,-0.183,-0.156857142857143,-0.0261428571428572,47.9478333333333,1,1,1,1
24-May-2018 14:32:53,-221.222222222222,0.0908714285714286,-0.882571428571428,-0.389657142857143,0.57,-0.6255,0.275333333333333,0.201,0,0,0,0,0,0,0,-0.235366666666667,-0.981566666666667,0.048,-14.112,-4.66,-3.8496,1.6752,-0.0436,-0.1532,-1.00926666666667,-0.183,-0.156857142857143,-0.0261428571428572,47.9478333333333,1,1,1,1
24-May-2018 14:32:54,-221.222222222222,0.0908714285714286,-0.882571428571428,-0.389657142857143,0.57,-0.6255,0.275333333333333,0.201,0,0,0,0,0,0,0,-0.16775,-0.940975,0.236975,-5.134,-33.782,30.4346,1.7562,-0.0411666666666667,-0.156066666666667,-1.00928333333333,0.4514,0.5856,-0.2318,47.41475,0,0,1,1
24-May-2018 14:32:54,-221.222222222222,0.0908714285714286,-0.882571428571428,-0.389657142857143,0.57,-0.6255,0.275333333333333,0.201,0,0,0,0,0,0,0,-0.16775,-0.940975,0.236975,-5.134,-33.782,30.4346,1.7562,-0.0411666666666667,-0.156066666666667,-1.00928333333333,0.4514,0.5856,-0.2318,47.41475,0,0,1,1
24-May-2018 14:32:54,-221.222222222222,0.0908714285714286,-0.882571428571428,-0.389657142857143,0.57,-0.6255,0.275333333333333,0.201,0,0,0,0,0,0,0,-0.16775,-0.940975,0.236975,-5.134,-33.782,30.4346,1.7562,-0.0411666666666667,-0.156066666666667,-1.00928333333333,0.4514,0.5856,-0.2318,47.41475,0,0,1,1
24-May-2018 14:32:54,-221.222222222222,0.0908714285714286,-0.882571428571428,-0.389657142857143,0.57,-0.6255,0.275333333333333,0.201,0,0,0,0,0,0,0,-0.16775,-0.940975,0.236975,-5.134,-33.782,30.4346,1.7562,-0.0411666666666667,-0.156066666666667,-1.00928333333333,0.4514,0.5856,-0.2318,47.41475,0,0,1,1
24-May-2018 14:32:55,-221.222222222222,0.0908714285714286,-0.882571428571428,-0.389657142857143,0.57,-0.6255,0.275333333333333,0.201,0,0,0,0,0,0,0,-0.635842857142857,-0.0641857142857143,-0.426314285714286,-33.1433333333333,98.1625,113.343333333333,1.072,-0.0653666666666667,-0.245033333333333,-0.9834,10.7418333333333,-3.58733333333333,-1.057,47.6508333333333,0,0,0,0
24-May-2018 14:32:55,-221.222222222222,0.0908714285714286,-0.882571428571428,-0.389657142857143,0.57,-0.6255,0.275333333333333,0.201,0,0,0,0,0,0,0,-0.635842857142857,-0.0641857142857143,-0.426314285714286,-33.1433333333333,98.1625,113.343333333333,1.072,-0.0653666666666667,-0.245033333333333,-0.9834,10.7418333333333,-3.58733333333333,-1.057,47.6508333333333,0,0,0,0
24-May-2018 14:32:55,-221.222222222222,0.0908714285714286,-0.882571428571428,-0.389657142857143,0.57,-0.6255,0.275333333333333,0.201,0,0,0,0,0,0,0,-0.635842857142857,-0.0641857142857143,-0.426314285714286,-33.1433333333333,98.1625,113.343333333333,1.072,-0.0653666666666667,-0.245033333333333,-0.9834,10.7418333333333,-3.58733333333333,-1.057,47.6508333333333,0,0,0,0
24-May-2018 14:32:55,-221.222222222222,0.0908714285714286,-0.882571428571428,-0.389657142857143,0.57,-0.6255,0.275333333333333,0.201,0,0,0,0,0,0,0,-0.635842857142857,-0.0641857142857143,-0.426314285714286,-33.1433333333333,98.1625,113.343333333333,1.072,-0.0653666666666667,-0.245033333333333,-0.9834,10.7418333333333,-3.58733333333333,-1.057,47.6508333333333,0,0,0,0
24-May-2018 14:32:56,-221.222222222222,0.0908714285714286,-0.882571428571428,-0.389657142857143,0.57,-0.6255,0.275333333333333,0.201,0,0,0,0,0,0,0,-0.433766666666667,0.0877166666666667,-0.84805,4.995,-7.15885714285714,-5.22671428571429,0.3316,0.1132,-0.97378,-0.2014,88.2492857142857,-11.5674285714286,-50.756,100.85675,1,0,1,1
24-May-2018 14:32:56,-221.222222222222,0.0908714285714286,-0.882571428571428,-0.389657142857143,0.57,-0.6255,0.275333333333333,0.201,0,0,0,0,0,0,0,-0.433766666666667,0.0877166666666667,-0.84805,4.995,-7.15885714285714,-5.22671428571429,0.3316,0.1132,-0.97378,-0.2014,88.2492857142857,-11.5674285714286,-50.756,100.85675,1,0,1,1
24-May-2018 14:32:56,-221.222222222222,0.0908714285714286,-0.882571428571428,-0.389657142857143,0.57,-0.6255,0.275333333333333,0.201,0,0,0,0,0,0,0,-0.433766666666667,0.0877166666666667,-0.84805,4.995,-7.15885714285714,-5.22671428571429,0.3316,0.1132,-0.97378,-0.2014,88.2492857142857,-11.5674285714286,-50.756,100.85675,1,0,1,1
24-May-2018 14:32:56,-221.222222222222,0.0908714285714286,-0.882571428571428,-0.389657142857143,0.57,-0.6255,0.275333333333333,0.201,0,0,0,0,0,0,0,-0.433766666666667,0.0877166666666667,-0.84805,4.995,-7.15885714285714,-5.22671428571429,0.3316,0.1132,-0.97378,-0.2014,88.2492857142857,-11.5674285714286,-50.756,100.85675,1,0,1,1
24-May-2018 14:32:57,-221.222222222222,0.0908714285714286,-0.882571428571428,-0.389657142857143,0.57,-0.6255,0.275333333333333,0.201,0,0,0,0,0,0,0,-0.50864,0.12372,-0.80556,-0.821166666666667,-2.86166666666667,-0.486666666666667,0.088,1.0455,-0.226933333333333,0.665683333333333,40.8656,20.4998,-54.316,627.204,1,1,0,0
24-May-2018 14:32:57,-221.222222222222,0.0908714285714286,-0.882571428571428,-0.389657142857143,0.57,-0.6255,0.275333333333333,0.201,0,0,0,0,0,0,0,-0.50864,0.12372,-0.80556,-0.821166666666667,-2.86166666666667,-0.486666666666667,0.088,1.0455,-0.226933333333333,0.665683333333333,40.8656,20.4998,-54.316,627.204,1,1,0,0
24-May-2018 14:32:57,-221.222222222222,0.0908714285714286,-0.882571428571428,-0.389657142857143,0.57,-0.6255,0.275333333333333,0.201,0,0,0,0,0,0,0,-0.50864,0.12372,-0.80556,-0.821166666666667,-2.86166666666667,-0.486666666666667,0.088,1.0455,-0.226933333333333,0.665683333333333,40.8656,20.4998,-54.316,627.204,1,1,0,0
24-May-2018 14:32:57,-221.222222222222,0.0908714285714286,-0.882571428571428,-0.389657142857143,0.57,-0.6255,0.275333333333333,0.201,0,0,0,0,0,0,0,-0.50864,0.12372,-0.80556,-0.821166666666667,-2.86166666666667,-0.486666666666667,0.088,1.0455,-0.226933333333333,0.665683333333333,40.8656,20.4998,-54.316,627.204,1,1,0,0
24-May-2018 14:32:58,-221.222222222222,0.0908714285714286,-0.882571428571428,-0.389657142857143,0.57,-0.6255,0.275333333333333,0.201,0,0,0,0,0,0,0,-0.5262,0.127171428571429,-0.801957142857143,-0.676666666666667,-1.08316666666667,-0.19,0.088,0.921816666666667,-0.0803,-0.00893333333333332,16.2684,-35.1428,37.1358,576.399,1,1,0,0
24-May-2018 14:32:58,-221.222222222222,0.0908714285714286,-0.882571428571428,-0.389657142857143,0.57,-0.6255,0.275333333333333,0.201,0,0,0,0,0,0,0,-0.5262,0.127171428571429,-0.801957142857143,-0.676666666666667,-1.08316666666667,-0.19,0.088,0.921816666666667,-0.0803,-0.00893333333333332,16.2684,-35.1428,37.1358,576.399,1,1,0,0
24-May-2018 14:32:58,-221.222222222222,0.0908714285714286,-0.882571428571428,-0.389657142857143,0.57,-0.6255,0.275333333333333,0.201,0,0,0,0,0,0,0,-0.5262,0.127171428571429,-0.801957142857143,-0.676666666666667,-1.08316666666667,-0.19,0.088,0.921816666666667,-0.0803,-0.00893333333333332,16.2684,-35.1428,37.1358,576.399,1,1,0,0
24-May-2018 14:32:58,-221.222222222222,0.0908714285714286,-0.882571428571428,-0.389657142857143,0.57,-0.6255,0.275333333333333,0.201,0,0,0,0,0,0,0,-0.5262,0.127171428571429,-0.801957142857143,-0.676666666666667,-1.08316666666667,-0.19,0.088,0.921816666666667,-0.0803,-0.00893333333333332,16.2684,-35.1428,37.1358,576.399,1,1,0,0
24-May-2018 14:32:59,-221.222222222222,0.0908714285714286,-0.882571428571428,-0.389657142857143,0.57,-0.6255,0.275333333333333,0.201,0,0,0,0,0,0,0,-0.53115,0.12895,-0.79965,-0.546666666666667,-1.09166666666667,-0.28,0.088,0.712142857142857,-0.389014285714286,-0.7057,-62.4585,-11.7478333333333,-8.67883333333334,295.0325,1,0,0,0
24-May-2018 14:32:59,-221.222222222222,0.0908714285714286,-0.882571428571428,-0.389657142857143,0.57,-0.6255,0.275333333333333,0.201,0,0,0,0,0,0,0,-0.53115,0.12895,-0.79965,-0.546666666666667,-1.09166666666667,-0.28,0.088,0.712142857142857,-0.389014285714286,-0.7057,-62.4585,-11.7478333333333,-8.67883333333334,295.0325,1,0,0,0
24-May-2018 14:32:59,-221.222222222222,0.0908714285714286,-0.882571428571428,-0.389657142857143,0.57,-0.6255,0.275333333333333,0.201,0,0,0,0,0,0,0,-0.53115,0.12895,-0.79965,-0.546666666666667,-1.09166666666667,-0.28,0.088,0.712142857142857,-0.389014285714286,-0.7057,-62.4585,-11.7478333333333,-8.67883333333334,295.0325,1,0,0,0
24-May-2018 14:32:59,-221.222222222222,0.0908714285714286,-0.882571428571428,-0.389657142857143,0.57,-0.6255,0.275333333333333,0.201,0,0,0,0,0,0,0,-0.53115,0.12895,-0.79965,-0.546666666666667,-1.09166666666667,-0.28,0.088,0.712142857142857,-0.389014285714286,-0.7057,-62.4585,-11.7478333333333,-8.67883333333334,295.0325,1,0,0,0
24-May-2018 14:33:00,-221.222222222222,0.0908714285714286,-0.882571428571428,-0.389657142857143,0.57,-0.6255,0.275333333333333,0.201,0,0,0,0,0,0,0,-0.5325,0.12694,-0.79734,-0.625,-1.04333333333333,-0.21,0.088,0.727642857142857,-0.2139,-0.647871428571429,9.32928571428571,-19.7388571428571,-15.8884285714286,293.806,1,0,0,0
24-May-2018 14:33:00,-221.222222222222,0.0908714285714286,-0.882571428571428,-0.389657142857143,0.57,-0.6255,0.275333333333333,0.201,0,0,0,0,0,0,0,-0.5325,0.12694,-0.79734,-0.625,-1.04333333333333,-0.21,0.088,0.727642857142857,-0.2139,-0.647871428571429,9.32928571428571,-19.7388571428571,-15.8884285714286,293.806,1,0,0,0
24-May-2018 14:33:00,-221.222222222222,0.0908714285714286,-0.882571428571428,-0.389657142857143,0.57,-0.6255,0.275333333333333,0.201,0,0,0,0,0,0,0,-0.5325,0.12694,-0.79734,-0.625,-1.04333333333333,-0.21,0.088,0.727642857142857,-0.2139,-0.647871428571429,9.32928571428571,-19.7388571428571,-15.8884285714286,293.806,1,0,0,0
24-May-2018 14:33:00,-221.222222222222,0.0908714285714286,-0.882571428571428,-0.389657142857143,0.57,-0.6255,0.275333333333333,0.201,0,0,0,0,0,0,0,-0.5325,0.12694,-0.79734,-0.625,-1.04333333333333,-0.21,0.088,0.727642857142857,-0.2139,-0.647871428571429,9.32928571428571,-19.7388571428571,-15.8884285714286,293.806,1,0,0,0
24-May-2018 14:33:01,-221.222222222222,0.0908714285714286,-0.882571428571428,-0.389657142857143,0.57,-0.6255,0.275333333333333,0.201,0,0,0,0,0,0,0,-0.533616666666667,0.130666666666667,-0.798166666666667,-0.6375,-0.91,-0.21,0.088,0.820125,0.01215,-0.57705,-23.9537142857143,31.2978571428571,14.7385714285714,261.957,1,0,0,0
24-May-2018 14:33:01,-221.222222222222,0.0908714285714286,-0.882571428571428,-0.389657142857143,0.57,-0.6255,0.275333333333333,0.201,0,0,0,0,0,0,0,-0.533616666666667,0.130666666666667,-0.798166666666667,-0.6375,-0.91,-0.21,0.088,0.820125,0.01215,-0.57705,-23.9537142857143,31.2978571428571,14.7385714285714,261.957,1,0,0,0
24-May-2018 14:33:01,-221.222222222222,0.0908714285714286,-0.882571428571428,-0.389657142857143,0.57,-0.6255,0.275333333333333,0.201,0,0,0,0,0,0,0,-0.533616666666667,0.130666666666667,-0.798166666666667,-0.6375,-0.91,-0.21,0.088,0.820125,0.01215,-0.57705,-23.9537142857143,31.2978571428571,14.7385714285714,261.957,1,0,0,0
24-May-2018 14:33:01,-221.222222222222,0.0908714285714286,-0.882571428571428,-0.389657142857143,0.57,-0.6255,0.275333333333333,0.201,0,0,0,0,0,0,0,-0.533616666666667,0.130666666666667,-0.798166666666667,-0.6375,-0.91,-0.21,0.088,0.820125,0.01215,-0.57705,-23.9537142857143,31.2978571428571,14.7385714285714,261.957,1,0,0,0
24-May-2018 14:33:02,-221.222222222222,0.0908714285714286,-0.882571428571428,-0.389657142857143,0.57,-0.6255,0.275333333333333,0.201,0,0,0,0,0,0,0,-0.534528571428571,0.130757142857143,-0.796342857142857,-0.657142857142857,-0.962857142857143,-0.24,0.088,0.827916666666667,-0.323466666666667,-0.3654,48.803375,8.147875,-7.706,398.384333333333,1,0,1,1
24-May-2018 14:33:02,-221.222222222222,0.0908714285714286,-0.882571428571428,-0.389657142857143,0.57,-0.6255,0.275333333333333,0.201,0,0,0,0,0,0,0,-0.534528571428571,0.130757142857143,-0.796342857142857,-0.657142857142857,-0.962857142857143,-0.24,0.088,0.827916666666667,-0.323466666666667,-0.3654,48.803375,8.147875,-7.706,398.384333333333,1,0,1,1
24-May-2018 14:33:02,-221.222222222222,0.0908714285714286,-0.882571428571428,-0.389657142857143,0.57,-0.6255,0.275333333333333,0.201,0,0,0,0,0,0,0,-0.534528571428571,0.130757142857143,-0.796342857142857,-0.657142857142857,-0.962857142857143,-0.24,0.088,0.827916666666667,-0.323466666666667,-0.3654,48.803375,8.147875,-7.706,398.384333333333,1,0,1,1
24-May-2018 14:33:02,-221.222222222222,0.0908714285714286,-0.882571428571428,-0.389657142857143,0.57,-0.6255,0.275333333333333,0.201,0,0,0,0,0,0,0,-0.534528571428571,0.130757142857143,-0.796342857142857,-0.657142857142857,-0.962857142857143,-0.24,0,0.827916666666667,-0.323466666666667,-0.3654,48.803375,8.147875,-7.706,398.384333333333,1,0,1,1
