TIME,HELMET_RAW,BELT_ACC_X,BELT_ACC_Y,BELT_ACC_Z,BELT_ANG_X,BELT_ANG_Y,BELT_ANG_Z,BELT_LUMINOSITY,NECK_ACC_X,NECK_ACC_Y,NECK_ACC_Z,NECK_ANG_X,NECK_ANG_Y,NECK_ANG_Z,NECK_LUMINOSITY,PCKT_ACC_X,PCKT_ACC_Y,PCKT_ACC_Z,PCKT_ANG_X,PCKT_ANG_Y,PCKT_ANG_Z,PCKT_LUMINOSITY,WRST_ACC_X,WRST_ACC_Y,WRST_ACC_Z,WRST_ANG_X,WRST_ANG_Y,WRST_ANG_Z,WRST_LUMINOSITY,IR_1,IR_2,IR_3,IR_4
24-May-2018 14:32:20,-221.222222222222,0.39504,0.08474,-0.8744,0.976,0.123166666666667,0.650666666666667,2.452,0,0,0,0,0,0,0,-0.63468,0.72892,0.38868,-0.0248571428571429,-0.998571428571429,-0.325714285714286,1.854,0.75376,-0.4451,0.69106,45.559,-44.4,-55.7926666666667,580.9088,0,0,0,0
24-May-2018 14:32:20,-221.222222222222,0.39504,0.08474,-0.8744,0.976,0.123166666666667,0.650666666666667,2.452,0,0,0,0,0,0,0,-0.63468,0.72892,0.38868,-0.0248571428571429,-0.998571428571429,-0.325714285714286,1.854,0.75376,-0.4451,0.69106,45.559,-44.4,-55.7926666666667,580.9088,0,0,0,0
24-May-2018 14:32:20,-221.222222222222,0.39504,0.08474,-0.8744,0.976,0.123166666666667,0.650666666666667,2.452,0,0,0,0,0,0,0,-0.63468,0.72892,0.38868,-0.0248571428571429,-0.998571428571429,-0.325714285714286,1.854,0.75376,-0.4451,0.69106,45.559,-44.4,-55.7926666666667,580.9088,0,0,0,0
24-May-2018 14:32:20,-221.222222222222,0.39504,0.08474,-0.8744,0.976,0.123166666666667,0.650666666666667,2.452,0,0,0,0,0,0,0,-0.63468,0.72892,0.38868,-0.0248571428571429,-0.998571428571429,-0.325714285714286,1.854,0.75376,-0.4451,0.69106,45.559,-44.4,-55.7926666666667,580.9088,0,0,0,0
24-May-2018 14:32:21,-221.222222222222,0.3913375,0.0770375,-0.879525,0.823333333333333,-0.7275,0.184,2.945,0,0,0,0,0,0,0,-0.63544,0.73078,0.38186,0.305833333333333,-0.758,-0.261,1.8684,0.984,-0.0570666666666667,0.03365,-100.928428571429,16.1944285714286,-30.6255714285714,408.994666666667,1,1,0,0
24-May-2018 14:32:21,-221.222222222222,0.3913375,0.0770375,-0.879525,0.823333333333333,-0.7275,0.184,2.945,0,0,0,0,0,0,0,-0.63544,0.73078,0.38186,0.305833333333333,-0.758,-0.261,1.8684,0.984,-0.0570666666666667,0.03365,-100.928428571429,16.1944285714286,-30.6255714285714,408.994666666667,1,1,0,0
24-May-2018 14:32:21,-221.222222222222,0.3913375,0.0770375,-0.879525,0.823333333333333,-0.7275,0.184,2.945,0,0,0,0,0,0,0,-0.63544,0.73078,0.38186,0.305833333333333,-0.758,-0.261,1.8684,0.984,-0.0570666666666667,0.03365,-100.928428571429,16.1944285714286,-30.6255714285714,408.994666666667,1,1,0,0
24-May-2018 14:32:21,-221.222222222222,0.3913375,0.0770375,-0.879525,0.823333333333333,-0.7275,0.184,2.945,0,0,0,0,0,0,0,-0.63544,0.73078,0.38186,0.305833333333333,-0.758,-0.261,1.8684,0.984,-0.0570666666666667,0.03365,-100.928428571429,16.1944285714286,-30.6255714285714,408.994666666667,1,1,0,0
24-May-2018 14:32:22,-221.222222222222,0.371083333333333,0.0681833333333333,-0.890933333333333,0.80075,-0.388,0.739375,2.56433333333333,0,0,0,0,0,0,0,-0.642483333333333,0.735316666666667,0.363583333333333,-1.00316666666667,0.123833333333333,-0.220166666666667,1.8732,1.078175,-0.318325,-0.0074,41.3018333333333,-3.6485,-1.4025,530.3415,0,0,0,0
24-May-2018 14:32:22,-221.222222222222,0.371083333333333,0.0681833333333333,-0.890933333333333,0.80075,-0.388,0.739375,2.56433333333333,0,0,0,0,0,0,0,-0.642483333333333,0.735316666666667,0.363583333333333,-1.00316666666667,0.123833333333333,-0.220166666666667,1.8732,1.078175,-0.318325,-0.0074,41.3018333333333,-3.6485,-1.4025,530.3415,0,0,0,0
24-May-2018 14:32:22,-221.222222222222,0.371083333333333,0.0681833333333333,-0.890933333333333,0.80075,-0.388,0.739375,2.56433333333333,0,0,0,0,0,0,0,-0.642483333333333,0.735316666666667,0.363583333333333,-1.00316666666667,0.123833333333333,-0.220166666666667,1.8732,1.078175,-0.318325,-0.0074,41.3018333333333,-3.6485,-1.4025,530.3415,0,0,0,0
24-May-2018 14:32:22,-221.222222222222,0.371083333333333,0.0681833333333333,-0.890933333333333,0.80075,-0.388,0.739375,2.56433333333333,0,0,0,0,0,0,0,-0.642483333333333,0.735316666666667,0.363583333333333,-1.00316666666667,0.123833333333333,-0.220166666666667,1.8732,1.078175,-0.318325,-0.0074,41.3018333333333,-3.6485,-1.4025,530.3415,0,0,0,0
24-May-2018 14:32:23,-221.222222222222,0.36725,0.070475,-0.889975,0.5795,0.00174999999999999,0.3965,2.532,0,0,0,0,0,0,0,-0.640916666666667,0.734466666666667,0.363066666666667,-0.543333333333333,-0.921666666666667,-0.251333333333333,1.896,0.974114285714286,-0.3634,-0.165828571428571,70.183,-42.2812857142857,10.4007142857143,444.889,0,0,0,0
24-May-2018 14:32:23,-221.222222222222,0.36725,0.070475,-0.889975,0.5795,0.00174999999999999,0.3965,2.532,0,0,0,0,0,0,0,-0.640916666666667,0.734466666666667,0.363066666666667,-0.543333333333333,-0.921666666666667,-0.251333333333333,1.896,0.974114285714286,-0.3634,-0.165828571428571,70.183,-42.2812857142857,10.4007142857143,444.889,0,0,0,0
24-May-2018 14:32:23,-221.222222222222,0.36725,0.070475,-0.889975,0.5795,0.00174999999999999,0.3965,2.532,0,0,0,0,0,0,0,-0.640916666666667,0.734466666666667,0.363066666666667,-0.543333333333333,-0.921666666666667,-0.251333333333333,1.896,0.974114285714286,-0.3634,-0.165828571428571,70.183,-42.2812857142857,10.4007142857143,444.889,0,0,0,0
24-May-2018 14:32:23,-221.222222222222,0.36725,0.070475,-0.889975,0.5795,0.00174999999999999,0.3965,2.532,0,0,0,0,0,0,0,-0.640916666666667,0.734466666666667,0.363066666666667,-0.543333333333333,-0.921666666666667,-0.251333333333333,1.896,0.974114285714286,-0.3634,-0.165828571428571,70.183,-42.2812857142857,10.4007142857143,444.889,0,0,0,0
24-May-2018 14:32:24,-221.222222222222,0.361,0.0667142857142857,-0.894457142857143,0.445285714285714,-0.232,0.296285714285714,2.532,0,0,0,0,0,0,0,-0.645616666666667,0.739866666666667,0.357266666666667,-2.21166666666667,-1.17433333333333,-1.52,1.881,0.99836,-0.2348,0.0418,-6.51416666666667,22.7743333333333,-8.7195,490.6166,0,0,0,0
24-May-2018 14:32:24,-221.222222222222,0.361,0.0667142857142857,-0.894457142857143,0.445285714285714,-0.232,0.296285714285714,2.532,0,0,0,0,0,0,0,-0.645616666666667,0.739866666666667,0.357266666666667,-2.21166666666667,-1.17433333333333,-1.52,1.881,0.99836,-0.2348,0.0418,-6.51416666666667,22.7743333333333,-8.7195,490.6166,0,0,0,0
24-May-2018 14:32:24,-221.222222222222,0.361,0.0667142857142857,-0.894457142857143,0.445285714285714,-0.232,0.296285714285714,2.532,0,0,0,0,0,0,0,-0.645616666666667,0.739866666666667,0.357266666666667,-2.21166666666667,-1.17433333333333,-1.52,1.881,0.99836,-0.2348,0.0418,-6.51416666666667,22.7743333333333,-8.7195,490.6166,0,0,0,0
24-May-2018 14:32:24,-221.222222222222,0.361,0.0667142857142857,-0.894457142857143,0.445285714285714,-0.232,0.296285714285714,2.532,0,0,0,0,0,0,0,-0.645616666666667,0.739866666666667,0.357266666666667,-2.21166666666667,-1.17433333333333,-1.52,1.881,0.99836,-0.2348,0.0418,-6.51416666666667,22.7743333333333,-8.7195,490.6166,0,0,0,0
24-May-2018 14:32:25,-221.222222222222,0.37848,0.10306,-0.88066,-5.575,5.882,-1.7495,2.532,0,0,0,0,0,0,0,-0.663828571428571,0.712728571428571,0.418085714285714,-7.36,-2.585,1.34328571428571,1.894,0.783916666666667,-0.598683333333333,0.5144,14.466375,18.475625,30.060875,652.105333333333,0,0,0,0
24-May-2018 14:32:25,-221.222222222222,0.37848,0.10306,-0.88066,-5.575,5.882,-1.7495,2.532,0,0,0,0,0,0,0,-0.663828571428571,0.712728571428571,0.418085714285714,-7.36,-2.585,1.34328571428571,1.894,0.783916666666667,-0.598683333333333,0.5144,14.466375,18.475625,30.060875,652.105333333333,0,0,0,0
24-May-2018 14:32:25,-221.222222222222,0.37848,0.10306,-0.88066,-5.575,5.882,-1.7495,2.532,0,0,0,0,0,0,0,-0.663828571428571,0.712728571428571,0.418085714285714,-7.36,-2.585,1.34328571428571,1.894,0.783916666666667,-0.598683333333333,0.5144,14.466375,18.475625,30.060875,652.105333333333,0,0,0,0
24-May-2018 14:32:25,-221.222222222222,0.37848,0.10306,-0.88066,-5.575,5.882,-1.7495,2.532,0,0,0,0,0,0,0,-0.663828571428571,0.712728571428571,0.418085714285714,-7.36,-2.585,1.34328571428571,1.894,0.783916666666667,-0.598683333333333,0.5144,14.466375,18.475625,30.060875,652.105333333333,0,0,0,0
24-May-2018 14:32:26,-221.222222222222,0.469766666666667,0.151033333333333,-0.838733333333333,-1.857,12.1,-4.055,2.532,0,0,0,0,0,0,0,-0.4634,0.58505,0.478275,5.98125,-4.9345,-30.91875,2.01975,-0.0318,0.296857142857143,0.341271428571429,44.4111666666667,58.2926666666667,144.2275,914.689,1,1,1,0
24-May-2018 14:32:26,-221.222222222222,0.469766666666667,0.151033333333333,-0.838733333333333,-1.857,12.1,-4.055,2.532,0,0,0,0,0,0,0,-0.4634,0.58505,0.478275,5.98125,-4.9345,-30.91875,2.01975,-0.0318,0.296857142857143,0.341271428571429,44.4111666666667,58.2926666666667,144.2275,914.689,1,1,1,0
24-May-2018 14:32:26,-221.222222222222,0.469766666666667,0.151033333333333,-0.838733333333333,-1.857,12.1,-4.055,2.532,0,0,0,0,0,0,0,-0.4634,0.58505,0.478275,5.98125,-4.9345,-30.91875,2.01975,-0.0318,0.296857142857143,0.341271428571429,44.4111666666667,58.2926666666667,144.2275,914.689,1,1,1,0
24-May-2018 14:32:26,-221.222222222222,0.469766666666667,0.151033333333333,-0.838733333333333,-1.857,12.1,-4.055,2.532,0,0,0,0,0,0,0,-0.4634,0.58505,0.478275,5.98125,-4.9345,-30.91875,2.01975,-0.0318,0.296857142857143,0.341271428571429,44.4111666666667,58.2926666666667,144.2275,914.689,1,1,1,0
24-May-2018 14:32:27,-221.222222222222,0.418816666666667,0.273916666666667,-0.796566666666667,-1.67483333333333,-9.93133333333333,-15.7508333333333,2.532,0,0,0,0,0,0,0,-1.01216666666667,-0.304833333333333,0.32615,28.8857142857143,66.7628571428571,-94.8571428571429,1.76675,-0.60878,0.32996,0.60126,4.268375,20.228625,18.13275,652.903666666667,1,1,1,0
24-May-2018 14:32:27,-221.222222222222,0.418816666666667,0.273916666666667,-0.796566666666667,-1.67483333333333,-9.93133333333333,-15.7508333333333,2.532,0,0,0,0,0,0,0,-1.01216666666667,-0.304833333333333,0.32615,28.8857142857143,66.7628571428571,-94.8571428571429,1.76675,-0.60878,0.32996,0.60126,4.268375,20.228625,18.13275,652.903666666667,1,1,1,0
24-May-2018 14:32:27,-221.222222222222,0.418816666666667,0.273916666666667,-0.796566666666667,-1.67483333333333,-9.93133333333333,-15.7508333333333,2.532,0,0,0,0,0,0,0,-1.01216666666667,-0.304833333333333,0.32615,28.8857142857143,66.7628571428571,-94.8571428571429,1.76675,-0.60878,0.32996,0.60126,4.268375,20.228625,18.13275,652.903666666667,1,1,1,0
24-May-2018 14:32:27,-221.222222222222,0.418816666666667,0.273916666666667,-0.796566666666667,-1.67483333333333,-9.93133333333333,-15.7508333333333,2.532,0,0,0,0,0,0,0,-1.01216666666667,-0.304833333333333,0.32615,28.8857142857143,66.7628571428571,-94.8571428571429,1.76675,-0.60878,0.32996,0.60126,4.268375,20.228625,18.13275,652.903666666667,1,1,1,0
24-May-2018 14:32:28,-221.222222222222,-0.4059,0.2878,-0.8832,62.68,-88.9,-36,2.532,0,0,0,0,0,0,0,-0.8541,-0.8072,0.5987,100.3,118.2,-31,1.505,-0.2441,0.7514,0.21855,-27.866,6.646,180,652.903666666667,1,1,1,1
24-May-2018 14:32:28,-221.222222222222,-0.4059,0.2878,-0.8832,62.68,-88.9,-36,2.532,0,0,0,0,0,0,0,-0.8541,-0.8072,0.5987,100.3,118.2,-31,1.505,-0.2441,0.7514,0.21855,-27.866,6.646,180,652.903666666667,1,1,1,1
24-May-2018 14:32:28,-221.222222222222,-0.4059,0.2878,-0.8832,62.68,-88.9,-36,2.532,0,0,0,0,0,0,0,-0.8541,-0.8072,0.5987,100.3,118.2,-31,1.505,-0.2441,0.7514,0.21855,-27.866,6.646,180,652.903666666667,1,1,1,1
24-May-2018 14:32:28,-221.222222222222,-0.4059,0.2878,-0.8832,62.68,-88.9,-36,2.532,0,0,0,0,0,0,0,-0.8541,-0.8072,0.5987,100.3,118.2,-31,1.505,-0.2441,0.7514,0.21855,-27.866,6.646,180,0,1,1,1,1
24-May-2018 14:32:29,-221.222222222222,-0.7777,-0.07642,-0.06892,95.7878,15.448,-17.674,2.532,0,0,0,0,0,0,0,-0.251166666666667,-0.908916666666667,0.170733333333333,-26.5724285714286,20.2468571428571,-29.0271428571429,0.60275,0.3729875,0.82945,0.507775,-19.37,-12.0526666666667,5.67083333333333,618.334,1,1,1,0
24-May-2018 14:32:29,-221.222222222222,-0.7777,-0.07642,-0.06892,95.7878,15.448,-17.674,2.532,0,0,0,0,0,0,0,-0.251166666666667,-0.908916666666667,0.170733333333333,-26.5724285714286,20.2468571428571,-29.0271428571429,0.60275,0.3729875,0.82945,0.507775,-19.37,-12.0526666666667,5.67083333333333,618.334,1,1,1,0
24-May-2018 14:32:29,-221.222222222222,-0.7777,-0.07642,-0.06892,95.7878,15.448,-17.674,2.532,0,0,0,0,0,0,0,-0.251166666666667,-0.908916666666667,0.170733333333333,-26.5724285714286,20.2468571428571,-29.0271428571429,0.60275,0.3729875,0.82945,0.507775,-19.37,-12.0526666666667,5.67083333333333,618.334,1,1,1,0
24-May-2018 14:32:29,-221.222222222222,-0.7777,-0.07642,-0.06892,95.7878,15.448,-17.674,2.532,0,0,0,0,0,0,0,-0.251166666666667,-0.908916666666667,0.170733333333333,-26.5724285714286,20.2468571428571,-29.0271428571429,0.60275,0.3729875,0.82945,0.507775,-19.37,-12.0526666666667,5.67083333333333,618.334,1,1,1,0
