TIME,HELMET_RAW,BELT_ACC_X,BELT_ACC_Y,BELT_ACC_Z,BELT_ANG_X,BELT_ANG_Y,BELT_ANG_Z,BELT_LUMINOSITY,NECK_ACC_X,NECK_ACC_Y,NECK_ACC_Z,NECK_ANG_X,NECK_ANG_Y,NECK_ANG_Z,NECK_LUMINOSITY,PCKT_ACC_X,PCKT_ACC_Y,PCKT_ACC_Z,PCKT_ANG_X,PCKT_ANG_Y,PCKT_ANG_Z,PCKT_LUMINOSITY,WRST_ACC_X,WRST_ACC_Y,WRST_ACC_Z,WRST_ANG_X,WRST_ANG_Y,WRST_ANG_Z,WRST_LUMINOSITY,IR_1,IR_2,IR_3,IR_4
24-May-2018 14:45:06,1632.4,0.0908714285714286,-0.882571428571428,-0.389657142857143,0.57,-0.6255,0.275333333333333,0.201,0,0,0,0,0,0,0,-0.9431,-0.181071428571429,0.218114285714286,-27.6242857142857,-22.1414285714286,-33.3742857142857,0.798,1.17886,-0.44698,-0.19774,6.936,-7.31625,15.465125,299.407333333333,0,0,1,1
24-May-2018 14:45:06,1632.4,0.0908714285714286,-0.882571428571428,-0.389657142857143,0.57,-0.6255,0.275333333333333,0.201,0,0,0,0,0,0,0,-0.9431,-0.181071428571429,0.218114285714286,-27.6242857142857,-22.1414285714286,-33.3742857142857,0.798,1.17886,-0.44698,-0.19774,6.936,-7.31625,15.465125,299.407333333333,0,0,1,1
24-May-2018 14:45:06,1632.4,0.0908714285714286,-0.882571428571428,-0.389657142857143,0.57,-0.6255,0.275333333333333,0.201,0,0,0,0,0,0,0,-0.9431,-0.181071428571429,0.218114285714286,-27.6242857142857,-22.1414285714286,-33.3742857142857,0.798,1.17886,-0.44698,-0.19774,6.936,-7.31625,15.465125,299.407333333333,0,0,1,1
24-May-2018 14:45:06,1632.4,0.0908714285714286,-0.882571428571428,-0.389657142857143,0.57,-0.6255,0.275333333333333,0.201,0,0,0,0,0,0,0,-0.9431,-0.181071428571429,0.218114285714286,-27.6242857142857,-22.1414285714286,-33.3742857142857,0.798,1.17886,-0.44698,-0.19774,6.936,-7.31625,15.465125,299.407333333333,0,0,1,1
24-May-2018 14:45:07,2047,0.0908714285714286,-0.882571428571428,-0.389657142857143,0.57,-0.6255,0.275333333333333,0.201,0,0,0,0,0,0,0,-1.26967142857143,-0.325442857142857,0.0696,-28.3585714285714,-13.4461428571429,-20.0071428571429,0.868333333333333,0.462633333333333,-0.48115,-0.109183333333333,-16.546375,2.55325,8.909875,335.119666666667,0,0,1,1
24-May-2018 14:45:07,2047,0.0908714285714286,-0.882571428571428,-0.389657142857143,0.57,-0.6255,0.275333333333333,0.201,0,0,0,0,0,0,0,-1.26967142857143,-0.325442857142857,0.0696,-28.3585714285714,-13.4461428571429,-20.0071428571429,0.868333333333333,0.462633333333333,-0.48115,-0.109183333333333,-16.546375,2.55325,8.909875,335.119666666667,0,0,1,1
24-May-2018 14:45:07,2047,0.0908714285714286,-0.882571428571428,-0.389657142857143,0.57,-0.6255,0.275333333333333,0.201,0,0,0,0,0,0,0,-1.26967142857143,-0.325442857142857,0.0696,-28.3585714285714,-13.4461428571429,-20.0071428571429,0.868333333333333,0.462633333333333,-0.48115,-0.109183333333333,-16.546375,2.55325,8.909875,335.119666666667,0,0,1,1
24-May-2018 14:45:07,2047,0.0908714285714286,-0.882571428571428,-0.389657142857143,0.57,-0.6255,0.275333333333333,0.201,0,0,0,0,0,0,0,-1.26967142857143,-0.325442857142857,0.0696,-28.3585714285714,-13.4461428571429,-20.0071428571429,0.868333333333333,0.462633333333333,-0.48115,-0.109183333333333,-16.546375,2.55325,8.909875,335.119666666667,0,0,1,1
24-May-2018 14:45:08,2047,0.0908714285714286,-0.882571428571428,-0.389657142857143,0.57,-0.6255,0.275333333333333,0.201,0,0,0,0,0,0,0,-0.768614285714286,-0.112814285714286,0.0500857142857143,-30.3881428571429,-32.8171428571429,-20.8128571428571,0.870333333333333,0.619125,-0.619125,-0.1265875,26.8903333333333,-8.19066666666667,-21.1891666666667,367.243,0,0,1,1
24-May-2018 14:45:08,2047,0.0908714285714286,-0.882571428571428,-0.389657142857143,0.57,-0.6255,0.275333333333333,0.201,0,0,0,0,0,0,0,-0.768614285714286,-0.112814285714286,0.0500857142857143,-30.3881428571429,-32.8171428571429,-20.8128571428571,0.870333333333333,0.619125,-0.619125,-0.1265875,26.8903333333333,-8.19066666666667,-21.1891666666667,367.243,0,0,1,1
24-May-2018 14:45:08,2047,0.0908714285714286,-0.882571428571428,-0.389657142857143,0.57,-0.6255,0.275333333333333,0.201,0,0,0,0,0,0,0,-0.768614285714286,-0.112814285714286,0.0500857142857143,-30.3881428571429,-32.8171428571429,-20.8128571428571,0.870333333333333,0.619125,-0.619125,-0.1265875,26.8903333333333,-8.19066666666667,-21.1891666666667,367.243,0,0,1,1
24-May-2018 14:45:08,2047,0.0908714285714286,-0.882571428571428,-0.389657142857143,0.57,-0.6255,0.275333333333333,0.201,0,0,0,0,0,0,0,-0.768614285714286,-0.112814285714286,0.0500857142857143,-30.3881428571429,-32.8171428571429,-20.8128571428571,0.870333333333333,0.619125,-0.619125,-0.1265875,26.8903333333333,-8.19066666666667,-21.1891666666667,367.243,0,0,1,1
24-May-2018 14:45:09,766.3,0.0908714285714286,-0.882571428571428,-0.389657142857143,0.57,-0.6255,0.275333333333333,0.201,0,0,0,0,0,0,0,-0.870716666666667,-0.27835,0.0555166666666667,-17.2557142857143,5.62,-9.42571428571428,0.86775,0.4824,-0.310828571428571,-0.1674,26.9425714285714,-38.8587142857143,-22.4822857142857,379.948333333333,1,0,1,1
24-May-2018 14:45:09,766.3,0.0908714285714286,-0.882571428571428,-0.389657142857143,0.57,-0.6255,0.275333333333333,0.201,0,0,0,0,0,0,0,-0.870716666666667,-0.27835,0.0555166666666667,-17.2557142857143,5.62,-9.42571428571428,0.86775,0.4824,-0.310828571428571,-0.1674,26.9425714285714,-38.8587142857143,-22.4822857142857,379.948333333333,1,0,1,1
24-May-2018 14:45:09,766.3,0.0908714285714286,-0.882571428571428,-0.389657142857143,0.57,-0.6255,0.275333333333333,0.201,0,0,0,0,0,0,0,-0.870716666666667,-0.27835,0.0555166666666667,-17.2557142857143,5.62,-9.42571428571428,0.86775,0.4824,-0.310828571428571,-0.1674,26.9425714285714,-38.8587142857143,-22.4822857142857,379.948333333333,1,0,1,1
24-May-2018 14:45:09,766.3,0.0908714285714286,-0.882571428571428,-0.389657142857143,0.57,-0.6255,0.275333333333333,0.201,0,0,0,0,0,0,0,-0.870716666666667,-0.27835,0.0555166666666667,-17.2557142857143,5.62,-9.42571428571428,0.86775,0.4824,-0.310828571428571,-0.1674,26.9425714285714,-38.8587142857143,-22.4822857142857,379.948333333333,1,0,1,1
24-May-2018 14:45:10,545,0.0908714285714286,-0.882571428571428,-0.389657142857143,0.57,-0.6255,0.275333333333333,0.201,0,0,0,0,0,0,0,-0.6314,-0.122814285714286,0.181585714285714,-4.3,-22.097,6.73,0.884,0.939833333333333,-0.387777777777778,0.528433333333333,36.0263333333333,22.795,-3.882,385.2125,1,0,1,1
24-May-2018 14:45:10,545,0.0908714285714286,-0.882571428571428,-0.389657142857143,0.57,-0.6255,0.275333333333333,0.201,0,0,0,0,0,0,0,-0.6314,-0.122814285714286,0.181585714285714,-4.3,-22.097,6.73,0.884,0.939833333333333,-0.387777777777778,0.528433333333333,36.0263333333333,22.795,-3.882,385.2125,1,0,1,1
24-May-2018 14:45:10,545,0.0908714285714286,-0.882571428571428,-0.389657142857143,0.57,-0.6255,0.275333333333333,0.201,0,0,0,0,0,0,0,-0.6314,-0.122814285714286,0.181585714285714,-4.3,-22.097,6.73,0.884,0.939833333333333,-0.387777777777778,0.528433333333333,36.0263333333333,22.795,-3.882,385.2125,1,0,1,1
24-May-2018 14:45:10,545,0.0908714285714286,-0.882571428571428,-0.389657142857143,0.57,-0.6255,0.275333333333333,0.201,0,0,0,0,0,0,0,-0.6314,-0.122814285714286,0.181585714285714,-4.3,-22.097,6.73,0.884,0.939833333333333,-0.387777777777778,0.528433333333333,36.0263333333333,22.795,-3.882,385.2125,1,0,1,1
24-May-2018 14:45:11,392.4,0.0908714285714286,-0.882571428571428,-0.389657142857143,0.57,-0.6255,0.275333333333333,0.201,0,0,0,0,0,0,0,-0.8338125,-0.2569375,0.166475,18.7565714285714,30.9414285714286,-1.19428571428571,0.912,0.49158,0.00266,-0.04574,-23.688,28.477,14.9288333333333,408.911,1,1,1,1
24-May-2018 14:45:11,392.4,0.0908714285714286,-0.882571428571428,-0.389657142857143,0.57,-0.6255,0.275333333333333,0.201,0,0,0,0,0,0,0,-0.8338125,-0.2569375,0.166475,18.7565714285714,30.9414285714286,-1.19428571428571,0.912,0.49158,0.00266,-0.04574,-23.688,28.477,14.9288333333333,408.911,1,1,1,1
24-May-2018 14:45:11,392.4,0.0908714285714286,-0.882571428571428,-0.389657142857143,0.57,-0.6255,0.275333333333333,0.201,0,0,0,0,0,0,0,-0.8338125,-0.2569375,0.166475,18.7565714285714,30.9414285714286,-1.19428571428571,0.912,0.49158,0.00266,-0.04574,-23.688,28.477,14.9288333333333,408.911,1,1,1,1
24-May-2018 14:45:11,392.4,0.0908714285714286,-0.882571428571428,-0.389657142857143,0.57,-0.6255,0.275333333333333,0.201,0,0,0,0,0,0,0,-0.8338125,-0.2569375,0.166475,18.7565714285714,30.9414285714286,-1.19428571428571,0.912,0.49158,0.00266,-0.04574,-23.688,28.477,14.9288333333333,408.911,1,1,1,1
24-May-2018 14:45:12,286.8,0.0908714285714286,-0.882571428571428,-0.389657142857143,0.57,-0.6255,0.275333333333333,0.201,0,0,0,0,0,0,0,-0.596128571428571,0.0234857142857143,0.286728571428571,23.1477142857143,16.7957142857143,-1.45885714285715,0.8915,0.400925,-0.3166,-0.16585,-40.6793333333333,43.76,-38.1198333333333,410.033,1,1,1,1
24-May-2018 14:45:12,286.8,0.0908714285714286,-0.882571428571428,-0.389657142857143,0.57,-0.6255,0.275333333333333,0.201,0,0,0,0,0,0,0,-0.596128571428571,0.0234857142857143,0.286728571428571,23.1477142857143,16.7957142857143,-1.45885714285715,0.8915,0.400925,-0.3166,-0.16585,-40.6793333333333,43.76,-38.1198333333333,410.033,1,1,1,1
24-May-2018 14:45:12,286.8,0.0908714285714286,-0.882571428571428,-0.389657142857143,0.57,-0.6255,0.275333333333333,0.201,0,0,0,0,0,0,0,-0.596128571428571,0.0234857142857143,0.286728571428571,23.1477142857143,16.7957142857143,-1.45885714285715,0.8915,0.400925,-0.3166,-0.16585,-40.6793333333333,43.76,-38.1198333333333,410.033,1,1,1,1
24-May-2018 14:45:12,286.8,0.0908714285714286,-0.882571428571428,-0.389657142857143,0.57,-0.6255,0.275333333333333,0.201,0,0,0,0,0,0,0,-0.596128571428571,0.0234857142857143,0.286728571428571,23.1477142857143,16.7957142857143,-1.45885714285715,0.8915,0.400925,-0.3166,-0.16585,-40.6793333333333,43.76,-38.1198333333333,410.033,1,1,1,1
24-May-2018 14:45:13,223.428571428571,0.0908714285714286,-0.882571428571428,-0.389657142857143,0.57,-0.6255,0.275333333333333,0.201,0,0,0,0,0,0,0,-0.546733333333333,-0.124466666666667,0.25735,38.448,29.1622,22.614,0.8976,0.331616666666667,-0.172016666666667,-0.1282,29.7211428571429,-38.2397142857143,-6.05285714285714,370.952666666667,1,1,1,0
24-May-2018 14:45:13,223.428571428571,0.0908714285714286,-0.882571428571428,-0.389657142857143,0.57,-0.6255,0.275333333333333,0.201,0,0,0,0,0,0,0,-0.546733333333333,-0.124466666666667,0.25735,38.448,29.1622,22.614,0.8976,0.331616666666667,-0.172016666666667,-0.1282,29.7211428571429,-38.2397142857143,-6.05285714285714,370.952666666667,1,1,1,0
24-May-2018 14:45:13,223.428571428571,0.0908714285714286,-0.882571428571428,-0.389657142857143,0.57,-0.6255,0.275333333333333,0.201,0,0,0,0,0,0,0,-0.546733333333333,-0.124466666666667,0.25735,38.448,29.1622,22.614,0.8976,0.331616666666667,-0.172016666666667,-0.1282,29.7211428571429,-38.2397142857143,-6.05285714285714,370.952666666667,1,1,1,0
24-May-2018 14:45:13,223.428571428571,0.0908714285714286,-0.882571428571428,-0.389657142857143,0.57,-0.6255,0.275333333333333,0.201,0,0,0,0,0,0,0,-0.546733333333333,-0.124466666666667,0.25735,38.448,29.1622,22.614,0.8976,0.331616666666667,-0.172016666666667,-0.1282,29.7211428571429,-38.2397142857143,-6.05285714285714,370.952666666667,1,1,1,0
24-May-2018 14:45:14,197,0.0908714285714286,-0.882571428571428,-0.389657142857143,0.57,-0.6255,0.275333333333333,0.201,0,0,0,0,0,0,0,-0.462866666666667,0.0618333333333333,0.228433333333333,19.475,-18.44,-29.84,0.918,1.9463,-0.9575,-0.6553,36.4025,-16.829,-41.6465,368.253,1,1,1,0
24-May-2018 14:45:14,197,0.0908714285714286,-0.882571428571428,-0.389657142857143,0.57,-0.6255,0.275333333333333,0.201,0,0,0,0,0,0,0,-0.462866666666667,0.0618333333333333,0.228433333333333,19.475,-18.44,-29.84,0.918,1.9463,-0.9575,-0.6553,36.4025,-16.829,-41.6465,368.253,1,1,1,0
24-May-2018 14:45:14,197,0.0908714285714286,-0.882571428571428,-0.389657142857143,0.57,-0.6255,0.275333333333333,0.201,0,0,0,0,0,0,0,-0.462866666666667,0.0618333333333333,0.228433333333333,19.475,-18.44,-29.84,0.918,1.9463,-0.9575,-0.6553,36.4025,-16.829,-41.6465,368.253,1,1,1,0
24-May-2018 14:45:14,197,0.0908714285714286,-0.882571428571428,-0.389657142857143,0.57,-0.6255,0.275333333333333,0.201,0,0,0,0,0,0,0,-0.462866666666667,0.0618333333333333,0.228433333333333,19.475,-18.44,-29.84,0.918,1.9463,-0.9575,-0.6553,36.4025,-16.829,-41.6465,368.253,1,1,1,0
24-May-2018 14:45:15,174.857142857143,0.0908714285714286,-0.882571428571428,-0.389657142857143,0.57,-0.6255,0.275333333333333,0.201,0,0,0,0,0,0,0,-0.197,0.10085,0.2742,-18.365,-42.6525,26.8225,0.9,0.831733333333333,-0.289283333333333,-0.1868,14.0043333333333,-21.3186666666667,19.6343333333333,368.253,1,1,1,0
24-May-2018 14:45:15,174.857142857143,0.0908714285714286,-0.882571428571428,-0.389657142857143,0.57,-0.6255,0.275333333333333,0.201,0,0,0,0,0,0,0,-0.197,0.10085,0.2742,-18.365,-42.6525,26.8225,0.9,0.831733333333333,-0.289283333333333,-0.1868,14.0043333333333,-21.3186666666667,19.6343333333333,368.253,1,1,1,0
24-May-2018 14:45:15,174.857142857143,0.0908714285714286,-0.882571428571428,-0.389657142857143,0.57,-0.6255,0.275333333333333,0.201,0,0,0,0,0,0,0,-0.197,0.10085,0.2742,-18.365,-42.6525,26.8225,0.9,0.831733333333333,-0.289283333333333,-0.1868,14.0043333333333,-21.3186666666667,19.6343333333333,368.253,1,1,1,0
24-May-2018 14:45:15,174.857142857143,0.0908714285714286,-0.882571428571428,-0.389657142857143,0.57,-0.6255,0.275333333333333,0.201,0,0,0,0,0,0,0,-0.197,0.10085,0.2742,-18.365,-42.6525,26.8225,0.9,0.831733333333333,-0.289283333333333,-0.1868,14.0043333333333,-21.3186666666667,19.6343333333333,0,1,1,1,0
24-May-2018 14:45:16,138.272727272727,0.0908714285714286,-0.882571428571428,-0.389657142857143,0.57,-0.6255,0.275333333333333,0.201,0,0,0,0,0,0,0,-0.8978125,-0.3062,0.14005,79.5044444444444,34.2377777777778,27.7777777777778,0.876,0.934783333333333,-0.727716666666667,-0.18475,-11.9308333333333,16.2906666666667,2.55066666666667,371.002,1,1,1,0
24-May-2018 14:45:16,138.272727272727,0.0908714285714286,-0.882571428571428,-0.389657142857143,0.57,-0.6255,0.275333333333333,0.201,0,0,0,0,0,0,0,-0.8978125,-0.3062,0.14005,79.5044444444444,34.2377777777778,27.7777777777778,0.876,0.934783333333333,-0.727716666666667,-0.18475,-11.9308333333333,16.2906666666667,2.55066666666667,371.002,1,1,1,0
24-May-2018 14:45:16,138.272727272727,0.0908714285714286,-0.882571428571428,-0.389657142857143,0.57,-0.6255,0.275333333333333,0.201,0,0,0,0,0,0,0,-0.8978125,-0.3062,0.14005,79.5044444444444,34.2377777777778,27.7777777777778,0.876,0.934783333333333,-0.727716666666667,-0.18475,-11.9308333333333,16.2906666666667,2.55066666666667,371.002,1,1,1,0
24-May-2018 14:45:16,138.272727272727,0.0908714285714286,-0.882571428571428,-0.389657142857143,0.57,-0.6255,0.275333333333333,0.201,0,0,0,0,0,0,0,-0.8978125,-0.3062,0.14005,79.5044444444444,34.2377777777778,27.7777777777778,0.876,0.934783333333333,-0.727716666666667,-0.18475,-11.9308333333333,16.2906666666667,2.55066666666667,371.002,1,1,1,0
24-May-2018 14:45:17,63.5555555555556,0.0908714285714286,-0.882571428571428,-0.389657142857143,0.57,-0.6255,0.275333333333333,0.201,0,0,0,0,0,0,0,-0.530616666666667,-0.2108,0.153016666666667,2.94714285714286,-36.1342857142857,0.618571428571428,0.8735,0.46425,-0.3532625,-0.1124125,-0.945166666666668,-7.86583333333333,-3.89233333333333,363.291666666667,1,0,1,0
24-May-2018 14:45:17,63.5555555555556,0.0908714285714286,-0.882571428571428,-0.389657142857143,0.57,-0.6255,0.275333333333333,0.201,0,0,0,0,0,0,0,-0.530616666666667,-0.2108,0.153016666666667,2.94714285714286,-36.1342857142857,0.618571428571428,0.8735,0.46425,-0.3532625,-0.1124125,-0.945166666666668,-7.86583333333333,-3.89233333333333,363.291666666667,1,0,1,0
24-May-2018 14:45:17,63.5555555555556,0.0908714285714286,-0.882571428571428,-0.389657142857143,0.57,-0.6255,0.275333333333333,0.201,0,0,0,0,0,0,0,-0.530616666666667,-0.2108,0.153016666666667,2.94714285714286,-36.1342857142857,0.618571428571428,0.8735,0.46425,-0.3532625,-0.1124125,-0.945166666666668,-7.86583333333333,-3.89233333333333,363.291666666667,1,0,1,0
24-May-2018 14:45:17,63.5555555555556,0.0908714285714286,-0.882571428571428,-0.389657142857143,0.57,-0.6255,0.275333333333333,0.201,0,0,0,0,0,0,0,-0.530616666666667,-0.2108,0.153016666666667,2.94714285714286,-36.1342857142857,0.618571428571428,0.8735,0.46425,-0.3532625,-0.1124125,-0.945166666666668,-7.86583333333333,-3.89233333333333,363.291666666667,1,0,1,0
24-May-2018 14:45:18,-162.1,0.0908714285714286,-0.882571428571428,-0.389657142857143,0.57,-0.6255,0.275333333333333,0.201,0,0,0,0,0,0,0,-1.30477142857143,-0.214657142857143,0.2375,-17.2014285714286,-8.3,14.8057142857143,0.8635,0.51295,-0.192516666666667,-0.130733333333333,12.37825,-29.69425,-2.24075,355.633,0,0,1,0
24-May-2018 14:45:18,-162.1,0.0908714285714286,-0.882571428571428,-0.389657142857143,0.57,-0.6255,0.275333333333333,0.201,0,0,0,0,0,0,0,-1.30477142857143,-0.214657142857143,0.2375,-17.2014285714286,-8.3,14.8057142857143,0.8635,0.51295,-0.192516666666667,-0.130733333333333,12.37825,-29.69425,-2.24075,355.633,0,0,1,0
24-May-2018 14:45:18,-162.1,0.0908714285714286,-0.882571428571428,-0.389657142857143,0.57,-0.6255,0.275333333333333,0.201,0,0,0,0,0,0,0,-1.30477142857143,-0.214657142857143,0.2375,-17.2014285714286,-8.3,14.8057142857143,0.8635,0.51295,-0.192516666666667,-0.130733333333333,12.37825,-29.69425,-2.24075,355.633,0,0,1,0
24-May-2018 14:45:18,-162.1,0.0908714285714286,-0.882571428571428,-0.389657142857143,0.57,-0.6255,0.275333333333333,0.201,0,0,0,0,0,0,0,-1.30477142857143,-0.214657142857143,0.2375,-17.2014285714286,-8.3,14.8057142857143,0.8635,0.51295,-0.192516666666667,-0.130733333333333,12.37825,-29.69425,-2.24075,355.633,0,0,1,0
24-May-2018 14:45:19,-863.5,0.0908714285714286,-0.882571428571428,-0.389657142857143,0.57,-0.6255,0.275333333333333,0.201,0,0,0,0,0,0,0,-0.923757142857143,-0.0784714285714286,0.0681,8.36333333333333,-23.547,-2.925,0.865,0.29684,-0.24268,-0.13564,-8.78042857142857,26.812,13.641,364.554666666667,0,0,1,0
24-May-2018 14:45:19,-863.5,0.0908714285714286,-0.882571428571428,-0.389657142857143,0.57,-0.6255,0.275333333333333,0.201,0,0,0,0,0,0,0,-0.923757142857143,-0.0784714285714286,0.0681,8.36333333333333,-23.547,-2.925,0.865,0.29684,-0.24268,-0.13564,-8.78042857142857,26.812,13.641,364.554666666667,0,0,1,0
24-May-2018 14:45:19,-863.5,0.0908714285714286,-0.882571428571428,-0.389657142857143,0.57,-0.6255,0.275333333333333,0.201,0,0,0,0,0,0,0,-0.923757142857143,-0.0784714285714286,0.0681,8.36333333333333,-23.547,-2.925,0.865,0.29684,-0.24268,-0.13564,-8.78042857142857,26.812,13.641,364.554666666667,0,0,1,0
24-May-2018 14:45:19,-863.5,0.0908714285714286,-0.882571428571428,-0.389657142857143,0.57,-0.6255,0.275333333333333,0.201,0,0,0,0,0,0,0,-0.923757142857143,-0.0784714285714286,0.0681,8.36333333333333,-23.547,-2.925,0.865,0.29684,-0.24268,-0.13564,-8.78042857142857,26.812,13.641,364.554666666667,0,0,1,0
24-May-2018 14:45:20,-1519.33333333333,0.0908714285714286,-0.882571428571428,-0.389657142857143,0.57,-0.6255,0.275333333333333,0.201,0,0,0,0,0,0,0,-0.942666666666667,-0.0452166666666667,0.1887,29.4785714285714,-9.38285714285714,0.0671428571428565,0.76075,1.25782857142857,-0.595042857142857,-0.124771428571429,-31.32625,37.45425,-0.960499999999998,362.882166666667,1,0,1,0
24-May-2018 14:45:20,-1519.33333333333,0.0908714285714286,-0.882571428571428,-0.389657142857143,0.57,-0.6255,0.275333333333333,0.201,0,0,0,0,0,0,0,-0.942666666666667,-0.0452166666666667,0.1887,29.4785714285714,-9.38285714285714,0.0671428571428565,0.76075,1.25782857142857,-0.595042857142857,-0.124771428571429,-31.32625,37.45425,-0.960499999999998,362.882166666667,1,0,1,0
24-May-2018 14:45:20,-1519.33333333333,0.0908714285714286,-0.882571428571428,-0.389657142857143,0.57,-0.6255,0.275333333333333,0.201,0,0,0,0,0,0,0,-0.942666666666667,-0.0452166666666667,0.1887,29.4785714285714,-9.38285714285714,0.0671428571428565,0.76075,1.25782857142857,-0.595042857142857,-0.124771428571429,-31.32625,37.45425,-0.960499999999998,362.882166666667,1,0,1,0
24-May-2018 14:45:20,-1519.33333333333,0.0908714285714286,-0.882571428571428,-0.389657142857143,0.57,-0.6255,0.275333333333333,0.201,0,0,0,0,0,0,0,-0.942666666666667,-0.0452166666666667,0.1887,29.4785714285714,-9.38285714285714,0.0671428571428565,0.76075,1.25782857142857,-0.595042857142857,-0.124771428571429,-31.32625,37.45425,-0.960499999999998,362.882166666667,1,0,1,0
24-May-2018 14:45:21,-1559.9,0.0908714285714286,-0.882571428571428,-0.389657142857143,0.57,-0.6255,0.275333333333333,0.201,0,0,0,0,0,0,0,-0.955671428571429,-0.388014285714286,-0.0190285714285714,20.8668888888889,18.712,-3.07466666666667,0.924,1.01085,-0.6913,-0.0663833333333333,-16.9098333333333,24.929,14.2378333333333,383.990666666667,1,1,1,0
24-May-2018 14:45:21,-1559.9,0.0908714285714286,-0.882571428571428,-0.389657142857143,0.57,-0.6255,0.275333333333333,0.201,0,0,0,0,0,0,0,-0.955671428571429,-0.388014285714286,-0.0190285714285714,20.8668888888889,18.712,-3.07466666666667,0.924,1.01085,-0.6913,-0.0663833333333333,-16.9098333333333,24.929,14.2378333333333,383.990666666667,1,1,1,0
24-May-2018 14:45:21,-1559.9,0.0908714285714286,-0.882571428571428,-0.389657142857143,0.57,-0.6255,0.275333333333333,0.201,0,0,0,0,0,0,0,-0.955671428571429,-0.388014285714286,-0.0190285714285714,20.8668888888889,18.712,-3.07466666666667,0.924,1.01085,-0.6913,-0.0663833333333333,-16.9098333333333,24.929,14.2378333333333,383.990666666667,1,1,1,0
24-May-2018 14:45:21,-1559.9,0.0908714285714286,-0.882571428571428,-0.389657142857143,0.57,-0.6255,0.275333333333333,0.201,0,0,0,0,0,0,0,-0.955671428571429,-0.388014285714286,-0.0190285714285714,20.8668888888889,18.712,-3.07466666666667,0.924,1.01085,-0.6913,-0.0663833333333333,-16.9098333333333,24.929,14.2378333333333,383.990666666667,1,1,1,0
24-May-2018 14:45:22,-803,0.0908714285714286,-0.882571428571428,-0.389657142857143,0.57,-0.6255,0.275333333333333,0.201,0,0,0,0,0,0,0,-0.920833333333333,-0.290316666666667,0.161916666666667,-16.1833333333333,-12.635,-10.0195,1.10175,0.66566,-0.6408,-0.10374,-17.3883333333333,18.7003333333333,-13.6586666666667,386.0704,1,1,1,0
24-May-2018 14:45:22,-803,0.0908714285714286,-0.882571428571428,-0.389657142857143,0.57,-0.6255,0.275333333333333,0.201,0,0,0,0,0,0,0,-0.920833333333333,-0.290316666666667,0.161916666666667,-16.1833333333333,-12.635,-10.0195,1.10175,0.66566,-0.6408,-0.10374,-17.3883333333333,18.7003333333333,-13.6586666666667,386.0704,1,1,1,0
24-May-2018 14:45:22,-803,0.0908714285714286,-0.882571428571428,-0.389657142857143,0.57,-0.6255,0.275333333333333,0.201,0,0,0,0,0,0,0,-0.920833333333333,-0.290316666666667,0.161916666666667,-16.1833333333333,-12.635,-10.0195,1.10175,0.66566,-0.6408,-0.10374,-17.3883333333333,18.7003333333333,-13.6586666666667,386.0704,1,1,1,0
24-May-2018 14:45:22,-803,0.0908714285714286,-0.882571428571428,-0.389657142857143,0.57,-0.6255,0.275333333333333,0.201,0,0,0,0,0,0,0,-0.920833333333333,-0.290316666666667,0.161916666666667,-16.1833333333333,-12.635,-10.0195,1.10175,0.66566,-0.6408,-0.10374,-17.3883333333333,18.7003333333333,-13.6586666666667,386.0704,1,1,1,0
24-May-2018 14:45:23,29.5555555555556,0.0908714285714286,-0.882571428571428,-0.389657142857143,0.57,-0.6255,0.275333333333333,0.201,0,0,0,0,0,0,0,-0.989133333333333,-0.2918,-0.1238,-11.44625,-3.48075,-1.437,1.03075,0.873733333333333,-0.543633333333333,-0.278566666666667,41.4114285714286,-15.6792857142857,-6.46314285714286,393.97625,0,0,1,0.5
24-May-2018 14:45:23,29.5555555555556,0.0908714285714286,-0.882571428571428,-0.389657142857143,0.57,-0.6255,0.275333333333333,0.201,0,0,0,0,0,0,0,-0.989133333333333,-0.2918,-0.1238,-11.44625,-3.48075,-1.437,1.03075,0.873733333333333,-0.543633333333333,-0.278566666666667,41.4114285714286,-15.6792857142857,-6.46314285714286,393.97625,0,0,1,0.5
24-May-2018 14:45:23,29.5555555555556,0.0908714285714286,-0.882571428571428,-0.389657142857143,0.57,-0.6255,0.275333333333333,0.201,0,0,0,0,0,0,0,-0.989133333333333,-0.2918,-0.1238,-11.44625,-3.48075,-1.437,1.03075,0.873733333333333,-0.543633333333333,-0.278566666666667,41.4114285714286,-15.6792857142857,-6.46314285714286,393.97625,0,0,1,0.5
24-May-2018 14:45:23,29.5555555555556,0.0908714285714286,-0.882571428571428,-0.389657142857143,0.57,-0.6255,0.275333333333333,0.201,0,0,0,0,0,0,0,-0.989133333333333,-0.2918,-0.1238,-11.44625,-3.48075,-1.437,1.03075,0.873733333333333,-0.543633333333333,-0.278566666666667,41.4114285714286,-15.6792857142857,-6.46314285714286,393.97625,0,0,1,0.5
24-May-2018 14:45:24,364.7,0.0908714285714286,-0.882571428571428,-0.389657142857143,0.57,-0.6255,0.275333333333333,0.201,0,0,0,0,0,0,0,-0.9749,-0.2446,0.143614285714286,-18.1716666666667,-6.2595,-14.1113333333333,1.09275,0.850957142857143,-0.359071428571429,-0.169285714285714,-38.7961428571429,27.1517142857143,19.5731428571429,397.095666666667,1,1,1,1
24-May-2018 14:45:24,364.7,0.0908714285714286,-0.882571428571428,-0.389657142857143,0.57,-0.6255,0.275333333333333,0.201,0,0,0,0,0,0,0,-0.9749,-0.2446,0.143614285714286,-18.1716666666667,-6.2595,-14.1113333333333,1.09275,0.850957142857143,-0.359071428571429,-0.169285714285714,-38.7961428571429,27.1517142857143,19.5731428571429,397.095666666667,1,1,1,1
24-May-2018 14:45:24,364.7,0.0908714285714286,-0.882571428571428,-0.389657142857143,0.57,-0.6255,0.275333333333333,0.201,0,0,0,0,0,0,0,-0.9749,-0.2446,0.143614285714286,-18.1716666666667,-6.2595,-14.1113333333333,1.09275,0.850957142857143,-0.359071428571429,-0.169285714285714,-38.7961428571429,27.1517142857143,19.5731428571429,397.095666666667,1,1,1,1
24-May-2018 14:45:24,364.7,0.0908714285714286,-0.882571428571428,-0.389657142857143,0.57,-0.6255,0.275333333333333,0.201,0,0,0,0,0,0,0,-0.9749,-0.2446,0.143614285714286,-18.1716666666667,-6.2595,-14.1113333333333,1.09275,0.850957142857143,-0.359071428571429,-0.169285714285714,-38.7961428571429,27.1517142857143,19.5731428571429,397.095666666667,1,1,1,1
24-May-2018 14:45:25,9.66666666666667,0.0908714285714286,-0.882571428571428,-0.389657142857143,0.57,-0.6255,0.275333333333333,0.201,0,0,0,0,0,0,0,-0.904842857142857,-0.3886,0.0273142857142857,-16.3883333333333,-23.2483333333333,2.44916666666667,0.933666666666667,0.94536,-0.46816,-0.0371,-6.88128571428572,-7.09928571428572,-9.46871428571429,377.001,1,1,1,1
24-May-2018 14:45:25,9.66666666666667,0.0908714285714286,-0.882571428571428,-0.389657142857143,0.57,-0.6255,0.275333333333333,0.201,0,0,0,0,0,0,0,-0.904842857142857,-0.3886,0.0273142857142857,-16.3883333333333,-23.2483333333333,2.44916666666667,0.933666666666667,0.94536,-0.46816,-0.0371,-6.88128571428572,-7.09928571428572,-9.46871428571429,377.001,1,1,1,1
24-May-2018 14:45:25,9.66666666666667,0.0908714285714286,-0.882571428571428,-0.389657142857143,0.57,-0.6255,0.275333333333333,0.201,0,0,0,0,0,0,0,-0.904842857142857,-0.3886,0.0273142857142857,-16.3883333333333,-23.2483333333333,2.44916666666667,0.933666666666667,0.94536,-0.46816,-0.0371,-6.88128571428572,-7.09928571428572,-9.46871428571429,377.001,1,1,1,1
24-May-2018 14:45:25,9.66666666666667,0.0908714285714286,-0.882571428571428,-0.389657142857143,0.57,-0.6255,0.275333333333333,0.201,0,0,0,0,0,0,0,-0.904842857142857,-0.3886,0.0273142857142857,-16.3883333333333,-23.2483333333333,2.44916666666667,0.933666666666667,0.94536,-0.46816,-0.0371,-6.88128571428572,-7.09928571428572,-9.46871428571429,377.001,1,1,1,1
24-May-2018 14:45:26,-777.777777777778,0.0908714285714286,-0.882571428571428,-0.389657142857143,0.57,-0.6255,0.275333333333333,0.201,0,0,0,0,0,0,0,-0.948257142857143,-0.296428571428571,0.168628571428571,36.27,14.51,-5.767,0.876,0.867,-0.429,0.2303625,-74.8595714285714,76.5244285714286,7.86585714285714,462.510666666667,1,1,1,1
24-May-2018 14:45:26,-777.777777777778,0.0908714285714286,-0.882571428571428,-0.389657142857143,0.57,-0.6255,0.275333333333333,0.201,0,0,0,0,0,0,0,-0.948257142857143,-0.296428571428571,0.168628571428571,36.27,14.51,-5.767,0.876,0.867,-0.429,0.2303625,-74.8595714285714,76.5244285714286,7.86585714285714,462.510666666667,1,1,1,1
24-May-2018 14:45:26,-777.777777777778,0.0908714285714286,-0.882571428571428,-0.389657142857143,0.57,-0.6255,0.275333333333333,0.201,0,0,0,0,0,0,0,-0.948257142857143,-0.296428571428571,0.168628571428571,36.27,14.51,-5.767,0.876,0.867,-0.429,0.2303625,-74.8595714285714,76.5244285714286,7.86585714285714,462.510666666667,1,1,1,1
24-May-2018 14:45:26,-777.777777777778,0.0908714285714286,-0.882571428571428,-0.389657142857143,0.57,-0.6255,0.275333333333333,0.201,0,0,0,0,0,0,0,-0.948257142857143,-0.296428571428571,0.168628571428571,36.27,14.51,-5.767,0.876,0.867,-0.429,0.2303625,-74.8595714285714,76.5244285714286,7.86585714285714,462.510666666667,1,1,1,1
24-May-2018 14:45:27,-583.444444444444,0.0908714285714286,-0.882571428571428,-0.389657142857143,0.57,-0.6255,0.275333333333333,0.201,0,0,0,0,0,0,0,-0.986014285714286,-0.292628571428571,-0.145314285714286,-9.14,-11.383,-0.940833333333333,0.731,0.825085714285714,-0.5711,0.337028571428571,21.5243333333333,-6.34133333333333,0.0406666666666666,897.5648,1,1,1,1
24-May-2018 14:45:27,-583.444444444444,0.0908714285714286,-0.882571428571428,-0.389657142857143,0.57,-0.6255,0.275333333333333,0.201,0,0,0,0,0,0,0,-0.986014285714286,-0.292628571428571,-0.145314285714286,-9.14,-11.383,-0.940833333333333,0.731,0.825085714285714,-0.5711,0.337028571428571,21.5243333333333,-6.34133333333333,0.0406666666666666,897.5648,1,1,1,1
24-May-2018 14:45:27,-583.444444444444,0.0908714285714286,-0.882571428571428,-0.389657142857143,0.57,-0.6255,0.275333333333333,0.201,0,0,0,0,0,0,0,-0.986014285714286,-0.292628571428571,-0.145314285714286,-9.14,-11.383,-0.940833333333333,0.731,0.825085714285714,-0.5711,0.337028571428571,21.5243333333333,-6.34133333333333,0.0406666666666666,897.5648,1,1,1,1
24-May-2018 14:45:27,-583.444444444444,0.0908714285714286,-0.882571428571428,-0.389657142857143,0.57,-0.6255,0.275333333333333,0.201,0,0,0,0,0,0,0,-0.986014285714286,-0.292628571428571,-0.145314285714286,-9.14,-11.383,-0.940833333333333,0.731,0.825085714285714,-0.5711,0.337028571428571,21.5243333333333,-6.34133333333333,0.0406666666666666,897.5648,1,1,1,1
24-May-2018 14:45:28,367.5,0.0908714285714286,-0.882571428571428,-0.389657142857143,0.57,-0.6255,0.275333333333333,0.201,0,0,0,0,0,0,0,-0.894728571428571,-0.166014285714286,0.139514285714286,8.534,-6.902,13.326,0.789,0.751775,-0.468275,0.3485,91.6987142857143,-71.8378571428571,23.3188571428571,685.709666666667,1,1,1,1
24-May-2018 14:45:28,367.5,0.0908714285714286,-0.882571428571428,-0.389657142857143,0.57,-0.6255,0.275333333333333,0.201,0,0,0,0,0,0,0,-0.894728571428571,-0.166014285714286,0.139514285714286,8.534,-6.902,13.326,0.789,0.751775,-0.468275,0.3485,91.6987142857143,-71.8378571428571,23.3188571428571,685.709666666667,1,1,1,1
24-May-2018 14:45:28,367.5,0.0908714285714286,-0.882571428571428,-0.389657142857143,0.57,-0.6255,0.275333333333333,0.201,0,0,0,0,0,0,0,-0.894728571428571,-0.166014285714286,0.139514285714286,8.534,-6.902,13.326,0.789,0.751775,-0.468275,0.3485,91.6987142857143,-71.8378571428571,23.3188571428571,685.709666666667,1,1,1,1
24-May-2018 14:45:28,367.5,0.0908714285714286,-0.882571428571428,-0.389657142857143,0.57,-0.6255,0.275333333333333,0.201,0,0,0,0,0,0,0,-0.894728571428571,-0.166014285714286,0.139514285714286,8.534,-6.902,13.326,0.789,0.751775,-0.468275,0.3485,91.6987142857143,-71.8378571428571,23.3188571428571,685.709666666667,1,1,1,1
24-May-2018 14:45:29,976.111111111111,0.0908714285714286,-0.882571428571428,-0.389657142857143,0.57,-0.6255,0.275333333333333,0.201,0,0,0,0,0,0,0,-1.36418571428571,-0.159628571428571,0.0758,-5.30571428571428,-23.098,11.0685714285714,0.864666666666667,0.864466666666667,-0.51735,-0.179083333333333,3.33416666666667,-10.325,2.34766666666667,354.1918,1,1,1,1
24-May-2018 14:45:29,976.111111111111,0.0908714285714286,-0.882571428571428,-0.389657142857143,0.57,-0.6255,0.275333333333333,0.201,0,0,0,0,0,0,0,-1.36418571428571,-0.159628571428571,0.0758,-5.30571428571428,-23.098,11.0685714285714,0.864666666666667,0.864466666666667,-0.51735,-0.179083333333333,3.33416666666667,-10.325,2.34766666666667,354.1918,1,1,1,1
24-May-2018 14:45:29,976.111111111111,0.0908714285714286,-0.882571428571428,-0.389657142857143,0.57,-0.6255,0.275333333333333,0.201,0,0,0,0,0,0,0,-1.36418571428571,-0.159628571428571,0.0758,-5.30571428571428,-23.098,11.0685714285714,0.864666666666667,0.864466666666667,-0.51735,-0.179083333333333,3.33416666666667,-10.325,2.34766666666667,354.1918,1,1,1,1
24-May-2018 14:45:29,976.111111111111,0.0908714285714286,-0.882571428571428,-0.389657142857143,0.57,-0.6255,0.275333333333333,0.201,0,0,0,0,0,0,0,-1.36418571428571,-0.159628571428571,0.0758,-5.30571428571428,-23.098,11.0685714285714,0.864666666666667,0.864466666666667,-0.51735,-0.179083333333333,3.33416666666667,-10.325,2.34766666666667,354.1918,1,1,1,1
24-May-2018 14:45:30,1051.18181818182,0.0908714285714286,-0.882571428571428,-0.389657142857143,0.57,-0.6255,0.275333333333333,0.201,0,0,0,0,0,0,0,-0.807975,-0.102275,0.1653625,7.54285714285714,17.4957142857143,-1.82785714285714,0.8235,0.92302,-0.16412,0.0139,-29.72525,37.637375,15.442,415.154666666667,0,1,1,1
24-May-2018 14:45:30,1051.18181818182,0.0908714285714286,-0.882571428571428,-0.389657142857143,0.57,-0.6255,0.275333333333333,0.201,0,0,0,0,0,0,0,-0.807975,-0.102275,0.1653625,7.54285714285714,17.4957142857143,-1.82785714285714,0.8235,0.92302,-0.16412,0.0139,-29.72525,37.637375,15.442,415.154666666667,0,1,1,1
24-May-2018 14:45:30,1051.18181818182,0.0908714285714286,-0.882571428571428,-0.389657142857143,0.57,-0.6255,0.275333333333333,0.201,0,0,0,0,0,0,0,-0.807975,-0.102275,0.1653625,7.54285714285714,17.4957142857143,-1.82785714285714,0.8235,0.92302,-0.16412,0.0139,-29.72525,37.637375,15.442,415.154666666667,0,1,1,1
24-May-2018 14:45:30,1051.18181818182,0.0908714285714286,-0.882571428571428,-0.389657142857143,0.57,-0.6255,0.275333333333333,0.201,0,0,0,0,0,0,0,-0.807975,-0.102275,0.1653625,7.54285714285714,17.4957142857143,-1.82785714285714,0.8235,0.92302,-0.16412,0.0139,-29.72525,37.637375,15.442,415.154666666667,0,1,1,1
24-May-2018 14:45:31,852.181818181818,0.0908714285714286,-0.882571428571428,-0.389657142857143,0.57,-0.6255,0.275333333333333,0.201,0,0,0,0,0,0,0,-0.70888,-0.14776,0.3255,38.38,24.8716666666667,-0.766666666666667,0.748,0.933014285714286,-0.4031,-0.2481,29.9392,-5.7072,-5.4512,293.409,0,1,1,1
24-May-2018 14:45:31,852.181818181818,0.0908714285714286,-0.882571428571428,-0.389657142857143,0.57,-0.6255,0.275333333333333,0.201,0,0,0,0,0,0,0,-0.70888,-0.14776,0.3255,38.38,24.8716666666667,-0.766666666666667,0.748,0.933014285714286,-0.4031,-0.2481,29.9392,-5.7072,-5.4512,293.409,0,1,1,1
24-May-2018 14:45:31,852.181818181818,0.0908714285714286,-0.882571428571428,-0.389657142857143,0.57,-0.6255,0.275333333333333,0.201,0,0,0,0,0,0,0,-0.70888,-0.14776,0.3255,38.38,24.8716666666667,-0.766666666666667,0.748,0.933014285714286,-0.4031,-0.2481,29.9392,-5.7072,-5.4512,293.409,0,1,1,1
24-May-2018 14:45:31,852.181818181818,0.0908714285714286,-0.882571428571428,-0.389657142857143,0.57,-0.6255,0.275333333333333,0.201,0,0,0,0,0,0,0,-0.70888,-0.14776,0.3255,38.38,24.8716666666667,-0.766666666666667,0.748,0.933014285714286,-0.4031,-0.2481,29.9392,-5.7072,-5.4512,293.409,0,1,1,1
24-May-2018 14:45:32,740.2,0.0908714285714286,-0.882571428571428,-0.389657142857143,0.57,-0.6255,0.275333333333333,0.201,0,0,0,0,0,0,0,-0.946571428571429,-0.0733571428571429,0.138342857142857,15.6166666666667,10.3416666666667,-15.83,0.82575,1.12761428571429,-0.447657142857143,-0.189185714285714,-27.98,1.493875,6.54725,347.754666666667,0,1,1,1
24-May-2018 14:45:32,740.2,0.0908714285714286,-0.882571428571428,-0.389657142857143,0.57,-0.6255,0.275333333333333,0.201,0,0,0,0,0,0,0,-0.946571428571429,-0.0733571428571429,0.138342857142857,15.6166666666667,10.3416666666667,-15.83,0.82575,1.12761428571429,-0.447657142857143,-0.189185714285714,-27.98,1.493875,6.54725,347.754666666667,0,1,1,1
24-May-2018 14:45:32,740.2,0.0908714285714286,-0.882571428571428,-0.389657142857143,0.57,-0.6255,0.275333333333333,0.201,0,0,0,0,0,0,0,-0.946571428571429,-0.0733571428571429,0.138342857142857,15.6166666666667,10.3416666666667,-15.83,0.82575,1.12761428571429,-0.447657142857143,-0.189185714285714,-27.98,1.493875,6.54725,347.754666666667,0,1,1,1
24-May-2018 14:45:32,740.2,0.0908714285714286,-0.882571428571428,-0.389657142857143,0.57,-0.6255,0.275333333333333,0.201,0,0,0,0,0,0,0,-0.946571428571429,-0.0733571428571429,0.138342857142857,15.6166666666667,10.3416666666667,-15.83,0.82575,1.12761428571429,-0.447657142857143,-0.189185714285714,-27.98,1.493875,6.54725,347.754666666667,0,1,1,1
24-May-2018 14:45:33,636.272727272727,0.0908714285714286,-0.882571428571428,-0.389657142857143,0.57,-0.6255,0.275333333333333,0.201,0,0,0,0,0,0,0,-1.02266666666667,-0.253116666666667,0.0895166666666666,-12.7775,-4.467,-11.3725,0.830333333333333,0.6807125,-0.48485,-0.0508,-21.58525,30.09125,-17.28675,324.9152,1,1,1,1
24-May-2018 14:45:33,636.272727272727,0.0908714285714286,-0.882571428571428,-0.389657142857143,0.57,-0.6255,0.275333333333333,0.201,0,0,0,0,0,0,0,-1.02266666666667,-0.253116666666667,0.0895166666666666,-12.7775,-4.467,-11.3725,0.830333333333333,0.6807125,-0.48485,-0.0508,-21.58525,30.09125,-17.28675,324.9152,1,1,1,1
24-May-2018 14:45:33,636.272727272727,0.0908714285714286,-0.882571428571428,-0.389657142857143,0.57,-0.6255,0.275333333333333,0.201,0,0,0,0,0,0,0,-1.02266666666667,-0.253116666666667,0.0895166666666666,-12.7775,-4.467,-11.3725,0.830333333333333,0.6807125,-0.48485,-0.0508,-21.58525,30.09125,-17.28675,324.9152,1,1,1,1
24-May-2018 14:45:33,636.272727272727,0.0908714285714286,-0.882571428571428,-0.389657142857143,0.57,-0.6255,0.275333333333333,0.201,0,0,0,0,0,0,0,-1.02266666666667,-0.253116666666667,0.0895166666666666,-12.7775,-4.467,-11.3725,0.830333333333333,0.6807125,-0.48485,-0.0508,-21.58525,30.09125,-17.28675,324.9152,1,1,1,1
24-May-2018 14:45:34,-1491,0.0908714285714286,-0.882571428571428,-0.389657142857143,0.57,-0.6255,0.275333333333333,0.201,0,0,0,0,0,0,0,-1.0681,-0.0647166666666667,0.0532,-13.8167142857143,-27.3474285714286,-12.9618571428571,0.735,1.01693333333333,-0.675483333333333,-0.143783333333333,10.30475,-30.5015,-6.128,317.152,1,1,1,1
24-May-2018 14:45:34,-1491,0.0908714285714286,-0.882571428571428,-0.389657142857143,0.57,-0.6255,0.275333333333333,0.201,0,0,0,0,0,0,0,-1.0681,-0.0647166666666667,0.0532,-13.8167142857143,-27.3474285714286,-12.9618571428571,0.735,1.01693333333333,-0.675483333333333,-0.143783333333333,10.30475,-30.5015,-6.128,317.152,1,1,1,1
24-May-2018 14:45:34,-1491,0.0908714285714286,-0.882571428571428,-0.389657142857143,0.57,-0.6255,0.275333333333333,0.201,0,0,0,0,0,0,0,-1.0681,-0.0647166666666667,0.0532,-13.8167142857143,-27.3474285714286,-12.9618571428571,0.735,1.01693333333333,-0.675483333333333,-0.143783333333333,10.30475,-30.5015,-6.128,317.152,1,1,1,1
24-May-2018 14:45:34,-1491,0.0908714285714286,-0.882571428571428,-0.389657142857143,0.57,-0.6255,0.275333333333333,0.201,0,0,0,0,0,0,0,-1.0681,-0.0647166666666667,0.0532,-13.8167142857143,-27.3474285714286,-12.9618571428571,0.735,1.01693333333333,-0.675483333333333,-0.143783333333333,10.30475,-30.5015,-6.128,317.152,1,1,1,1
24-May-2018 14:45:35,1623.54545454545,0.0908714285714286,-0.882571428571428,-0.389657142857143,0.57,-0.6255,0.275333333333333,0.201,0,0,0,0,0,0,0,-0.9806,-0.127957142857143,0.101857142857143,48.88,-3.4728,46.356,0.86925,0.697871428571428,-0.316785714285714,-0.0598,-13.2828333333333,7.10366666666667,-9.15633333333333,317.092,1,1,1,1
24-May-2018 14:45:35,1623.54545454545,0.0908714285714286,-0.882571428571428,-0.389657142857143,0.57,-0.6255,0.275333333333333,0.201,0,0,0,0,0,0,0,-0.9806,-0.127957142857143,0.101857142857143,48.88,-3.4728,46.356,0.86925,0.697871428571428,-0.316785714285714,-0.0598,-13.2828333333333,7.10366666666667,-9.15633333333333,317.092,1,1,1,1
24-May-2018 14:45:35,1623.54545454545,0.0908714285714286,-0.882571428571428,-0.389657142857143,0.57,-0.6255,0.275333333333333,0.201,0,0,0,0,0,0,0,-0.9806,-0.127957142857143,0.101857142857143,48.88,-3.4728,46.356,0.86925,0.697871428571428,-0.316785714285714,-0.0598,-13.2828333333333,7.10366666666667,-9.15633333333333,317.092,1,1,1,1
24-May-2018 14:45:35,1623.54545454545,0.0908714285714286,-0.882571428571428,-0.389657142857143,0.57,-0.6255,0.275333333333333,0.201,0,0,0,0,0,0,0,-0.9806,-0.127957142857143,0.101857142857143,48.88,-3.4728,46.356,0.86925,0.697871428571428,-0.316785714285714,-0.0598,-13.2828333333333,7.10366666666667,-9.15633333333333,317.092,1,1,1,1
