TIME,HELMET_RAW,BELT_ACC_X,BELT_ACC_Y,BELT_ACC_Z,BELT_ANG_X,BELT_ANG_Y,BELT_ANG_Z,BELT_LUMINOSITY,NECK_ACC_X,NECK_ACC_Y,NECK_ACC_Z,NECK_ANG_X,NECK_ANG_Y,NECK_ANG_Z,NECK_LUMINOSITY,PCKT_ACC_X,PCKT_ACC_Y,PCKT_ACC_Z,PCKT_ANG_X,PCKT_ANG_Y,PCKT_ANG_Z,PCKT_LUMINOSITY,WRST_ACC_X,WRST_ACC_Y,WRST_ACC_Z,WRST_ANG_X,WRST_ANG_Y,WRST_ANG_Z,WRST_LUMINOSITY,IR_1,IR_2,IR_3,IR_4
24-May-2018 14:44:36,31.4,0.0908714285714286,-0.882571428571428,-0.389657142857143,0.57,-0.6255,0.275333333333333,0.201,0,0,0,0,0,0,0,-0.702383333333333,-0.5426,0.267516666666667,-43.776,-45.192,-50.568,0.45,1.10257142857143,-0.458614285714286,-0.255114285714286,-8.3282,27.1828,-2.4636,293.483666666667,1,1,1,1
24-May-2018 14:44:36,31.4,0.0908714285714286,-0.882571428571428,-0.389657142857143,0.57,-0.6255,0.275333333333333,0.201,0,0,0,0,0,0,0,-0.702383333333333,-0.5426,0.267516666666667,-43.776,-45.192,-50.568,0.45,1.10257142857143,-0.458614285714286,-0.255114285714286,-8.3282,27.1828,-2.4636,293.483666666667,1,1,1,1
24-May-2018 14:44:36,31.4,0.0908714285714286,-0.882571428571428,-0.389657142857143,0.57,-0.6255,0.275333333333333,0.201,0,0,0,0,0,0,0,-0.702383333333333,-0.5426,0.267516666666667,-43.776,-45.192,-50.568,0.45,1.10257142857143,-0.458614285714286,-0.255114285714286,-8.3282,27.1828,-2.4636,293.483666666667,1,1,1,1
24-May-2018 14:44:36,31.4,0.0908714285714286,-0.882571428571428,-0.389657142857143,0.57,-0.6255,0.275333333333333,0.201,0,0,0,0,0,0,0,-0.702383333333333,-0.5426,0.267516666666667,-43.776,-45.192,-50.568,0.45,1.10257142857143,-0.458614285714286,-0.255114285714286,-8.3282,27.1828,-2.4636,293.483666666667,1,1,1,1
24-May-2018 14:44:37,-30.5555555555556,0.0908714285714286,-0.882571428571428,-0.389657142857143,0.57,-0.6255,0.275333333333333,0.201,0,0,0,0,0,0,0,-0.632757142857143,-0.6335,0.177814285714286,43.986,33.3916666666667,49.5736666666667,0.3835,1.15374,-0.6738,-0.22088,30.1423333333333,-25.0001666666667,3.03866666666667,300.1766,1,0,1,1
24-May-2018 14:44:37,-30.5555555555556,0.0908714285714286,-0.882571428571428,-0.389657142857143,0.57,-0.6255,0.275333333333333,0.201,0,0,0,0,0,0,0,-0.632757142857143,-0.6335,0.177814285714286,43.986,33.3916666666667,49.5736666666667,0.3835,1.15374,-0.6738,-0.22088,30.1423333333333,-25.0001666666667,3.03866666666667,300.1766,1,0,1,1
24-May-2018 14:44:37,-30.5555555555556,0.0908714285714286,-0.882571428571428,-0.389657142857143,0.57,-0.6255,0.275333333333333,0.201,0,0,0,0,0,0,0,-0.632757142857143,-0.6335,0.177814285714286,43.986,33.3916666666667,49.5736666666667,0.3835,1.15374,-0.6738,-0.22088,30.1423333333333,-25.0001666666667,3.03866666666667,300.1766,1,0,1,1
24-May-2018 14:44:37,-30.5555555555556,0.0908714285714286,-0.882571428571428,-0.389657142857143,0.57,-0.6255,0.275333333333333,0.201,0,0,0,0,0,0,0,-0.632757142857143,-0.6335,0.177814285714286,43.986,33.3916666666667,49.5736666666667,0.3835,1.15374,-0.6738,-0.22088,30.1423333333333,-25.0001666666667,3.03866666666667,300.1766,1,0,1,1
24-May-2018 14:44:38,71.1,0.0908714285714286,-0.882571428571428,-0.389657142857143,0.57,-0.6255,0.275333333333333,0.201,0,0,0,0,0,0,0,-0.563433333333333,-0.549066666666667,0.0208166666666667,25.770875,-3.17625,11.07125,0.331333333333333,1.16628571428571,-0.700128571428571,-0.2198,-20.9917142857143,16.7342857142857,25.0695714285714,308.84,1,1,1,0
24-May-2018 14:44:38,71.1,0.0908714285714286,-0.882571428571428,-0.389657142857143,0.57,-0.6255,0.275333333333333,0.201,0,0,0,0,0,0,0,-0.563433333333333,-0.549066666666667,0.0208166666666667,25.770875,-3.17625,11.07125,0.331333333333333,1.16628571428571,-0.700128571428571,-0.2198,-20.9917142857143,16.7342857142857,25.0695714285714,308.84,1,1,1,0
24-May-2018 14:44:38,71.1,0.0908714285714286,-0.882571428571428,-0.389657142857143,0.57,-0.6255,0.275333333333333,0.201,0,0,0,0,0,0,0,-0.563433333333333,-0.549066666666667,0.0208166666666667,25.770875,-3.17625,11.07125,0.331333333333333,1.16628571428571,-0.700128571428571,-0.2198,-20.9917142857143,16.7342857142857,25.0695714285714,308.84,1,1,1,0
24-May-2018 14:44:38,71.1,0.0908714285714286,-0.882571428571428,-0.389657142857143,0.57,-0.6255,0.275333333333333,0.201,0,0,0,0,0,0,0,-0.563433333333333,-0.549066666666667,0.0208166666666667,25.770875,-3.17625,11.07125,0.331333333333333,1.16628571428571,-0.700128571428571,-0.2198,-20.9917142857143,16.7342857142857,25.0695714285714,308.84,1,1,1,0
24-May-2018 14:44:39,174.555555555556,0.0908714285714286,-0.882571428571428,-0.389657142857143,0.57,-0.6255,0.275333333333333,0.201,0,0,0,0,0,0,0,-0.710857142857143,-0.937314285714286,-0.0333428571428572,-3.35285714285714,-44.4971428571429,12.2571428571429,0.343,0.34714,-0.32174,-0.04622,18.11,-39.54225,-19.253,305.3426,1,1,1,0
24-May-2018 14:44:39,174.555555555556,0.0908714285714286,-0.882571428571428,-0.389657142857143,0.57,-0.6255,0.275333333333333,0.201,0,0,0,0,0,0,0,-0.710857142857143,-0.937314285714286,-0.0333428571428572,-3.35285714285714,-44.4971428571429,12.2571428571429,0.343,0.34714,-0.32174,-0.04622,18.11,-39.54225,-19.253,305.3426,1,1,1,0
24-May-2018 14:44:39,174.555555555556,0.0908714285714286,-0.882571428571428,-0.389657142857143,0.57,-0.6255,0.275333333333333,0.201,0,0,0,0,0,0,0,-0.710857142857143,-0.937314285714286,-0.0333428571428572,-3.35285714285714,-44.4971428571429,12.2571428571429,0.343,0.34714,-0.32174,-0.04622,18.11,-39.54225,-19.253,305.3426,1,1,1,0
24-May-2018 14:44:39,174.555555555556,0.0908714285714286,-0.882571428571428,-0.389657142857143,0.57,-0.6255,0.275333333333333,0.201,0,0,0,0,0,0,0,-0.710857142857143,-0.937314285714286,-0.0333428571428572,-3.35285714285714,-44.4971428571429,12.2571428571429,0.343,0.34714,-0.32174,-0.04622,18.11,-39.54225,-19.253,305.3426,1,1,1,0
24-May-2018 14:44:40,144.555555555556,0.0908714285714286,-0.882571428571428,-0.389657142857143,0.57,-0.6255,0.275333333333333,0.201,0,0,0,0,0,0,0,-0.6794625,-0.8985125,0.1362625,-14.3966666666667,29.9883333333333,23.5533333333333,0.334,0.945442857142857,-0.3983,-0.150557142857143,0.479142857142856,-34.0764285714286,9.84328571428571,305.353,1,1,1,1
24-May-2018 14:44:40,144.555555555556,0.0908714285714286,-0.882571428571428,-0.389657142857143,0.57,-0.6255,0.275333333333333,0.201,0,0,0,0,0,0,0,-0.6794625,-0.8985125,0.1362625,-14.3966666666667,29.9883333333333,23.5533333333333,0.334,0.945442857142857,-0.3983,-0.150557142857143,0.479142857142856,-34.0764285714286,9.84328571428571,305.353,1,1,1,1
24-May-2018 14:44:40,144.555555555556,0.0908714285714286,-0.882571428571428,-0.389657142857143,0.57,-0.6255,0.275333333333333,0.201,0,0,0,0,0,0,0,-0.6794625,-0.8985125,0.1362625,-14.3966666666667,29.9883333333333,23.5533333333333,0.334,0.945442857142857,-0.3983,-0.150557142857143,0.479142857142856,-34.0764285714286,9.84328571428571,305.353,1,1,1,1
24-May-2018 14:44:40,144.555555555556,0.0908714285714286,-0.882571428571428,-0.389657142857143,0.57,-0.6255,0.275333333333333,0.201,0,0,0,0,0,0,0,-0.6794625,-0.8985125,0.1362625,-14.3966666666667,29.9883333333333,23.5533333333333,0.334,0.945442857142857,-0.3983,-0.150557142857143,0.479142857142856,-34.0764285714286,9.84328571428571,305.353,1,1,1,1
24-May-2018 14:44:41,115.3,0.0908714285714286,-0.882571428571428,-0.389657142857143,0.57,-0.6255,0.275333333333333,0.201,0,0,0,0,0,0,0,-0.79904,-1.08814,0.1047,0.883333333333335,10.9683333333333,-2.27333333333333,0.328,0.72225,-0.28115,-0.0776333333333333,10.387,20.1015,1.758,311.4386,1,1,1,1
24-May-2018 14:44:41,115.3,0.0908714285714286,-0.882571428571428,-0.389657142857143,0.57,-0.6255,0.275333333333333,0.201,0,0,0,0,0,0,0,-0.79904,-1.08814,0.1047,0.883333333333335,10.9683333333333,-2.27333333333333,0.328,0.72225,-0.28115,-0.0776333333333333,10.387,20.1015,1.758,311.4386,1,1,1,1
24-May-2018 14:44:41,115.3,0.0908714285714286,-0.882571428571428,-0.389657142857143,0.57,-0.6255,0.275333333333333,0.201,0,0,0,0,0,0,0,-0.79904,-1.08814,0.1047,0.883333333333335,10.9683333333333,-2.27333333333333,0.328,0.72225,-0.28115,-0.0776333333333333,10.387,20.1015,1.758,311.4386,1,1,1,1
24-May-2018 14:44:41,115.3,0.0908714285714286,-0.882571428571428,-0.389657142857143,0.57,-0.6255,0.275333333333333,0.201,0,0,0,0,0,0,0,-0.79904,-1.08814,0.1047,0.883333333333335,10.9683333333333,-2.27333333333333,0.328,0.72225,-0.28115,-0.0776333333333333,10.387,20.1015,1.758,311.4386,1,1,1,1
24-May-2018 14:44:42,96,0.0908714285714286,-0.882571428571428,-0.389657142857143,0.57,-0.6255,0.275333333333333,0.201,0,0,0,0,0,0,0,-0.78624,-1.12946,0.04966,-4.31333333333333,-43.6333333333333,4.91166666666667,0.331,0.758125,-0.4262875,-0.1033125,39.3555714285714,-20.9668571428571,-10.3137142857143,307.322,1,1,1,1
24-May-2018 14:44:42,96,0.0908714285714286,-0.882571428571428,-0.389657142857143,0.57,-0.6255,0.275333333333333,0.201,0,0,0,0,0,0,0,-0.78624,-1.12946,0.04966,-4.31333333333333,-43.6333333333333,4.91166666666667,0.331,0.758125,-0.4262875,-0.1033125,39.3555714285714,-20.9668571428571,-10.3137142857143,307.322,1,1,1,1
24-May-2018 14:44:42,96,0.0908714285714286,-0.882571428571428,-0.389657142857143,0.57,-0.6255,0.275333333333333,0.201,0,0,0,0,0,0,0,-0.78624,-1.12946,0.04966,-4.31333333333333,-43.6333333333333,4.91166666666667,0.331,0.758125,-0.4262875,-0.1033125,39.3555714285714,-20.9668571428571,-10.3137142857143,307.322,1,1,1,1
24-May-2018 14:44:42,96,0.0908714285714286,-0.882571428571428,-0.389657142857143,0.57,-0.6255,0.275333333333333,0.201,0,0,0,0,0,0,0,-0.78624,-1.12946,0.04966,-4.31333333333333,-43.6333333333333,4.91166666666667,0.331,0.758125,-0.4262875,-0.1033125,39.3555714285714,-20.9668571428571,-10.3137142857143,307.322,1,1,1,1
24-May-2018 14:44:43,84.2,0.0908714285714286,-0.882571428571428,-0.389657142857143,0.57,-0.6255,0.275333333333333,0.201,0,0,0,0,0,0,0,-0.575328571428572,-0.901585714285714,0.105528571428571,-1.85283333333333,26.033,-2.14416666666667,0.359,0.66988,-0.44998,-0.24642,36.9268,-0.975800000000002,-5.7316,321.0612,1,1,1,0
24-May-2018 14:44:43,84.2,0.0908714285714286,-0.882571428571428,-0.389657142857143,0.57,-0.6255,0.275333333333333,0.201,0,0,0,0,0,0,0,-0.575328571428572,-0.901585714285714,0.105528571428571,-1.85283333333333,26.033,-2.14416666666667,0.359,0.66988,-0.44998,-0.24642,36.9268,-0.975800000000002,-5.7316,321.0612,1,1,1,0
24-May-2018 14:44:43,84.2,0.0908714285714286,-0.882571428571428,-0.389657142857143,0.57,-0.6255,0.275333333333333,0.201,0,0,0,0,0,0,0,-0.575328571428572,-0.901585714285714,0.105528571428571,-1.85283333333333,26.033,-2.14416666666667,0.359,0.66988,-0.44998,-0.24642,36.9268,-0.975800000000002,-5.7316,321.0612,1,1,1,0
24-May-2018 14:44:43,84.2,0.0908714285714286,-0.882571428571428,-0.389657142857143,0.57,-0.6255,0.275333333333333,0.201,0,0,0,0,0,0,0,-0.575328571428572,-0.901585714285714,0.105528571428571,-1.85283333333333,26.033,-2.14416666666667,0.359,0.66988,-0.44998,-0.24642,36.9268,-0.975800000000002,-5.7316,321.0612,1,1,1,0
24-May-2018 14:44:44,65.6,0.0908714285714286,-0.882571428571428,-0.389657142857143,0.57,-0.6255,0.275333333333333,0.201,0,0,0,0,0,0,0,-0.601383333333333,-0.790383333333333,0.0985166666666667,11.2984285714286,-29.8922857142857,7.98671428571429,0.317333333333333,0.573228571428571,-0.295757142857143,-0.173671428571429,2.79466666666667,8.48583333333333,8.20133333333333,317.864666666667,1,1,1,1
24-May-2018 14:44:44,65.6,0.0908714285714286,-0.882571428571428,-0.389657142857143,0.57,-0.6255,0.275333333333333,0.201,0,0,0,0,0,0,0,-0.601383333333333,-0.790383333333333,0.0985166666666667,11.2984285714286,-29.8922857142857,7.98671428571429,0.317333333333333,0.573228571428571,-0.295757142857143,-0.173671428571429,2.79466666666667,8.48583333333333,8.20133333333333,317.864666666667,1,1,1,1
24-May-2018 14:44:44,65.6,0.0908714285714286,-0.882571428571428,-0.389657142857143,0.57,-0.6255,0.275333333333333,0.201,0,0,0,0,0,0,0,-0.601383333333333,-0.790383333333333,0.0985166666666667,11.2984285714286,-29.8922857142857,7.98671428571429,0.317333333333333,0.573228571428571,-0.295757142857143,-0.173671428571429,2.79466666666667,8.48583333333333,8.20133333333333,317.864666666667,1,1,1,1
24-May-2018 14:44:44,65.6,0.0908714285714286,-0.882571428571428,-0.389657142857143,0.57,-0.6255,0.275333333333333,0.201,0,0,0,0,0,0,0,-0.601383333333333,-0.790383333333333,0.0985166666666667,11.2984285714286,-29.8922857142857,7.98671428571429,0.317333333333333,0.573228571428571,-0.295757142857143,-0.173671428571429,2.79466666666667,8.48583333333333,8.20133333333333,317.864666666667,1,1,1,1
24-May-2018 14:44:45,-507.222222222222,0.0908714285714286,-0.882571428571428,-0.389657142857143,0.57,-0.6255,0.275333333333333,0.201,0,0,0,0,0,0,0,-0.637383333333333,-0.7703,0.23385,-4.38985714285714,6.12385714285714,1.771,0.363,0.8835,-0.403057142857143,-0.113314285714286,-1.3172,-26.805,7.195,298.74,1,1,1,1
24-May-2018 14:44:45,-507.222222222222,0.0908714285714286,-0.882571428571428,-0.389657142857143,0.57,-0.6255,0.275333333333333,0.201,0,0,0,0,0,0,0,-0.637383333333333,-0.7703,0.23385,-4.38985714285714,6.12385714285714,1.771,0.363,0.8835,-0.403057142857143,-0.113314285714286,-1.3172,-26.805,7.195,298.74,1,1,1,1
24-May-2018 14:44:45,-507.222222222222,0.0908714285714286,-0.882571428571428,-0.389657142857143,0.57,-0.6255,0.275333333333333,0.201,0,0,0,0,0,0,0,-0.637383333333333,-0.7703,0.23385,-4.38985714285714,6.12385714285714,1.771,0.363,0.8835,-0.403057142857143,-0.113314285714286,-1.3172,-26.805,7.195,298.74,1,1,1,1
24-May-2018 14:44:45,-507.222222222222,0.0908714285714286,-0.882571428571428,-0.389657142857143,0.57,-0.6255,0.275333333333333,0.201,0,0,0,0,0,0,0,-0.637383333333333,-0.7703,0.23385,-4.38985714285714,6.12385714285714,1.771,0.363,0.8835,-0.403057142857143,-0.113314285714286,-1.3172,-26.805,7.195,298.74,1,1,1,1
24-May-2018 14:44:46,-550.666666666667,0.0908714285714286,-0.882571428571428,-0.389657142857143,0.57,-0.6255,0.275333333333333,0.201,0,0,0,0,0,0,0,-0.701183333333333,-0.725166666666667,0.21845,-19.316,-27.76,5.06,0.319666666666667,0.8553,-0.437114285714286,-0.166114285714286,8.8536,16.4148,0.1342,279.509666666667,1,1,1,1
24-May-2018 14:44:46,-550.666666666667,0.0908714285714286,-0.882571428571428,-0.389657142857143,0.57,-0.6255,0.275333333333333,0.201,0,0,0,0,0,0,0,-0.701183333333333,-0.725166666666667,0.21845,-19.316,-27.76,5.06,0.319666666666667,0.8553,-0.437114285714286,-0.166114285714286,8.8536,16.4148,0.1342,279.509666666667,1,1,1,1
24-May-2018 14:44:46,-550.666666666667,0.0908714285714286,-0.882571428571428,-0.389657142857143,0.57,-0.6255,0.275333333333333,0.201,0,0,0,0,0,0,0,-0.701183333333333,-0.725166666666667,0.21845,-19.316,-27.76,5.06,0.319666666666667,0.8553,-0.437114285714286,-0.166114285714286,8.8536,16.4148,0.1342,279.509666666667,1,1,1,1
24-May-2018 14:44:46,-550.666666666667,0.0908714285714286,-0.882571428571428,-0.389657142857143,0.57,-0.6255,0.275333333333333,0.201,0,0,0,0,0,0,0,-0.701183333333333,-0.725166666666667,0.21845,-19.316,-27.76,5.06,0.319666666666667,0.8553,-0.437114285714286,-0.166114285714286,8.8536,16.4148,0.1342,279.509666666667,1,1,1,1
24-May-2018 14:44:47,-86.1,0.0908714285714286,-0.882571428571428,-0.389657142857143,0.57,-0.6255,0.275333333333333,0.201,0,0,0,0,0,0,0,-0.615942857142857,-0.808257142857143,-0.0413428571428571,-16.625,16.0383333333333,-7.47566666666667,0.325666666666667,0.716983333333333,-0.533283333333333,-0.1685,53.10975,-44.66375,-43.01825,277.1042,1,1,1,1
24-May-2018 14:44:47,-86.1,0.0908714285714286,-0.882571428571428,-0.389657142857143,0.57,-0.6255,0.275333333333333,0.201,0,0,0,0,0,0,0,-0.615942857142857,-0.808257142857143,-0.0413428571428571,-16.625,16.0383333333333,-7.47566666666667,0.325666666666667,0.716983333333333,-0.533283333333333,-0.1685,53.10975,-44.66375,-43.01825,277.1042,1,1,1,1
24-May-2018 14:44:47,-86.1,0.0908714285714286,-0.882571428571428,-0.389657142857143,0.57,-0.6255,0.275333333333333,0.201,0,0,0,0,0,0,0,-0.615942857142857,-0.808257142857143,-0.0413428571428571,-16.625,16.0383333333333,-7.47566666666667,0.325666666666667,0.716983333333333,-0.533283333333333,-0.1685,53.10975,-44.66375,-43.01825,277.1042,1,1,1,1
24-May-2018 14:44:47,-86.1,0.0908714285714286,-0.882571428571428,-0.389657142857143,0.57,-0.6255,0.275333333333333,0.201,0,0,0,0,0,0,0,-0.615942857142857,-0.808257142857143,-0.0413428571428571,-16.625,16.0383333333333,-7.47566666666667,0.325666666666667,0.716983333333333,-0.533283333333333,-0.1685,53.10975,-44.66375,-43.01825,277.1042,1,1,1,1
24-May-2018 14:44:48,-127.7,0.0908714285714286,-0.882571428571428,-0.389657142857143,0.57,-0.6255,0.275333333333333,0.201,0,0,0,0,0,0,0,-0.79618,-0.726,0.06882,2.68333333333333,2.9075,-19.8383333333333,0.2495,0.911983333333333,-0.433483333333333,-0.1235,9.2175,-20.9551666666667,2.358,275.088,1,1,1,0
24-May-2018 14:44:48,-127.7,0.0908714285714286,-0.882571428571428,-0.389657142857143,0.57,-0.6255,0.275333333333333,0.201,0,0,0,0,0,0,0,-0.79618,-0.726,0.06882,2.68333333333333,2.9075,-19.8383333333333,0.2495,0.911983333333333,-0.433483333333333,-0.1235,9.2175,-20.9551666666667,2.358,275.088,1,1,1,0
24-May-2018 14:44:48,-127.7,0.0908714285714286,-0.882571428571428,-0.389657142857143,0.57,-0.6255,0.275333333333333,0.201,0,0,0,0,0,0,0,-0.79618,-0.726,0.06882,2.68333333333333,2.9075,-19.8383333333333,0.2495,0.911983333333333,-0.433483333333333,-0.1235,9.2175,-20.9551666666667,2.358,275.088,1,1,1,0
24-May-2018 14:44:48,-127.7,0.0908714285714286,-0.882571428571428,-0.389657142857143,0.57,-0.6255,0.275333333333333,0.201,0,0,0,0,0,0,0,-0.79618,-0.726,0.06882,2.68333333333333,2.9075,-19.8383333333333,0.2495,0.911983333333333,-0.433483333333333,-0.1235,9.2175,-20.9551666666667,2.358,275.088,1,1,1,0
24-May-2018 14:44:49,352.5,0.0908714285714286,-0.882571428571428,-0.389657142857143,0.57,-0.6255,0.275333333333333,0.201,0,0,0,0,0,0,0,-0.791128571428571,-0.717014285714286,0.207728571428571,-1.42,-12.6602857142857,-11.9714285714286,0.308,1.37848,-0.85776,-0.04626,-8.374,7.52033333333333,-11.7683333333333,280.4612,1,0,1,0
24-May-2018 14:44:49,352.5,0.0908714285714286,-0.882571428571428,-0.389657142857143,0.57,-0.6255,0.275333333333333,0.201,0,0,0,0,0,0,0,-0.791128571428571,-0.717014285714286,0.207728571428571,-1.42,-12.6602857142857,-11.9714285714286,0.308,1.37848,-0.85776,-0.04626,-8.374,7.52033333333333,-11.7683333333333,280.4612,1,0,1,0
24-May-2018 14:44:49,352.5,0.0908714285714286,-0.882571428571428,-0.389657142857143,0.57,-0.6255,0.275333333333333,0.201,0,0,0,0,0,0,0,-0.791128571428571,-0.717014285714286,0.207728571428571,-1.42,-12.6602857142857,-11.9714285714286,0.308,1.37848,-0.85776,-0.04626,-8.374,7.52033333333333,-11.7683333333333,280.4612,1,0,1,0
24-May-2018 14:44:49,352.5,0.0908714285714286,-0.882571428571428,-0.389657142857143,0.57,-0.6255,0.275333333333333,0.201,0,0,0,0,0,0,0,-0.791128571428571,-0.717014285714286,0.207728571428571,-1.42,-12.6602857142857,-11.9714285714286,0.308,1.37848,-0.85776,-0.04626,-8.374,7.52033333333333,-11.7683333333333,280.4612,1,0,1,0
24-May-2018 14:44:50,348.7,0.0908714285714286,-0.882571428571428,-0.389657142857143,0.57,-0.6255,0.275333333333333,0.201,0,0,0,0,0,0,0,-0.6745875,-0.6223375,0.18775,-10.954,-47.924,1.292,0.327333333333333,1.04226,-0.43678,-0.09006,-10.823125,12.355125,-6.654125,286.393,1,1,1,1
24-May-2018 14:44:50,348.7,0.0908714285714286,-0.882571428571428,-0.389657142857143,0.57,-0.6255,0.275333333333333,0.201,0,0,0,0,0,0,0,-0.6745875,-0.6223375,0.18775,-10.954,-47.924,1.292,0.327333333333333,1.04226,-0.43678,-0.09006,-10.823125,12.355125,-6.654125,286.393,1,1,1,1
24-May-2018 14:44:50,348.7,0.0908714285714286,-0.882571428571428,-0.389657142857143,0.57,-0.6255,0.275333333333333,0.201,0,0,0,0,0,0,0,-0.6745875,-0.6223375,0.18775,-10.954,-47.924,1.292,0.327333333333333,1.04226,-0.43678,-0.09006,-10.823125,12.355125,-6.654125,286.393,1,1,1,1
24-May-2018 14:44:50,348.7,0.0908714285714286,-0.882571428571428,-0.389657142857143,0.57,-0.6255,0.275333333333333,0.201,0,0,0,0,0,0,0,-0.6745875,-0.6223375,0.18775,-10.954,-47.924,1.292,0.327333333333333,1.04226,-0.43678,-0.09006,-10.823125,12.355125,-6.654125,286.393,1,1,1,1
24-May-2018 14:44:51,261.333333333333,0.0908714285714286,-0.882571428571428,-0.389657142857143,0.57,-0.6255,0.275333333333333,0.201,0,0,0,0,0,0,0,-0.643433333333333,-0.919666666666667,0.00156666666666667,7.568375,3.24375,14.1115,0.309666666666667,0.936233333333333,-0.3692,-0.0805,23.6672857142857,10.5051428571429,-2.06428571428571,283.1335,1,1,1,1
24-May-2018 14:44:51,261.333333333333,0.0908714285714286,-0.882571428571428,-0.389657142857143,0.57,-0.6255,0.275333333333333,0.201,0,0,0,0,0,0,0,-0.643433333333333,-0.919666666666667,0.00156666666666667,7.568375,3.24375,14.1115,0.309666666666667,0.936233333333333,-0.3692,-0.0805,23.6672857142857,10.5051428571429,-2.06428571428571,283.1335,1,1,1,1
24-May-2018 14:44:51,261.333333333333,0.0908714285714286,-0.882571428571428,-0.389657142857143,0.57,-0.6255,0.275333333333333,0.201,0,0,0,0,0,0,0,-0.643433333333333,-0.919666666666667,0.00156666666666667,7.568375,3.24375,14.1115,0.309666666666667,0.936233333333333,-0.3692,-0.0805,23.6672857142857,10.5051428571429,-2.06428571428571,283.1335,1,1,1,1
24-May-2018 14:44:51,261.333333333333,0.0908714285714286,-0.882571428571428,-0.389657142857143,0.57,-0.6255,0.275333333333333,0.201,0,0,0,0,0,0,0,-0.643433333333333,-0.919666666666667,0.00156666666666667,7.568375,3.24375,14.1115,0.309666666666667,0.936233333333333,-0.3692,-0.0805,23.6672857142857,10.5051428571429,-2.06428571428571,283.1335,1,1,1,1
24-May-2018 14:44:52,197.7,0.0908714285714286,-0.882571428571428,-0.389657142857143,0.57,-0.6255,0.275333333333333,0.201,0,0,0,0,0,0,0,-0.729616666666667,-0.393966666666667,0.24925,-18.7315,19.3233333333333,-2.17166666666667,0.311666666666667,0.949871428571429,-0.386142857142857,0.0856142857142857,-3.25771428571429,1.324,4.98271428571429,355.574666666667,1,1,1,1
24-May-2018 14:44:52,197.7,0.0908714285714286,-0.882571428571428,-0.389657142857143,0.57,-0.6255,0.275333333333333,0.201,0,0,0,0,0,0,0,-0.729616666666667,-0.393966666666667,0.24925,-18.7315,19.3233333333333,-2.17166666666667,0.311666666666667,0.949871428571429,-0.386142857142857,0.0856142857142857,-3.25771428571429,1.324,4.98271428571429,355.574666666667,1,1,1,1
24-May-2018 14:44:52,197.7,0.0908714285714286,-0.882571428571428,-0.389657142857143,0.57,-0.6255,0.275333333333333,0.201,0,0,0,0,0,0,0,-0.729616666666667,-0.393966666666667,0.24925,-18.7315,19.3233333333333,-2.17166666666667,0.311666666666667,0.949871428571429,-0.386142857142857,0.0856142857142857,-3.25771428571429,1.324,4.98271428571429,355.574666666667,1,1,1,1
24-May-2018 14:44:52,197.7,0.0908714285714286,-0.882571428571428,-0.389657142857143,0.57,-0.6255,0.275333333333333,0.201,0,0,0,0,0,0,0,-0.729616666666667,-0.393966666666667,0.24925,-18.7315,19.3233333333333,-2.17166666666667,0.311666666666667,0.949871428571429,-0.386142857142857,0.0856142857142857,-3.25771428571429,1.324,4.98271428571429,355.574666666667,1,1,1,1
24-May-2018 14:44:53,104.375,0.0908714285714286,-0.882571428571428,-0.389657142857143,0.57,-0.6255,0.275333333333333,0.201,0,0,0,0,0,0,0,-0.762283333333333,-0.745966666666667,0.0742666666666667,-14.1116666666667,-13.255,17.1305,0.323,0.95475,-0.385283333333333,0.120533333333333,28.7718571428571,-16.0278571428571,3.37114285714286,348.242666666667,1,1,1,0
24-May-2018 14:44:53,104.375,0.0908714285714286,-0.882571428571428,-0.389657142857143,0.57,-0.6255,0.275333333333333,0.201,0,0,0,0,0,0,0,-0.762283333333333,-0.745966666666667,0.0742666666666667,-14.1116666666667,-13.255,17.1305,0.323,0.95475,-0.385283333333333,0.120533333333333,28.7718571428571,-16.0278571428571,3.37114285714286,348.242666666667,1,1,1,0
24-May-2018 14:44:53,104.375,0.0908714285714286,-0.882571428571428,-0.389657142857143,0.57,-0.6255,0.275333333333333,0.201,0,0,0,0,0,0,0,-0.762283333333333,-0.745966666666667,0.0742666666666667,-14.1116666666667,-13.255,17.1305,0.323,0.95475,-0.385283333333333,0.120533333333333,28.7718571428571,-16.0278571428571,3.37114285714286,348.242666666667,1,1,1,0
24-May-2018 14:44:53,104.375,0.0908714285714286,-0.882571428571428,-0.389657142857143,0.57,-0.6255,0.275333333333333,0.201,0,0,0,0,0,0,0,-0.762283333333333,-0.745966666666667,0.0742666666666667,-14.1116666666667,-13.255,17.1305,0.323,0.95475,-0.385283333333333,0.120533333333333,28.7718571428571,-16.0278571428571,3.37114285714286,348.242666666667,1,1,1,0
24-May-2018 14:44:54,-944.1,0.0908714285714286,-0.882571428571428,-0.389657142857143,0.57,-0.6255,0.275333333333333,0.201,0,0,0,0,0,0,0,-1.08968333333333,-1.03455,-0.0410333333333333,-3.615,-13.555,-30.4425,0.299666666666667,0.952157142857143,-0.402585714285714,-0.0453714285714286,-2.90085714285714,-6.79442857142857,-1.96,339.016,1,1,1,0
24-May-2018 14:44:54,-944.1,0.0908714285714286,-0.882571428571428,-0.389657142857143,0.57,-0.6255,0.275333333333333,0.201,0,0,0,0,0,0,0,-1.08968333333333,-1.03455,-0.0410333333333333,-3.615,-13.555,-30.4425,0.299666666666667,0.952157142857143,-0.402585714285714,-0.0453714285714286,-2.90085714285714,-6.79442857142857,-1.96,339.016,1,1,1,0
24-May-2018 14:44:54,-944.1,0.0908714285714286,-0.882571428571428,-0.389657142857143,0.57,-0.6255,0.275333333333333,0.201,0,0,0,0,0,0,0,-1.08968333333333,-1.03455,-0.0410333333333333,-3.615,-13.555,-30.4425,0.299666666666667,0.952157142857143,-0.402585714285714,-0.0453714285714286,-2.90085714285714,-6.79442857142857,-1.96,339.016,1,1,1,0
24-May-2018 14:44:54,-944.1,0.0908714285714286,-0.882571428571428,-0.389657142857143,0.57,-0.6255,0.275333333333333,0.201,0,0,0,0,0,0,0,-1.08968333333333,-1.03455,-0.0410333333333333,-3.615,-13.555,-30.4425,0.299666666666667,0.952157142857143,-0.402585714285714,-0.0453714285714286,-2.90085714285714,-6.79442857142857,-1.96,339.016,1,1,1,0
24-May-2018 14:44:55,-1801,0.0908714285714286,-0.882571428571428,-0.389657142857143,0.57,-0.6255,0.275333333333333,0.201,0,0,0,0,0,0,0,-0.504885714285714,-0.427857142857143,0.194414285714286,-2.99142857142857,55.1715714285714,6.41,0.309666666666667,0.9237375,-0.4209875,-0.076925,-3.885,-5.43571428571429,4.39042857142857,303.375,1,1,1,0
24-May-2018 14:44:55,-1801,0.0908714285714286,-0.882571428571428,-0.389657142857143,0.57,-0.6255,0.275333333333333,0.201,0,0,0,0,0,0,0,-0.504885714285714,-0.427857142857143,0.194414285714286,-2.99142857142857,55.1715714285714,6.41,0.309666666666667,0.9237375,-0.4209875,-0.076925,-3.885,-5.43571428571429,4.39042857142857,303.375,1,1,1,0
24-May-2018 14:44:55,-1801,0.0908714285714286,-0.882571428571428,-0.389657142857143,0.57,-0.6255,0.275333333333333,0.201,0,0,0,0,0,0,0,-0.504885714285714,-0.427857142857143,0.194414285714286,-2.99142857142857,55.1715714285714,6.41,0.309666666666667,0.9237375,-0.4209875,-0.076925,-3.885,-5.43571428571429,4.39042857142857,303.375,1,1,1,0
24-May-2018 14:44:55,-1801,0.0908714285714286,-0.882571428571428,-0.389657142857143,0.57,-0.6255,0.275333333333333,0.201,0,0,0,0,0,0,0,-0.504885714285714,-0.427857142857143,0.194414285714286,-2.99142857142857,55.1715714285714,6.41,0.309666666666667,0.9237375,-0.4209875,-0.076925,-3.885,-5.43571428571429,4.39042857142857,303.375,1,1,1,0
24-May-2018 14:44:56,-1373,0.0908714285714286,-0.882571428571428,-0.389657142857143,0.57,-0.6255,0.275333333333333,0.201,0,0,0,0,0,0,0,-0.775357142857143,-0.314228571428571,0.151785714285714,-32.8016666666667,-41.6958333333333,-30.875,0.34025,0.8354,-0.5303125,-0.1873375,-5.19316666666667,7.19533333333333,-1.128,301.302,1,1,1,0
24-May-2018 14:44:56,-1373,0.0908714285714286,-0.882571428571428,-0.389657142857143,0.57,-0.6255,0.275333333333333,0.201,0,0,0,0,0,0,0,-0.775357142857143,-0.314228571428571,0.151785714285714,-32.8016666666667,-41.6958333333333,-30.875,0.34025,0.8354,-0.5303125,-0.1873375,-5.19316666666667,7.19533333333333,-1.128,301.302,1,1,1,0
24-May-2018 14:44:56,-1373,0.0908714285714286,-0.882571428571428,-0.389657142857143,0.57,-0.6255,0.275333333333333,0.201,0,0,0,0,0,0,0,-0.775357142857143,-0.314228571428571,0.151785714285714,-32.8016666666667,-41.6958333333333,-30.875,0.34025,0.8354,-0.5303125,-0.1873375,-5.19316666666667,7.19533333333333,-1.128,301.302,1,1,1,0
24-May-2018 14:44:56,-1373,0.0908714285714286,-0.882571428571428,-0.389657142857143,0.57,-0.6255,0.275333333333333,0.201,0,0,0,0,0,0,0,-0.775357142857143,-0.314228571428571,0.151785714285714,-32.8016666666667,-41.6958333333333,-30.875,0.34025,0.8354,-0.5303125,-0.1873375,-5.19316666666667,7.19533333333333,-1.128,301.302,1,1,1,0
24-May-2018 14:44:57,-1973.66666666667,0.0908714285714286,-0.882571428571428,-0.389657142857143,0.57,-0.6255,0.275333333333333,0.201,0,0,0,0,0,0,0,-0.622925,-0.43775,0.05885,-4.85114285714286,-13.7772857142857,7.02,0.4205,0.8926,-0.571228571428571,-0.227542857142857,11.2093333333333,-3.08933333333333,-8.0385,291.98525,1,1,1,1
24-May-2018 14:44:57,-1973.66666666667,0.0908714285714286,-0.882571428571428,-0.389657142857143,0.57,-0.6255,0.275333333333333,0.201,0,0,0,0,0,0,0,-0.622925,-0.43775,0.05885,-4.85114285714286,-13.7772857142857,7.02,0.4205,0.8926,-0.571228571428571,-0.227542857142857,11.2093333333333,-3.08933333333333,-8.0385,291.98525,1,1,1,1
24-May-2018 14:44:57,-1973.66666666667,0.0908714285714286,-0.882571428571428,-0.389657142857143,0.57,-0.6255,0.275333333333333,0.201,0,0,0,0,0,0,0,-0.622925,-0.43775,0.05885,-4.85114285714286,-13.7772857142857,7.02,0.4205,0.8926,-0.571228571428571,-0.227542857142857,11.2093333333333,-3.08933333333333,-8.0385,291.98525,1,1,1,1
24-May-2018 14:44:57,-1973.66666666667,0.0908714285714286,-0.882571428571428,-0.389657142857143,0.57,-0.6255,0.275333333333333,0.201,0,0,0,0,0,0,0,-0.622925,-0.43775,0.05885,-4.85114285714286,-13.7772857142857,7.02,0.4205,0.8926,-0.571228571428571,-0.227542857142857,11.2093333333333,-3.08933333333333,-8.0385,291.98525,1,1,1,1
24-May-2018 14:44:58,-1973.66666666667,0.0908714285714286,-0.882571428571428,-0.389657142857143,0.57,-0.6255,0.275333333333333,0.201,0,0,0,0,0,0,0,-0.596866666666667,-0.402383333333333,0.181333333333333,-13.915,4.19,-14.0375,0.444,0.788766666666667,-0.602366666666667,-0.10995,-49.035,65.9392,18,290.71125,1,0,1,1
24-May-2018 14:44:58,-1973.66666666667,0.0908714285714286,-0.882571428571428,-0.389657142857143,0.57,-0.6255,0.275333333333333,0.201,0,0,0,0,0,0,0,-0.596866666666667,-0.402383333333333,0.181333333333333,-13.915,4.19,-14.0375,0.444,0.788766666666667,-0.602366666666667,-0.10995,-49.035,65.9392,18,290.71125,1,0,1,1
24-May-2018 14:44:58,-1973.66666666667,0.0908714285714286,-0.882571428571428,-0.389657142857143,0.57,-0.6255,0.275333333333333,0.201,0,0,0,0,0,0,0,-0.596866666666667,-0.402383333333333,0.181333333333333,-13.915,4.19,-14.0375,0.444,0.788766666666667,-0.602366666666667,-0.10995,-49.035,65.9392,18,290.71125,1,0,1,1
24-May-2018 14:44:58,0,0.0908714285714286,-0.882571428571428,-0.389657142857143,0.57,-0.6255,0.275333333333333,0.201,0,0,0,0,0,0,0,-0.596866666666667,-0.402383333333333,0.181333333333333,-13.915,4.19,-14.0375,0.444,0.788766666666667,-0.602366666666667,-0.10995,-49.035,65.9392,18,290.71125,1,0,1,1
24-May-2018 14:44:59,-1557.66666666667,0.0908714285714286,-0.882571428571428,-0.389657142857143,0.57,-0.6255,0.275333333333333,0.201,0,0,0,0,0,0,0,-0.6751,-0.38675,0.185533333333333,52.9,21.2216666666667,31.4733333333333,0.441,0.64945,-0.47705,-0.09465,2.81325,-6.112125,-22.240875,300.609,1,1,1,1
24-May-2018 14:44:59,-1557.66666666667,0.0908714285714286,-0.882571428571428,-0.389657142857143,0.57,-0.6255,0.275333333333333,0.201,0,0,0,0,0,0,0,-0.6751,-0.38675,0.185533333333333,52.9,21.2216666666667,31.4733333333333,0.441,0.64945,-0.47705,-0.09465,2.81325,-6.112125,-22.240875,300.609,1,1,1,1
24-May-2018 14:44:59,-1557.66666666667,0.0908714285714286,-0.882571428571428,-0.389657142857143,0.57,-0.6255,0.275333333333333,0.201,0,0,0,0,0,0,0,-0.6751,-0.38675,0.185533333333333,52.9,21.2216666666667,31.4733333333333,0.441,0.64945,-0.47705,-0.09465,2.81325,-6.112125,-22.240875,300.609,1,1,1,1
24-May-2018 14:44:59,-1557.66666666667,0.0908714285714286,-0.882571428571428,-0.389657142857143,0.57,-0.6255,0.275333333333333,0.201,0,0,0,0,0,0,0,-0.6751,-0.38675,0.185533333333333,52.9,21.2216666666667,31.4733333333333,0.441,0.64945,-0.47705,-0.09465,2.81325,-6.112125,-22.240875,300.609,1,1,1,1
24-May-2018 14:45:00,-1241.77777777778,0.0908714285714286,-0.882571428571428,-0.389657142857143,0.57,-0.6255,0.275333333333333,0.201,0,0,0,0,0,0,0,-0.97615,-0.547433333333333,-0.0815333333333333,9.25771428571429,-21.0845714285714,6.19142857142857,0.491,0.789375,-0.567375,-0.0349,3.2775,25.869,16.3415,314.59275,1,0,1,1
24-May-2018 14:45:00,-1241.77777777778,0.0908714285714286,-0.882571428571428,-0.389657142857143,0.57,-0.6255,0.275333333333333,0.201,0,0,0,0,0,0,0,-0.97615,-0.547433333333333,-0.0815333333333333,9.25771428571429,-21.0845714285714,6.19142857142857,0.491,0.789375,-0.567375,-0.0349,3.2775,25.869,16.3415,314.59275,1,0,1,1
24-May-2018 14:45:00,-1241.77777777778,0.0908714285714286,-0.882571428571428,-0.389657142857143,0.57,-0.6255,0.275333333333333,0.201,0,0,0,0,0,0,0,-0.97615,-0.547433333333333,-0.0815333333333333,9.25771428571429,-21.0845714285714,6.19142857142857,0.491,0.789375,-0.567375,-0.0349,3.2775,25.869,16.3415,314.59275,1,0,1,1
24-May-2018 14:45:00,-1241.77777777778,0.0908714285714286,-0.882571428571428,-0.389657142857143,0.57,-0.6255,0.275333333333333,0.201,0,0,0,0,0,0,0,-0.97615,-0.547433333333333,-0.0815333333333333,9.25771428571429,-21.0845714285714,6.19142857142857,0.491,0.789375,-0.567375,-0.0349,3.2775,25.869,16.3415,314.59275,1,0,1,1
24-May-2018 14:45:01,-857.5,0.0908714285714286,-0.882571428571428,-0.389657142857143,0.57,-0.6255,0.275333333333333,0.201,0,0,0,0,0,0,0,-0.74058,-0.59756,-0.07786,-67.32,-42.3258,-1.718,0.512,1.01452,-0.73077,-0.25545,11.019,-49.2842857142857,-13.7891428571429,310.909,1,1,1,1
24-May-2018 14:45:01,-857.5,0.0908714285714286,-0.882571428571428,-0.389657142857143,0.57,-0.6255,0.275333333333333,0.201,0,0,0,0,0,0,0,-0.74058,-0.59756,-0.07786,-67.32,-42.3258,-1.718,0.512,1.01452,-0.73077,-0.25545,11.019,-49.2842857142857,-13.7891428571429,310.909,1,1,1,1
24-May-2018 14:45:01,-857.5,0.0908714285714286,-0.882571428571428,-0.389657142857143,0.57,-0.6255,0.275333333333333,0.201,0,0,0,0,0,0,0,-0.74058,-0.59756,-0.07786,-67.32,-42.3258,-1.718,0.512,1.01452,-0.73077,-0.25545,11.019,-49.2842857142857,-13.7891428571429,310.909,1,1,1,1
24-May-2018 14:45:01,-857.5,0.0908714285714286,-0.882571428571428,-0.389657142857143,0.57,-0.6255,0.275333333333333,0.201,0,0,0,0,0,0,0,-0.74058,-0.59756,-0.07786,-67.32,-42.3258,-1.718,0.512,1.01452,-0.73077,-0.25545,11.019,-49.2842857142857,-13.7891428571429,310.909,1,1,1,1
24-May-2018 14:45:02,-585.666666666667,0.0908714285714286,-0.882571428571428,-0.389657142857143,0.57,-0.6255,0.275333333333333,0.201,0,0,0,0,0,0,0,-0.946814285714286,-0.731271428571429,0.0981857142857143,85.5538333333333,45.23,39.0883333333333,0.622,0.83594,-0.55262,-0.17518,5.04575,-49.26625,0.77725,318.3676,1,1,1,1
24-May-2018 14:45:02,-585.666666666667,0.0908714285714286,-0.882571428571428,-0.389657142857143,0.57,-0.6255,0.275333333333333,0.201,0,0,0,0,0,0,0,-0.946814285714286,-0.731271428571429,0.0981857142857143,85.5538333333333,45.23,39.0883333333333,0.622,0.83594,-0.55262,-0.17518,5.04575,-49.26625,0.77725,318.3676,1,1,1,1
24-May-2018 14:45:02,-585.666666666667,0.0908714285714286,-0.882571428571428,-0.389657142857143,0.57,-0.6255,0.275333333333333,0.201,0,0,0,0,0,0,0,-0.946814285714286,-0.731271428571429,0.0981857142857143,85.5538333333333,45.23,39.0883333333333,0.622,0.83594,-0.55262,-0.17518,5.04575,-49.26625,0.77725,318.3676,1,1,1,1
24-May-2018 14:45:02,-585.666666666667,0.0908714285714286,-0.882571428571428,-0.389657142857143,0.57,-0.6255,0.275333333333333,0.201,0,0,0,0,0,0,0,-0.946814285714286,-0.731271428571429,0.0981857142857143,85.5538333333333,45.23,39.0883333333333,0.622,0.83594,-0.55262,-0.17518,5.04575,-49.26625,0.77725,318.3676,1,1,1,1
24-May-2018 14:45:03,-456,0.0908714285714286,-0.882571428571428,-0.389657142857143,0.57,-0.6255,0.275333333333333,0.201,0,0,0,0,0,0,0,-0.795814285714286,-0.493871428571429,0.0825857142857143,-65.4666666666667,-45.8033333333333,6.13933333333333,0.6675,0.82785,-0.504625,-0.2880125,-11.6711428571429,-22.4385714285714,-15.5662857142857,302.611,1,1,1,1
24-May-2018 14:45:03,-456,0.0908714285714286,-0.882571428571428,-0.389657142857143,0.57,-0.6255,0.275333333333333,0.201,0,0,0,0,0,0,0,-0.795814285714286,-0.493871428571429,0.0825857142857143,-65.4666666666667,-45.8033333333333,6.13933333333333,0.6675,0.82785,-0.504625,-0.2880125,-11.6711428571429,-22.4385714285714,-15.5662857142857,302.611,1,1,1,1
24-May-2018 14:45:03,-456,0.0908714285714286,-0.882571428571428,-0.389657142857143,0.57,-0.6255,0.275333333333333,0.201,0,0,0,0,0,0,0,-0.795814285714286,-0.493871428571429,0.0825857142857143,-65.4666666666667,-45.8033333333333,6.13933333333333,0.6675,0.82785,-0.504625,-0.2880125,-11.6711428571429,-22.4385714285714,-15.5662857142857,302.611,1,1,1,1
24-May-2018 14:45:03,-456,0.0908714285714286,-0.882571428571428,-0.389657142857143,0.57,-0.6255,0.275333333333333,0.201,0,0,0,0,0,0,0,-0.795814285714286,-0.493871428571429,0.0825857142857143,-65.4666666666667,-45.8033333333333,6.13933333333333,0.6675,0.82785,-0.504625,-0.2880125,-11.6711428571429,-22.4385714285714,-15.5662857142857,302.611,1,1,1,1
24-May-2018 14:45:04,-356.555555555556,0.0908714285714286,-0.882571428571428,-0.389657142857143,0.57,-0.6255,0.275333333333333,0.201,0,0,0,0,0,0,0,-1.13707142857143,-0.532914285714286,0.0771285714285714,8.8065,20.875,13.86625,0.669,0.4408,-0.32354,-0.09232,-4.958,20.1523333333333,-10.1423333333333,290.3385,1,1,1,1
24-May-2018 14:45:04,-356.555555555556,0.0908714285714286,-0.882571428571428,-0.389657142857143,0.57,-0.6255,0.275333333333333,0.201,0,0,0,0,0,0,0,-1.13707142857143,-0.532914285714286,0.0771285714285714,8.8065,20.875,13.86625,0.669,0.4408,-0.32354,-0.09232,-4.958,20.1523333333333,-10.1423333333333,290.3385,1,1,1,1
24-May-2018 14:45:04,-356.555555555556,0.0908714285714286,-0.882571428571428,-0.389657142857143,0.57,-0.6255,0.275333333333333,0.201,0,0,0,0,0,0,0,-1.13707142857143,-0.532914285714286,0.0771285714285714,8.8065,20.875,13.86625,0.669,0.4408,-0.32354,-0.09232,-4.958,20.1523333333333,-10.1423333333333,290.3385,1,1,1,1
24-May-2018 14:45:04,-356.555555555556,0.0908714285714286,-0.882571428571428,-0.389657142857143,0.57,-0.6255,0.275333333333333,0.201,0,0,0,0,0,0,0,-1.13707142857143,-0.532914285714286,0.0771285714285714,8.8065,20.875,13.86625,0.669,0.4408,-0.32354,-0.09232,-4.958,20.1523333333333,-10.1423333333333,290.3385,1,1,1,1
24-May-2018 14:45:05,-223.8,0.0908714285714286,-0.882571428571428,-0.389657142857143,0.57,-0.6255,0.275333333333333,0.201,0,0,0,0,0,0,0,-1.0564,-0.508471428571429,0.147185714285714,-9.25333333333334,6.66666666666667,-3.85833333333333,0.77,0.727388888888889,-0.455411111111111,-0.131477777777778,-22.2814285714286,-0.57371428571428,19.8258571428571,301.22,1,1,1,1
24-May-2018 14:45:05,-223.8,0.0908714285714286,-0.882571428571428,-0.389657142857143,0.57,-0.6255,0.275333333333333,0.201,0,0,0,0,0,0,0,-1.0564,-0.508471428571429,0.147185714285714,-9.25333333333334,6.66666666666667,-3.85833333333333,0.77,0.727388888888889,-0.455411111111111,-0.131477777777778,-22.2814285714286,-0.57371428571428,19.8258571428571,301.22,1,1,1,1
24-May-2018 14:45:05,-223.8,0.0908714285714286,-0.882571428571428,-0.389657142857143,0.57,-0.6255,0.275333333333333,0.201,0,0,0,0,0,0,0,-1.0564,-0.508471428571429,0.147185714285714,-9.25333333333334,6.66666666666667,-3.85833333333333,0.77,0.727388888888889,-0.455411111111111,-0.131477777777778,-22.2814285714286,-0.57371428571428,19.8258571428571,301.22,1,1,1,1
24-May-2018 14:45:05,-223.8,0.0908714285714286,-0.882571428571428,-0.389657142857143,0.57,-0.6255,0.275333333333333,0.201,0,0,0,0,0,0,0,-1.0564,-0.508471428571429,0.147185714285714,-9.25333333333334,6.66666666666667,-3.85833333333333,0.77,0.727388888888889,-0.455411111111111,-0.131477777777778,-22.2814285714286,-0.57371428571428,19.8258571428571,301.22,1,1,1,1
