TIME,HELMET_RAW,BELT_ACC_X,BELT_ACC_Y,BELT_ACC_Z,BELT_ANG_X,BELT_ANG_Y,BELT_ANG_Z,BELT_LUMINOSITY,NECK_ACC_X,NECK_ACC_Y,NECK_ACC_Z,NECK_ANG_X,NECK_ANG_Y,NECK_ANG_Z,NECK_LUMINOSITY,PCKT_ACC_X,PCKT_ACC_Y,PCKT_ACC_Z,PCKT_ANG_X,PCKT_ANG_Y,PCKT_ANG_Z,PCKT_LUMINOSITY,WRST_ACC_X,WRST_ACC_Y,WRST_ACC_Z,WRST_ANG_X,WRST_ANG_Y,WRST_ANG_Z,WRST_LUMINOSITY,IR_1,IR_2,IR_3,IR_4
24-May-2018 14:39:38,-292.555555555556,0.0908714285714286,-0.882571428571428,-0.389657142857143,0.57,-0.6255,0.275333333333333,0.201,0,0,0,0,0,0,0,-0.362125,-0.945875,0.1285,-0.638666666666667,-1.237,-0.485,3.19166666666667,0.9479,-0.386025,0.14495,12.7436666666667,-15.6603333333333,-13.7398333333333,902.94,1,1,1,1
24-May-2018 14:39:38,-292.555555555556,0.0908714285714286,-0.882571428571428,-0.389657142857143,0.57,-0.6255,0.275333333333333,0.201,0,0,0,0,0,0,0,-0.362125,-0.945875,0.1285,-0.638666666666667,-1.237,-0.485,3.19166666666667,0.9479,-0.386025,0.14495,12.7436666666667,-15.6603333333333,-13.7398333333333,902.94,1,1,1,1
24-May-2018 14:39:38,-292.555555555556,0.0908714285714286,-0.882571428571428,-0.389657142857143,0.57,-0.6255,0.275333333333333,0.201,0,0,0,0,0,0,0,-0.362125,-0.945875,0.1285,-0.638666666666667,-1.237,-0.485,3.19166666666667,0.9479,-0.386025,0.14495,12.7436666666667,-15.6603333333333,-13.7398333333333,902.94,1,1,1,1
24-May-2018 14:39:38,-292.555555555556,0.0908714285714286,-0.882571428571428,-0.389657142857143,0.57,-0.6255,0.275333333333333,0.201,0,0,0,0,0,0,0,-0.362125,-0.945875,0.1285,-0.638666666666667,-1.237,-0.485,3.19166666666667,0.9479,-0.386025,0.14495,12.7436666666667,-15.6603333333333,-13.7398333333333,902.94,1,1,1,1
24-May-2018 14:39:39,-186.181818181818,0.0908714285714286,-0.882571428571428,-0.389657142857143,0.57,-0.6255,0.275333333333333,0.201,0,0,0,0,0,0,0,-0.357671428571429,-0.9462,0.143042857142857,0.236,-0.996714285714286,-0.648571428571429,3.21125,0.960766666666667,-0.363233333333333,0.0982,0.762166666666667,-0.101666666666667,-0.3355,607.5146,1,1,1,1
24-May-2018 14:39:39,-186.181818181818,0.0908714285714286,-0.882571428571428,-0.389657142857143,0.57,-0.6255,0.275333333333333,0.201,0,0,0,0,0,0,0,-0.357671428571429,-0.9462,0.143042857142857,0.236,-0.996714285714286,-0.648571428571429,3.21125,0.960766666666667,-0.363233333333333,0.0982,0.762166666666667,-0.101666666666667,-0.3355,607.5146,1,1,1,1
24-May-2018 14:39:39,-186.181818181818,0.0908714285714286,-0.882571428571428,-0.389657142857143,0.57,-0.6255,0.275333333333333,0.201,0,0,0,0,0,0,0,-0.357671428571429,-0.9462,0.143042857142857,0.236,-0.996714285714286,-0.648571428571429,3.21125,0.960766666666667,-0.363233333333333,0.0982,0.762166666666667,-0.101666666666667,-0.3355,607.5146,1,1,1,1
24-May-2018 14:39:39,-186.181818181818,0.0908714285714286,-0.882571428571428,-0.389657142857143,0.57,-0.6255,0.275333333333333,0.201,0,0,0,0,0,0,0,-0.357671428571429,-0.9462,0.143042857142857,0.236,-0.996714285714286,-0.648571428571429,3.21125,0.960766666666667,-0.363233333333333,0.0982,0.762166666666667,-0.101666666666667,-0.3355,607.5146,1,1,1,1
24-May-2018 14:39:40,-110.555555555556,0.0908714285714286,-0.882571428571428,-0.389657142857143,0.57,-0.6255,0.275333333333333,0.201,0,0,0,0,0,0,0,-0.35202,-0.94814,0.14658,-0.626666666666667,-1.02166666666667,-0.159333333333333,3.229,0.9615,-0.364042857142857,0.0916,1.15842857142857,0.0611428571428571,-0.566285714285714,601.932666666667,1,1,1,1
24-May-2018 14:39:40,-110.555555555556,0.0908714285714286,-0.882571428571428,-0.389657142857143,0.57,-0.6255,0.275333333333333,0.201,0,0,0,0,0,0,0,-0.35202,-0.94814,0.14658,-0.626666666666667,-1.02166666666667,-0.159333333333333,3.229,0.9615,-0.364042857142857,0.0916,1.15842857142857,0.0611428571428571,-0.566285714285714,601.932666666667,1,1,1,1
24-May-2018 14:39:40,-110.555555555556,0.0908714285714286,-0.882571428571428,-0.389657142857143,0.57,-0.6255,0.275333333333333,0.201,0,0,0,0,0,0,0,-0.35202,-0.94814,0.14658,-0.626666666666667,-1.02166666666667,-0.159333333333333,3.229,0.9615,-0.364042857142857,0.0916,1.15842857142857,0.0611428571428571,-0.566285714285714,601.932666666667,1,1,1,1
24-May-2018 14:39:40,-110.555555555556,0.0908714285714286,-0.882571428571428,-0.389657142857143,0.57,-0.6255,0.275333333333333,0.201,0,0,0,0,0,0,0,-0.35202,-0.94814,0.14658,-0.626666666666667,-1.02166666666667,-0.159333333333333,3.229,0.9615,-0.364042857142857,0.0916,1.15842857142857,0.0611428571428571,-0.566285714285714,601.932666666667,1,1,1,1
24-May-2018 14:39:41,-63.7142857142857,0.0908714285714286,-0.882571428571428,-0.389657142857143,0.57,-0.6255,0.275333333333333,0.201,0,0,0,0,0,0,0,-0.35535,-0.947483333333333,0.14795,-0.477375,-0.986625,0.184,3.2305,0.96552,-0.35978,0.09122,0.762,0.741833333333333,-0.162666666666667,593.158,1,1,1,1
24-May-2018 14:39:41,-63.7142857142857,0.0908714285714286,-0.882571428571428,-0.389657142857143,0.57,-0.6255,0.275333333333333,0.201,0,0,0,0,0,0,0,-0.35535,-0.947483333333333,0.14795,-0.477375,-0.986625,0.184,3.2305,0.96552,-0.35978,0.09122,0.762,0.741833333333333,-0.162666666666667,593.158,1,1,1,1
24-May-2018 14:39:41,-63.7142857142857,0.0908714285714286,-0.882571428571428,-0.389657142857143,0.57,-0.6255,0.275333333333333,0.201,0,0,0,0,0,0,0,-0.35535,-0.947483333333333,0.14795,-0.477375,-0.986625,0.184,3.2305,0.96552,-0.35978,0.09122,0.762,0.741833333333333,-0.162666666666667,593.158,1,1,1,1
24-May-2018 14:39:41,-63.7142857142857,0.0908714285714286,-0.882571428571428,-0.389657142857143,0.57,-0.6255,0.275333333333333,0.201,0,0,0,0,0,0,0,-0.35535,-0.947483333333333,0.14795,-0.477375,-0.986625,0.184,3.2305,0.96552,-0.35978,0.09122,0.762,0.741833333333333,-0.162666666666667,593.158,1,1,1,1
24-May-2018 14:39:42,3.44444444444444,0.0908714285714286,-0.882571428571428,-0.389657142857143,0.57,-0.6255,0.275333333333333,0.201,0,0,0,0,0,0,0,-0.364457142857143,-0.943942857142857,0.142857142857143,-1.01166666666667,-0.8195,0.123333333333333,3.244,0.9603,-0.36944,0.11292,0.366,1.176,0.191428571428571,600.96975,1,1,1,1
24-May-2018 14:39:42,3.44444444444444,0.0908714285714286,-0.882571428571428,-0.389657142857143,0.57,-0.6255,0.275333333333333,0.201,0,0,0,0,0,0,0,-0.364457142857143,-0.943942857142857,0.142857142857143,-1.01166666666667,-0.8195,0.123333333333333,3.244,0.9603,-0.36944,0.11292,0.366,1.176,0.191428571428571,600.96975,1,1,1,1
24-May-2018 14:39:42,3.44444444444444,0.0908714285714286,-0.882571428571428,-0.389657142857143,0.57,-0.6255,0.275333333333333,0.201,0,0,0,0,0,0,0,-0.364457142857143,-0.943942857142857,0.142857142857143,-1.01166666666667,-0.8195,0.123333333333333,3.244,0.9603,-0.36944,0.11292,0.366,1.176,0.191428571428571,600.96975,1,1,1,1
24-May-2018 14:39:42,3.44444444444444,0.0908714285714286,-0.882571428571428,-0.389657142857143,0.57,-0.6255,0.275333333333333,0.201,0,0,0,0,0,0,0,-0.364457142857143,-0.943942857142857,0.142857142857143,-1.01166666666667,-0.8195,0.123333333333333,3.244,0.9603,-0.36944,0.11292,0.366,1.176,0.191428571428571,600.96975,1,1,1,1
24-May-2018 14:39:43,454.666666666667,0.0908714285714286,-0.882571428571428,-0.389657142857143,0.57,-0.6255,0.275333333333333,0.201,0,0,0,0,0,0,0,-0.374057142857143,-0.940285714285714,0.135342857142857,-0.3014,-0.802,0.61,3.253,0.959957142857143,-0.364214285714286,0.104642857142857,0.5854,0.1828,-0.4148,611.88575,1,1,1,1
24-May-2018 14:39:43,454.666666666667,0.0908714285714286,-0.882571428571428,-0.389657142857143,0.57,-0.6255,0.275333333333333,0.201,0,0,0,0,0,0,0,-0.374057142857143,-0.940285714285714,0.135342857142857,-0.3014,-0.802,0.61,3.253,0.959957142857143,-0.364214285714286,0.104642857142857,0.5854,0.1828,-0.4148,611.88575,1,1,1,1
24-May-2018 14:39:43,454.666666666667,0.0908714285714286,-0.882571428571428,-0.389657142857143,0.57,-0.6255,0.275333333333333,0.201,0,0,0,0,0,0,0,-0.374057142857143,-0.940285714285714,0.135342857142857,-0.3014,-0.802,0.61,3.253,0.959957142857143,-0.364214285714286,0.104642857142857,0.5854,0.1828,-0.4148,611.88575,1,1,1,1
24-May-2018 14:39:43,454.666666666667,0.0908714285714286,-0.882571428571428,-0.389657142857143,0.57,-0.6255,0.275333333333333,0.201,0,0,0,0,0,0,0,-0.374057142857143,-0.940285714285714,0.135342857142857,-0.3014,-0.802,0.61,3.253,0.959957142857143,-0.364214285714286,0.104642857142857,0.5854,0.1828,-0.4148,611.88575,1,1,1,1
24-May-2018 14:39:44,1931.11111111111,0.0908714285714286,-0.882571428571428,-0.389657142857143,0.57,-0.6255,0.275333333333333,0.201,0,0,0,0,0,0,0,-0.3788,-0.938783333333333,0.1346,-1.04166666666667,-1.62316666666667,-0.3715,3.306,0.96484,-0.35894,0.09992,0.579125,0.35075,-0.083875,606.44225,1,1,1,1
24-May-2018 14:39:44,1931.11111111111,0.0908714285714286,-0.882571428571428,-0.389657142857143,0.57,-0.6255,0.275333333333333,0.201,0,0,0,0,0,0,0,-0.3788,-0.938783333333333,0.1346,-1.04166666666667,-1.62316666666667,-0.3715,3.306,0.96484,-0.35894,0.09992,0.579125,0.35075,-0.083875,606.44225,1,1,1,1
24-May-2018 14:39:44,1931.11111111111,0.0908714285714286,-0.882571428571428,-0.389657142857143,0.57,-0.6255,0.275333333333333,0.201,0,0,0,0,0,0,0,-0.3788,-0.938783333333333,0.1346,-1.04166666666667,-1.62316666666667,-0.3715,3.306,0.96484,-0.35894,0.09992,0.579125,0.35075,-0.083875,606.44225,1,1,1,1
24-May-2018 14:39:44,1931.11111111111,0.0908714285714286,-0.882571428571428,-0.389657142857143,0.57,-0.6255,0.275333333333333,0.201,0,0,0,0,0,0,0,-0.3788,-0.938783333333333,0.1346,-1.04166666666667,-1.62316666666667,-0.3715,3.306,0.96484,-0.35894,0.09992,0.579125,0.35075,-0.083875,606.44225,1,1,1,1
24-May-2018 14:39:45,2047,0.0908714285714286,-0.882571428571428,-0.389657142857143,0.57,-0.6255,0.275333333333333,0.201,0,0,0,0,0,0,0,-0.368671428571429,-0.944471428571429,0.134528571428571,-0.231,-1.62166666666667,-1.02166666666667,3.3445,0.96368,-0.35902,0.09816,-0.203333333333333,0.975833333333333,0.132166666666667,600.23925,0,1,1,1
24-May-2018 14:39:45,2047,0.0908714285714286,-0.882571428571428,-0.389657142857143,0.57,-0.6255,0.275333333333333,0.201,0,0,0,0,0,0,0,-0.368671428571429,-0.944471428571429,0.134528571428571,-0.231,-1.62166666666667,-1.02166666666667,3.3445,0.96368,-0.35902,0.09816,-0.203333333333333,0.975833333333333,0.132166666666667,600.23925,0,1,1,1
24-May-2018 14:39:45,2047,0.0908714285714286,-0.882571428571428,-0.389657142857143,0.57,-0.6255,0.275333333333333,0.201,0,0,0,0,0,0,0,-0.368671428571429,-0.944471428571429,0.134528571428571,-0.231,-1.62166666666667,-1.02166666666667,3.3445,0.96368,-0.35902,0.09816,-0.203333333333333,0.975833333333333,0.132166666666667,600.23925,0,1,1,1
24-May-2018 14:39:45,2047,0.0908714285714286,-0.882571428571428,-0.389657142857143,0.57,-0.6255,0.275333333333333,0.201,0,0,0,0,0,0,0,-0.368671428571429,-0.944471428571429,0.134528571428571,-0.231,-1.62166666666667,-1.02166666666667,3.3445,0.96368,-0.35902,0.09816,-0.203333333333333,0.975833333333333,0.132166666666667,600.23925,0,1,1,1
24-May-2018 14:39:46,2047,0.0908714285714286,-0.882571428571428,-0.389657142857143,0.57,-0.6255,0.275333333333333,0.201,0,0,0,0,0,0,0,-0.356883333333333,-0.945,0.152966666666667,-0.1695,-1.155,-1.17666666666667,3.2626,0.96246,-0.35848,0.10384,1.120375,0.487875,-0.07625,606.347,0,1,1,1
24-May-2018 14:39:46,2047,0.0908714285714286,-0.882571428571428,-0.389657142857143,0.57,-0.6255,0.275333333333333,0.201,0,0,0,0,0,0,0,-0.356883333333333,-0.945,0.152966666666667,-0.1695,-1.155,-1.17666666666667,3.2626,0.96246,-0.35848,0.10384,1.120375,0.487875,-0.07625,606.347,0,1,1,1
24-May-2018 14:39:46,2047,0.0908714285714286,-0.882571428571428,-0.389657142857143,0.57,-0.6255,0.275333333333333,0.201,0,0,0,0,0,0,0,-0.356883333333333,-0.945,0.152966666666667,-0.1695,-1.155,-1.17666666666667,3.2626,0.96246,-0.35848,0.10384,1.120375,0.487875,-0.07625,606.347,0,1,1,1
24-May-2018 14:39:46,2047,0.0908714285714286,-0.882571428571428,-0.389657142857143,0.57,-0.6255,0.275333333333333,0.201,0,0,0,0,0,0,0,-0.356883333333333,-0.945,0.152966666666667,-0.1695,-1.155,-1.17666666666667,3.2626,0.96246,-0.35848,0.10384,1.120375,0.487875,-0.07625,606.347,0,1,1,1
24-May-2018 14:39:47,1723.8,0.0908714285714286,-0.882571428571428,-0.389657142857143,0.57,-0.6255,0.275333333333333,0.201,0,0,0,0,0,0,0,-0.347614285714286,-0.949842857142857,0.148771428571429,-0.502714285714286,-1.29528571428571,-0.0578571428571429,3.294,0.96236,-0.36498,0.10216,0.878,-0.2684,-0.0366,606.878333333333,0,1,1,1
24-May-2018 14:39:47,1723.8,0.0908714285714286,-0.882571428571428,-0.389657142857143,0.57,-0.6255,0.275333333333333,0.201,0,0,0,0,0,0,0,-0.347614285714286,-0.949842857142857,0.148771428571429,-0.502714285714286,-1.29528571428571,-0.0578571428571429,3.294,0.96236,-0.36498,0.10216,0.878,-0.2684,-0.0366,606.878333333333,0,1,1,1
24-May-2018 14:39:47,1723.8,0.0908714285714286,-0.882571428571428,-0.389657142857143,0.57,-0.6255,0.275333333333333,0.201,0,0,0,0,0,0,0,-0.347614285714286,-0.949842857142857,0.148771428571429,-0.502714285714286,-1.29528571428571,-0.0578571428571429,3.294,0.96236,-0.36498,0.10216,0.878,-0.2684,-0.0366,606.878333333333,0,1,1,1
24-May-2018 14:39:47,1723.8,0.0908714285714286,-0.882571428571428,-0.389657142857143,0.57,-0.6255,0.275333333333333,0.201,0,0,0,0,0,0,0,-0.347614285714286,-0.949842857142857,0.148771428571429,-0.502714285714286,-1.29528571428571,-0.0578571428571429,3.294,0.96236,-0.36498,0.10216,0.878,-0.2684,-0.0366,606.878333333333,0,1,1,1
24-May-2018 14:39:48,1228.88888888889,0.0908714285714286,-0.882571428571428,-0.389657142857143,0.57,-0.6255,0.275333333333333,0.201,0,0,0,0,0,0,0,-0.35222,-0.94706,0.15094,-0.3756,-1.107,-0.0834,3.2952,0.9624,-0.362466666666667,0.0992,1.57516666666667,0.853666666666667,-0.5285,600.2808,0,1,1,1
24-May-2018 14:39:48,1228.88888888889,0.0908714285714286,-0.882571428571428,-0.389657142857143,0.57,-0.6255,0.275333333333333,0.201,0,0,0,0,0,0,0,-0.35222,-0.94706,0.15094,-0.3756,-1.107,-0.0834,3.2952,0.9624,-0.362466666666667,0.0992,1.57516666666667,0.853666666666667,-0.5285,600.2808,0,1,1,1
24-May-2018 14:39:48,1228.88888888889,0.0908714285714286,-0.882571428571428,-0.389657142857143,0.57,-0.6255,0.275333333333333,0.201,0,0,0,0,0,0,0,-0.35222,-0.94706,0.15094,-0.3756,-1.107,-0.0834,3.2952,0.9624,-0.362466666666667,0.0992,1.57516666666667,0.853666666666667,-0.5285,600.2808,0,1,1,1
24-May-2018 14:39:48,1228.88888888889,0.0908714285714286,-0.882571428571428,-0.389657142857143,0.57,-0.6255,0.275333333333333,0.201,0,0,0,0,0,0,0,-0.35222,-0.94706,0.15094,-0.3756,-1.107,-0.0834,3.2952,0.9624,-0.362466666666667,0.0992,1.57516666666667,0.853666666666667,-0.5285,600.2808,0,1,1,1
24-May-2018 14:39:49,877.6,0.0908714285714286,-0.882571428571428,-0.389657142857143,0.57,-0.6255,0.275333333333333,0.201,0,0,0,0,0,0,0,-0.3525,-0.947316666666667,0.150783333333333,-0.7275,-0.88,-0.345,3.28,0.964385714285714,-0.352942857142857,0.113442857142857,1.507,0.618428571428571,-0.331,604.556,0,1,1,1
24-May-2018 14:39:49,877.6,0.0908714285714286,-0.882571428571428,-0.389657142857143,0.57,-0.6255,0.275333333333333,0.201,0,0,0,0,0,0,0,-0.3525,-0.947316666666667,0.150783333333333,-0.7275,-0.88,-0.345,3.28,0.964385714285714,-0.352942857142857,0.113442857142857,1.507,0.618428571428571,-0.331,604.556,0,1,1,1
24-May-2018 14:39:49,877.6,0.0908714285714286,-0.882571428571428,-0.389657142857143,0.57,-0.6255,0.275333333333333,0.201,0,0,0,0,0,0,0,-0.3525,-0.947316666666667,0.150783333333333,-0.7275,-0.88,-0.345,3.28,0.964385714285714,-0.352942857142857,0.113442857142857,1.507,0.618428571428571,-0.331,604.556,0,1,1,1
24-May-2018 14:39:49,877.6,0.0908714285714286,-0.882571428571428,-0.389657142857143,0.57,-0.6255,0.275333333333333,0.201,0,0,0,0,0,0,0,-0.3525,-0.947316666666667,0.150783333333333,-0.7275,-0.88,-0.345,3.28,0.964385714285714,-0.352942857142857,0.113442857142857,1.507,0.618428571428571,-0.331,604.556,0,1,1,1
24-May-2018 14:39:50,326,0.0908714285714286,-0.882571428571428,-0.389657142857143,0.57,-0.6255,0.275333333333333,0.201,0,0,0,0,0,0,0,-0.35095,-0.947816666666667,0.1501,-0.337,-0.726428571428571,-0.0592857142857143,3.2844,0.963183333333333,-0.35735,0.11135,-0.9634,0.9756,0.2806,607.1865,0,1,1,1
24-May-2018 14:39:50,326,0.0908714285714286,-0.882571428571428,-0.389657142857143,0.57,-0.6255,0.275333333333333,0.201,0,0,0,0,0,0,0,-0.35095,-0.947816666666667,0.1501,-0.337,-0.726428571428571,-0.0592857142857143,3.2844,0.963183333333333,-0.35735,0.11135,-0.9634,0.9756,0.2806,607.1865,0,1,1,1
24-May-2018 14:39:50,326,0.0908714285714286,-0.882571428571428,-0.389657142857143,0.57,-0.6255,0.275333333333333,0.201,0,0,0,0,0,0,0,-0.35095,-0.947816666666667,0.1501,-0.337,-0.726428571428571,-0.0592857142857143,3.2844,0.963183333333333,-0.35735,0.11135,-0.9634,0.9756,0.2806,607.1865,0,1,1,1
24-May-2018 14:39:50,326,0.0908714285714286,-0.882571428571428,-0.389657142857143,0.57,-0.6255,0.275333333333333,0.201,0,0,0,0,0,0,0,-0.35095,-0.947816666666667,0.1501,-0.337,-0.726428571428571,-0.0592857142857143,3.2844,0.963183333333333,-0.35735,0.11135,-0.9634,0.9756,0.2806,607.1865,0,1,1,1
24-May-2018 14:39:51,-1315.85714285714,0.0908714285714286,-0.882571428571428,-0.389657142857143,0.57,-0.6255,0.275333333333333,0.201,0,0,0,0,0,0,0,-0.353,-0.9472,0.151328571428571,-0.546666666666667,-0.848333333333333,-0.32,3.288,0.9614,-0.35894,0.12182,0.261285714285714,0.853714285714286,0.122,612.2975,1,1,1,1
24-May-2018 14:39:51,-1315.85714285714,0.0908714285714286,-0.882571428571428,-0.389657142857143,0.57,-0.6255,0.275333333333333,0.201,0,0,0,0,0,0,0,-0.353,-0.9472,0.151328571428571,-0.546666666666667,-0.848333333333333,-0.32,3.288,0.9614,-0.35894,0.12182,0.261285714285714,0.853714285714286,0.122,612.2975,1,1,1,1
24-May-2018 14:39:51,-1315.85714285714,0.0908714285714286,-0.882571428571428,-0.389657142857143,0.57,-0.6255,0.275333333333333,0.201,0,0,0,0,0,0,0,-0.353,-0.9472,0.151328571428571,-0.546666666666667,-0.848333333333333,-0.32,3.288,0.9614,-0.35894,0.12182,0.261285714285714,0.853714285714286,0.122,612.2975,1,1,1,1
24-May-2018 14:39:51,-1315.85714285714,0.0908714285714286,-0.882571428571428,-0.389657142857143,0.57,-0.6255,0.275333333333333,0.201,0,0,0,0,0,0,0,-0.353,-0.9472,0.151328571428571,-0.546666666666667,-0.848333333333333,-0.32,3.288,0.9614,-0.35894,0.12182,0.261285714285714,0.853714285714286,0.122,612.2975,1,1,1,1
24-May-2018 14:39:52,-2048,0.0908714285714286,-0.882571428571428,-0.389657142857143,0.57,-0.6255,0.275333333333333,0.201,0,0,0,0,0,0,0,-0.3523,-0.948057142857143,0.150214285714286,-0.578,-1.288,-0.264,3.27,0.957416666666667,-0.370116666666667,0.115533333333333,2.59571428571429,-0.940714285714286,0.113285714285714,619.365,1,1,1,1
24-May-2018 14:39:52,-2048,0.0908714285714286,-0.882571428571428,-0.389657142857143,0.57,-0.6255,0.275333333333333,0.201,0,0,0,0,0,0,0,-0.3523,-0.948057142857143,0.150214285714286,-0.578,-1.288,-0.264,3.27,0.957416666666667,-0.370116666666667,0.115533333333333,2.59571428571429,-0.940714285714286,0.113285714285714,619.365,1,1,1,1
24-May-2018 14:39:52,-2048,0.0908714285714286,-0.882571428571428,-0.389657142857143,0.57,-0.6255,0.275333333333333,0.201,0,0,0,0,0,0,0,-0.3523,-0.948057142857143,0.150214285714286,-0.578,-1.288,-0.264,3.27,0.957416666666667,-0.370116666666667,0.115533333333333,2.59571428571429,-0.940714285714286,0.113285714285714,619.365,1,1,1,1
24-May-2018 14:39:52,-2048,0.0908714285714286,-0.882571428571428,-0.389657142857143,0.57,-0.6255,0.275333333333333,0.201,0,0,0,0,0,0,0,-0.3523,-0.948057142857143,0.150214285714286,-0.578,-1.288,-0.264,3.27,0.957416666666667,-0.370116666666667,0.115533333333333,2.59571428571429,-0.940714285714286,0.113285714285714,619.365,1,1,1,1
24-May-2018 14:39:53,-2048,0.0908714285714286,-0.882571428571428,-0.389657142857143,0.57,-0.6255,0.275333333333333,0.201,0,0,0,0,0,0,0,-0.352583333333333,-0.9468,0.151716666666667,-0.0595714285714286,-0.796571428571429,-0.00657142857142857,3.276,0.96136,-0.36384,0.10668,0.557428571428571,0.331142857142857,-0.801571428571428,604.2285,1,1,1,1
24-May-2018 14:39:53,-2048,0.0908714285714286,-0.882571428571428,-0.389657142857143,0.57,-0.6255,0.275333333333333,0.201,0,0,0,0,0,0,0,-0.352583333333333,-0.9468,0.151716666666667,-0.0595714285714286,-0.796571428571429,-0.00657142857142857,3.276,0.96136,-0.36384,0.10668,0.557428571428571,0.331142857142857,-0.801571428571428,604.2285,1,1,1,1
24-May-2018 14:39:53,-2048,0.0908714285714286,-0.882571428571428,-0.389657142857143,0.57,-0.6255,0.275333333333333,0.201,0,0,0,0,0,0,0,-0.352583333333333,-0.9468,0.151716666666667,-0.0595714285714286,-0.796571428571429,-0.00657142857142857,3.276,0.96136,-0.36384,0.10668,0.557428571428571,0.331142857142857,-0.801571428571428,604.2285,1,1,1,1
24-May-2018 14:39:53,-2048,0.0908714285714286,-0.882571428571428,-0.389657142857143,0.57,-0.6255,0.275333333333333,0.201,0,0,0,0,0,0,0,-0.352583333333333,-0.9468,0.151716666666667,-0.0595714285714286,-0.796571428571429,-0.00657142857142857,3.276,0.96136,-0.36384,0.10668,0.557428571428571,0.331142857142857,-0.801571428571428,604.2285,1,1,1,1
24-May-2018 14:39:54,-1765.3,0.0908714285714286,-0.882571428571428,-0.389657142857143,0.57,-0.6255,0.275333333333333,0.201,0,0,0,0,0,0,0,-0.3567,-0.944733333333333,0.166516666666667,0.00142857142857143,-1.14714285714286,-0.467,3.321,0.9663,-0.3524,0.115366666666667,0.2562,0.549,-0.5856,605.8615,1,1,1,1
24-May-2018 14:39:54,-1765.3,0.0908714285714286,-0.882571428571428,-0.389657142857143,0.57,-0.6255,0.275333333333333,0.201,0,0,0,0,0,0,0,-0.3567,-0.944733333333333,0.166516666666667,0.00142857142857143,-1.14714285714286,-0.467,3.321,0.9663,-0.3524,0.115366666666667,0.2562,0.549,-0.5856,605.8615,1,1,1,1
24-May-2018 14:39:54,-1765.3,0.0908714285714286,-0.882571428571428,-0.389657142857143,0.57,-0.6255,0.275333333333333,0.201,0,0,0,0,0,0,0,-0.3567,-0.944733333333333,0.166516666666667,0.00142857142857143,-1.14714285714286,-0.467,3.321,0.9663,-0.3524,0.115366666666667,0.2562,0.549,-0.5856,605.8615,1,1,1,1
24-May-2018 14:39:54,-1765.3,0.0908714285714286,-0.882571428571428,-0.389657142857143,0.57,-0.6255,0.275333333333333,0.201,0,0,0,0,0,0,0,-0.3567,-0.944733333333333,0.166516666666667,0.00142857142857143,-1.14714285714286,-0.467,3.321,0.9663,-0.3524,0.115366666666667,0.2562,0.549,-0.5856,605.8615,1,1,1,1
24-May-2018 14:39:55,-1251.625,0.0908714285714286,-0.882571428571428,-0.389657142857143,0.57,-0.6255,0.275333333333333,0.201,0,0,0,0,0,0,0,-0.352633333333333,-0.945233333333333,0.1758,-0.10425,-1.185,-0.225,3.342,0.96405,-0.35315,0.1169,1.4025,0.488,-0.13725,611.9875,1,1,1,1
24-May-2018 14:39:55,-1251.625,0.0908714285714286,-0.882571428571428,-0.389657142857143,0.57,-0.6255,0.275333333333333,0.201,0,0,0,0,0,0,0,-0.352633333333333,-0.945233333333333,0.1758,-0.10425,-1.185,-0.225,3.342,0.96405,-0.35315,0.1169,1.4025,0.488,-0.13725,611.9875,1,1,1,1
24-May-2018 14:39:55,-1251.625,0.0908714285714286,-0.882571428571428,-0.389657142857143,0.57,-0.6255,0.275333333333333,0.201,0,0,0,0,0,0,0,-0.352633333333333,-0.945233333333333,0.1758,-0.10425,-1.185,-0.225,3.342,0.96405,-0.35315,0.1169,1.4025,0.488,-0.13725,611.9875,1,1,1,1
24-May-2018 14:39:55,-1251.625,0.0908714285714286,-0.882571428571428,-0.389657142857143,0.57,-0.6255,0.275333333333333,0.201,0,0,0,0,0,0,0,-0.352633333333333,-0.945233333333333,0.1758,-0.10425,-1.185,-0.225,3.342,0.96405,-0.35315,0.1169,1.4025,0.488,-0.13725,611.9875,1,1,1,1
24-May-2018 14:39:56,-882.1,0.0908714285714286,-0.882571428571428,-0.389657142857143,0.57,-0.6255,0.275333333333333,0.201,0,0,0,0,0,0,0,-0.35308,-0.94414,0.17966,0.194166666666667,-1.54333333333333,0.386666666666667,3.342,0.96395,-0.35035,0.1139,1.22966666666667,0.203333333333333,0.0101666666666667,609.17075,1,1,1,1
24-May-2018 14:39:56,-882.1,0.0908714285714286,-0.882571428571428,-0.389657142857143,0.57,-0.6255,0.275333333333333,0.201,0,0,0,0,0,0,0,-0.35308,-0.94414,0.17966,0.194166666666667,-1.54333333333333,0.386666666666667,3.342,0.96395,-0.35035,0.1139,1.22966666666667,0.203333333333333,0.0101666666666667,609.17075,1,1,1,1
24-May-2018 14:39:56,-882.1,0.0908714285714286,-0.882571428571428,-0.389657142857143,0.57,-0.6255,0.275333333333333,0.201,0,0,0,0,0,0,0,-0.35308,-0.94414,0.17966,0.194166666666667,-1.54333333333333,0.386666666666667,3.342,0.96395,-0.35035,0.1139,1.22966666666667,0.203333333333333,0.0101666666666667,609.17075,1,1,1,1
24-May-2018 14:39:56,-882.1,0.0908714285714286,-0.882571428571428,-0.389657142857143,0.57,-0.6255,0.275333333333333,0.201,0,0,0,0,0,0,0,-0.35308,-0.94414,0.17966,0.194166666666667,-1.54333333333333,0.386666666666667,3.342,0.96395,-0.35035,0.1139,1.22966666666667,0.203333333333333,0.0101666666666667,609.17075,1,1,1,1
24-May-2018 14:39:57,-603.555555555556,0.0908714285714286,-0.882571428571428,-0.389657142857143,0.57,-0.6255,0.275333333333333,0.201,0,0,0,0,0,0,0,-0.363771428571429,-0.942171428571429,0.190357142857143,-0.674285714285714,-0.397142857142857,-0.0932857142857143,3.318,0.961114285714286,-0.357457142857143,0.121014285714286,0.731571428571429,0.592571428571429,0.453142857142857,612.461,1,1,1,1
24-May-2018 14:39:57,-603.555555555556,0.0908714285714286,-0.882571428571428,-0.389657142857143,0.57,-0.6255,0.275333333333333,0.201,0,0,0,0,0,0,0,-0.363771428571429,-0.942171428571429,0.190357142857143,-0.674285714285714,-0.397142857142857,-0.0932857142857143,3.318,0.961114285714286,-0.357457142857143,0.121014285714286,0.731571428571429,0.592571428571429,0.453142857142857,612.461,1,1,1,1
24-May-2018 14:39:57,-603.555555555556,0.0908714285714286,-0.882571428571428,-0.389657142857143,0.57,-0.6255,0.275333333333333,0.201,0,0,0,0,0,0,0,-0.363771428571429,-0.942171428571429,0.190357142857143,-0.674285714285714,-0.397142857142857,-0.0932857142857143,3.318,0.961114285714286,-0.357457142857143,0.121014285714286,0.731571428571429,0.592571428571429,0.453142857142857,612.461,1,1,1,1
24-May-2018 14:39:57,-603.555555555556,0.0908714285714286,-0.882571428571428,-0.389657142857143,0.57,-0.6255,0.275333333333333,0.201,0,0,0,0,0,0,0,-0.363771428571429,-0.942171428571429,0.190357142857143,-0.674285714285714,-0.397142857142857,-0.0932857142857143,3.318,0.961114285714286,-0.357457142857143,0.121014285714286,0.731571428571429,0.592571428571429,0.453142857142857,612.461,1,1,1,1
24-May-2018 14:39:58,-425,0.0908714285714286,-0.882571428571428,-0.389657142857143,0.57,-0.6255,0.275333333333333,0.201,0,0,0,0,0,0,0,-0.37214,-0.93712,0.18968,-0.118571428571429,-1.19928571428571,0.262,3.3324,0.95595,-0.372433333333333,0.126866666666667,0.357142857142857,1.08028571428571,0.0958571428571428,620.30275,1,1,1,1
24-May-2018 14:39:58,-425,0.0908714285714286,-0.882571428571428,-0.389657142857143,0.57,-0.6255,0.275333333333333,0.201,0,0,0,0,0,0,0,-0.37214,-0.93712,0.18968,-0.118571428571429,-1.19928571428571,0.262,3.3324,0.95595,-0.372433333333333,0.126866666666667,0.357142857142857,1.08028571428571,0.0958571428571428,620.30275,1,1,1,1
24-May-2018 14:39:58,-425,0.0908714285714286,-0.882571428571428,-0.389657142857143,0.57,-0.6255,0.275333333333333,0.201,0,0,0,0,0,0,0,-0.37214,-0.93712,0.18968,-0.118571428571429,-1.19928571428571,0.262,3.3324,0.95595,-0.372433333333333,0.126866666666667,0.357142857142857,1.08028571428571,0.0958571428571428,620.30275,1,1,1,1
24-May-2018 14:39:58,-425,0.0908714285714286,-0.882571428571428,-0.389657142857143,0.57,-0.6255,0.275333333333333,0.201,0,0,0,0,0,0,0,-0.37214,-0.93712,0.18968,-0.118571428571429,-1.19928571428571,0.262,3.3324,0.95595,-0.372433333333333,0.126866666666667,0.357142857142857,1.08028571428571,0.0958571428571428,620.30275,1,1,1,1
24-May-2018 14:39:59,-289.9,0.0908714285714286,-0.882571428571428,-0.389657142857143,0.57,-0.6255,0.275333333333333,0.201,0,0,0,0,0,0,0,-0.38008,-0.93582,0.18728,-1.08333333333333,-0.575833333333333,0.2545,3.342,0.957033333333333,-0.368166666666667,0.1372,0.522714285714286,0.426857142857143,-0.252714285714286,625.853333333333,1,1,1,1
24-May-2018 14:39:59,-289.9,0.0908714285714286,-0.882571428571428,-0.389657142857143,0.57,-0.6255,0.275333333333333,0.201,0,0,0,0,0,0,0,-0.38008,-0.93582,0.18728,-1.08333333333333,-0.575833333333333,0.2545,3.342,0.957033333333333,-0.368166666666667,0.1372,0.522714285714286,0.426857142857143,-0.252714285714286,625.853333333333,1,1,1,1
24-May-2018 14:39:59,-289.9,0.0908714285714286,-0.882571428571428,-0.389657142857143,0.57,-0.6255,0.275333333333333,0.201,0,0,0,0,0,0,0,-0.38008,-0.93582,0.18728,-1.08333333333333,-0.575833333333333,0.2545,3.342,0.957033333333333,-0.368166666666667,0.1372,0.522714285714286,0.426857142857143,-0.252714285714286,625.853333333333,1,1,1,1
24-May-2018 14:39:59,-289.9,0.0908714285714286,-0.882571428571428,-0.389657142857143,0.57,-0.6255,0.275333333333333,0.201,0,0,0,0,0,0,0,-0.38008,-0.93582,0.18728,-1.08333333333333,-0.575833333333333,0.2545,3.342,0.957033333333333,-0.368166666666667,0.1372,0.522714285714286,0.426857142857143,-0.252714285714286,625.853333333333,1,1,1,1
24-May-2018 14:40:00,-183.5,0.0908714285714286,-0.882571428571428,-0.389657142857143,0.57,-0.6255,0.275333333333333,0.201,0,0,0,0,0,0,0,-0.387466666666667,-0.932016666666667,0.18135,-0.644375,-0.65875,-0.028,3.318,0.961316666666667,-0.357866666666667,0.127916666666667,0.0432857142857143,0.139571428571429,-0.871,620.9155,1,1,1,1
24-May-2018 14:40:00,-183.5,0.0908714285714286,-0.882571428571428,-0.389657142857143,0.57,-0.6255,0.275333333333333,0.201,0,0,0,0,0,0,0,-0.387466666666667,-0.932016666666667,0.18135,-0.644375,-0.65875,-0.028,3.318,0.961316666666667,-0.357866666666667,0.127916666666667,0.0432857142857143,0.139571428571429,-0.871,620.9155,1,1,1,1
24-May-2018 14:40:00,-183.5,0.0908714285714286,-0.882571428571428,-0.389657142857143,0.57,-0.6255,0.275333333333333,0.201,0,0,0,0,0,0,0,-0.387466666666667,-0.932016666666667,0.18135,-0.644375,-0.65875,-0.028,3.318,0.961316666666667,-0.357866666666667,0.127916666666667,0.0432857142857143,0.139571428571429,-0.871,620.9155,1,1,1,1
24-May-2018 14:40:00,-183.5,0.0908714285714286,-0.882571428571428,-0.389657142857143,0.57,-0.6255,0.275333333333333,0.201,0,0,0,0,0,0,0,-0.387466666666667,-0.932016666666667,0.18135,-0.644375,-0.65875,-0.028,3.318,0.961316666666667,-0.357866666666667,0.127916666666667,0.0432857142857143,0.139571428571429,-0.871,620.9155,1,1,1,1
24-May-2018 14:40:01,-83.25,0.0908714285714286,-0.882571428571428,-0.389657142857143,0.57,-0.6255,0.275333333333333,0.201,0,0,0,0,0,0,0,-0.389616666666667,-0.931933333333333,0.176166666666667,-0.564166666666667,-0.881166666666667,-0.451666666666667,3.3228,0.967728571428571,-0.3315,0.123257142857143,0.479142857142857,0.174428571428571,-0.940857142857143,609.557,0,1,1,1
24-May-2018 14:40:01,-83.25,0.0908714285714286,-0.882571428571428,-0.389657142857143,0.57,-0.6255,0.275333333333333,0.201,0,0,0,0,0,0,0,-0.389616666666667,-0.931933333333333,0.176166666666667,-0.564166666666667,-0.881166666666667,-0.451666666666667,3.3228,0.967728571428571,-0.3315,0.123257142857143,0.479142857142857,0.174428571428571,-0.940857142857143,609.557,0,1,1,1
24-May-2018 14:40:01,-83.25,0.0908714285714286,-0.882571428571428,-0.389657142857143,0.57,-0.6255,0.275333333333333,0.201,0,0,0,0,0,0,0,-0.389616666666667,-0.931933333333333,0.176166666666667,-0.564166666666667,-0.881166666666667,-0.451666666666667,3.3228,0.967728571428571,-0.3315,0.123257142857143,0.479142857142857,0.174428571428571,-0.940857142857143,609.557,0,1,1,1
24-May-2018 14:40:01,-83.25,0.0908714285714286,-0.882571428571428,-0.389657142857143,0.57,-0.6255,0.275333333333333,0.201,0,0,0,0,0,0,0,-0.389616666666667,-0.931933333333333,0.176166666666667,-0.564166666666667,-0.881166666666667,-0.451666666666667,3.3228,0.967728571428571,-0.3315,0.123257142857143,0.479142857142857,0.174428571428571,-0.940857142857143,609.557,0,1,1,1
24-May-2018 14:40:02,2047,0.0908714285714286,-0.882571428571428,-0.389657142857143,0.57,-0.6255,0.275333333333333,0.201,0,0,0,0,0,0,0,-0.38456,-0.9326,0.17652,-0.581142857142857,-1.36142857142857,-0.562857142857143,3.342,0.973875,-0.3248,0.1157,1.32133333333333,-0.437,0.101666666666667,603.01525,0,1,1,1
24-May-2018 14:40:02,2047,0.0908714285714286,-0.882571428571428,-0.389657142857143,0.57,-0.6255,0.275333333333333,0.201,0,0,0,0,0,0,0,-0.38456,-0.9326,0.17652,-0.581142857142857,-1.36142857142857,-0.562857142857143,3.342,0.973875,-0.3248,0.1157,1.32133333333333,-0.437,0.101666666666667,603.01525,0,1,1,1
24-May-2018 14:40:02,2047,0.0908714285714286,-0.882571428571428,-0.389657142857143,0.57,-0.6255,0.275333333333333,0.201,0,0,0,0,0,0,0,-0.38456,-0.9326,0.17652,-0.581142857142857,-1.36142857142857,-0.562857142857143,3.342,0.973875,-0.3248,0.1157,1.32133333333333,-0.437,0.101666666666667,603.01525,0,1,1,1
24-May-2018 14:40:02,2047,0.0908714285714286,-0.882571428571428,-0.389657142857143,0.57,-0.6255,0.275333333333333,0.201,0,0,0,0,0,0,0,-0.38456,-0.9326,0.17652,-0.581142857142857,-1.36142857142857,-0.562857142857143,3.342,0.973875,-0.3248,0.1157,1.32133333333333,-0.437,0.101666666666667,603.01525,0,1,1,1
24-May-2018 14:40:03,2047,0.0908714285714286,-0.882571428571428,-0.389657142857143,0.57,-0.6255,0.275333333333333,0.201,0,0,0,0,0,0,0,-0.377828571428572,-0.9361,0.179385714285714,-0.2525,-0.7995,-0.293,3.3324,0.970642857142857,-0.338557142857143,0.121042857142857,0.318333333333333,0.718444444444444,-0.0813333333333333,604.751,1,1,1,1
24-May-2018 14:40:03,2047,0.0908714285714286,-0.882571428571428,-0.389657142857143,0.57,-0.6255,0.275333333333333,0.201,0,0,0,0,0,0,0,-0.377828571428572,-0.9361,0.179385714285714,-0.2525,-0.7995,-0.293,3.3324,0.970642857142857,-0.338557142857143,0.121042857142857,0.318333333333333,0.718444444444444,-0.0813333333333333,604.751,1,1,1,1
24-May-2018 14:40:03,2047,0.0908714285714286,-0.882571428571428,-0.389657142857143,0.57,-0.6255,0.275333333333333,0.201,0,0,0,0,0,0,0,-0.377828571428572,-0.9361,0.179385714285714,-0.2525,-0.7995,-0.293,3.3324,0.970642857142857,-0.338557142857143,0.121042857142857,0.318333333333333,0.718444444444444,-0.0813333333333333,604.751,1,1,1,1
24-May-2018 14:40:03,2047,0.0908714285714286,-0.882571428571428,-0.389657142857143,0.57,-0.6255,0.275333333333333,0.201,0,0,0,0,0,0,0,-0.377828571428572,-0.9361,0.179385714285714,-0.2525,-0.7995,-0.293,3.3324,0.970642857142857,-0.338557142857143,0.121042857142857,0.318333333333333,0.718444444444444,-0.0813333333333333,604.751,1,1,1,1
24-May-2018 14:40:04,1866,0.0908714285714286,-0.882571428571428,-0.389657142857143,0.57,-0.6255,0.275333333333333,0.201,0,0,0,0,0,0,0,-0.379357142857143,-0.933542857142857,0.186542857142857,-0.284285714285714,-0.848571428571429,-0.085,3.318,0.969328571428571,-0.336214285714286,0.117228571428571,0.7438,0.4026,-0.2684,607.4725,1,1,1,1
24-May-2018 14:40:04,1866,0.0908714285714286,-0.882571428571428,-0.389657142857143,0.57,-0.6255,0.275333333333333,0.201,0,0,0,0,0,0,0,-0.379357142857143,-0.933542857142857,0.186542857142857,-0.284285714285714,-0.848571428571429,-0.085,3.318,0.969328571428571,-0.336214285714286,0.117228571428571,0.7438,0.4026,-0.2684,607.4725,1,1,1,1
24-May-2018 14:40:04,1866,0.0908714285714286,-0.882571428571428,-0.389657142857143,0.57,-0.6255,0.275333333333333,0.201,0,0,0,0,0,0,0,-0.379357142857143,-0.933542857142857,0.186542857142857,-0.284285714285714,-0.848571428571429,-0.085,3.318,0.969328571428571,-0.336214285714286,0.117228571428571,0.7438,0.4026,-0.2684,607.4725,1,1,1,1
24-May-2018 14:40:04,1866,0.0908714285714286,-0.882571428571428,-0.389657142857143,0.57,-0.6255,0.275333333333333,0.201,0,0,0,0,0,0,0,-0.379357142857143,-0.933542857142857,0.186542857142857,-0.284285714285714,-0.848571428571429,-0.085,3.318,0.969328571428571,-0.336214285714286,0.117228571428571,0.7438,0.4026,-0.2684,607.4725,1,1,1,1
24-May-2018 14:40:05,1325.4,0.0908714285714286,-0.882571428571428,-0.389657142857143,0.57,-0.6255,0.275333333333333,0.201,0,0,0,0,0,0,0,-0.38225,-0.9337,0.1842,-0.4358,-0.655,0.0136,3.318,0.96964,-0.3382,0.1177,0.846777777777778,0.562444444444444,-0.122,606.0015,1,1,1,1
24-May-2018 14:40:05,1325.4,0.0908714285714286,-0.882571428571428,-0.389657142857143,0.57,-0.6255,0.275333333333333,0.201,0,0,0,0,0,0,0,-0.38225,-0.9337,0.1842,-0.4358,-0.655,0.0136,3.318,0.96964,-0.3382,0.1177,0.846777777777778,0.562444444444444,-0.122,606.0015,1,1,1,1
24-May-2018 14:40:05,1325.4,0.0908714285714286,-0.882571428571428,-0.389657142857143,0.57,-0.6255,0.275333333333333,0.201,0,0,0,0,0,0,0,-0.38225,-0.9337,0.1842,-0.4358,-0.655,0.0136,3.318,0.96964,-0.3382,0.1177,0.846777777777778,0.562444444444444,-0.122,606.0015,1,1,1,1
24-May-2018 14:40:05,1325.4,0.0908714285714286,-0.882571428571428,-0.389657142857143,0.57,-0.6255,0.275333333333333,0.201,0,0,0,0,0,0,0,-0.38225,-0.9337,0.1842,-0.4358,-0.655,0.0136,3.318,0.96964,-0.3382,0.1177,0.846777777777778,0.562444444444444,-0.122,606.0015,1,1,1,1
24-May-2018 14:40:06,914.454545454545,0.0908714285714286,-0.882571428571428,-0.389657142857143,0.57,-0.6255,0.275333333333333,0.201,0,0,0,0,0,0,0,-0.382214285714286,-0.9337,0.180842857142857,-0.4395,-1.02,-0.4375,3.318,0.969014285714286,-0.340971428571429,0.1184,-0.345666666666667,0.5185,9.25185853854297e-18,604.73875,1,1,1,1
24-May-2018 14:40:06,914.454545454545,0.0908714285714286,-0.882571428571428,-0.389657142857143,0.57,-0.6255,0.275333333333333,0.201,0,0,0,0,0,0,0,-0.382214285714286,-0.9337,0.180842857142857,-0.4395,-1.02,-0.4375,3.318,0.969014285714286,-0.340971428571429,0.1184,-0.345666666666667,0.5185,9.25185853854297e-18,604.73875,1,1,1,1
24-May-2018 14:40:06,914.454545454545,0.0908714285714286,-0.882571428571428,-0.389657142857143,0.57,-0.6255,0.275333333333333,0.201,0,0,0,0,0,0,0,-0.382214285714286,-0.9337,0.180842857142857,-0.4395,-1.02,-0.4375,3.318,0.969014285714286,-0.340971428571429,0.1184,-0.345666666666667,0.5185,9.25185853854297e-18,604.73875,1,1,1,1
24-May-2018 14:40:06,914.454545454545,0.0908714285714286,-0.882571428571428,-0.389657142857143,0.57,-0.6255,0.275333333333333,0.201,0,0,0,0,0,0,0,-0.382214285714286,-0.9337,0.180842857142857,-0.4395,-1.02,-0.4375,3.318,0.969014285714286,-0.340971428571429,0.1184,-0.345666666666667,0.5185,9.25185853854297e-18,604.73875,1,1,1,1
24-May-2018 14:40:07,665.857142857143,0.0908714285714286,-0.882571428571428,-0.389657142857143,0.57,-0.6255,0.275333333333333,0.201,0,0,0,0,0,0,0,-0.3742375,-0.937825,0.1757125,-0.814285714285714,-1.09285714285714,-0.702857142857143,3.318,0.969728571428572,-0.341157142857143,0.118071428571429,0.518125,0.57175,-0.160125,605.7085,1,1,1,1
24-May-2018 14:40:07,665.857142857143,0.0908714285714286,-0.882571428571428,-0.389657142857143,0.57,-0.6255,0.275333333333333,0.201,0,0,0,0,0,0,0,-0.3742375,-0.937825,0.1757125,-0.814285714285714,-1.09285714285714,-0.702857142857143,3.318,0.969728571428572,-0.341157142857143,0.118071428571429,0.518125,0.57175,-0.160125,605.7085,1,1,1,1
24-May-2018 14:40:07,665.857142857143,0.0908714285714286,-0.882571428571428,-0.389657142857143,0.57,-0.6255,0.275333333333333,0.201,0,0,0,0,0,0,0,-0.3742375,-0.937825,0.1757125,-0.814285714285714,-1.09285714285714,-0.702857142857143,3.318,0.969728571428572,-0.341157142857143,0.118071428571429,0.518125,0.57175,-0.160125,605.7085,1,1,1,1
24-May-2018 14:40:07,665.857142857143,0.0908714285714286,-0.882571428571428,-0.389657142857143,0.57,-0.6255,0.275333333333333,0.201,0,0,0,0,0,0,0,-0.3742375,-0.937825,0.1757125,-0.814285714285714,-1.09285714285714,-0.702857142857143,3.318,0.969728571428572,-0.341157142857143,0.118071428571429,0.518125,0.57175,-0.160125,605.7085,1,1,1,1
24-May-2018 14:40:08,507.777777777778,0.0908714285714286,-0.882571428571428,-0.389657142857143,0.57,-0.6255,0.275333333333333,0.201,0,0,0,0,0,0,0,-0.366416666666667,-0.94075,0.177466666666667,-0.858142857142857,-1.14571428571429,-0.615428571428571,3.342,0.968128571428571,-0.334257142857143,0.118585714285714,0.539,1.03666666666667,-0.386333333333333,605.1725,0,1,1,1
24-May-2018 14:40:08,507.777777777778,0.0908714285714286,-0.882571428571428,-0.389657142857143,0.57,-0.6255,0.275333333333333,0.201,0,0,0,0,0,0,0,-0.366416666666667,-0.94075,0.177466666666667,-0.858142857142857,-1.14571428571429,-0.615428571428571,3.342,0.968128571428571,-0.334257142857143,0.118585714285714,0.539,1.03666666666667,-0.386333333333333,605.1725,0,1,1,1
24-May-2018 14:40:08,507.777777777778,0.0908714285714286,-0.882571428571428,-0.389657142857143,0.57,-0.6255,0.275333333333333,0.201,0,0,0,0,0,0,0,-0.366416666666667,-0.94075,0.177466666666667,-0.858142857142857,-1.14571428571429,-0.615428571428571,3.342,0.968128571428571,-0.334257142857143,0.118585714285714,0.539,1.03666666666667,-0.386333333333333,605.1725,0,1,1,1
24-May-2018 14:40:08,507.777777777778,0.0908714285714286,-0.882571428571428,-0.389657142857143,0.57,-0.6255,0.275333333333333,0.201,0,0,0,0,0,0,0,-0.366416666666667,-0.94075,0.177466666666667,-0.858142857142857,-1.14571428571429,-0.615428571428571,3.342,0.968128571428571,-0.334257142857143,0.118585714285714,0.539,1.03666666666667,-0.386333333333333,605.1725,0,1,1,1
24-May-2018 14:40:09,378.222222222222,0.0908714285714286,-0.882571428571428,-0.389657142857143,0.57,-0.6255,0.275333333333333,0.201,0,0,0,0,0,0,0,-0.365014285714286,-0.943414285714286,0.166357142857143,0.3792,-0.6816,0.4634,3.3204,0.971442857142857,-0.330842857142857,0.127871428571429,0.396375,0.975625,-0.526125,609.4675,0,1,1,1
24-May-2018 14:40:09,378.222222222222,0.0908714285714286,-0.882571428571428,-0.389657142857143,0.57,-0.6255,0.275333333333333,0.201,0,0,0,0,0,0,0,-0.365014285714286,-0.943414285714286,0.166357142857143,0.3792,-0.6816,0.4634,3.3204,0.971442857142857,-0.330842857142857,0.127871428571429,0.396375,0.975625,-0.526125,609.4675,0,1,1,1
24-May-2018 14:40:09,378.222222222222,0.0908714285714286,-0.882571428571428,-0.389657142857143,0.57,-0.6255,0.275333333333333,0.201,0,0,0,0,0,0,0,-0.365014285714286,-0.943414285714286,0.166357142857143,0.3792,-0.6816,0.4634,3.3204,0.971442857142857,-0.330842857142857,0.127871428571429,0.396375,0.975625,-0.526125,609.4675,0,1,1,1
24-May-2018 14:40:09,378.222222222222,0.0908714285714286,-0.882571428571428,-0.389657142857143,0.57,-0.6255,0.275333333333333,0.201,0,0,0,0,0,0,0,-0.365014285714286,-0.943414285714286,0.166357142857143,0.3792,-0.6816,0.4634,3.3204,0.971442857142857,-0.330842857142857,0.127871428571429,0.396375,0.975625,-0.526125,609.4675,0,1,1,1
24-May-2018 14:40:10,289.125,0.0908714285714286,-0.882571428571428,-0.389657142857143,0.57,-0.6255,0.275333333333333,0.201,0,0,0,0,0,0,0,-0.3613,-0.94145,0.1851,-0.476,-1.64285714285714,-0.816857142857143,3.2712,0.970414285714286,-0.327285714285714,0.1281,0.7072,0.61,-0.1342,612.4605,0,1,1,1
24-May-2018 14:40:10,289.125,0.0908714285714286,-0.882571428571428,-0.389657142857143,0.57,-0.6255,0.275333333333333,0.201,0,0,0,0,0,0,0,-0.3613,-0.94145,0.1851,-0.476,-1.64285714285714,-0.816857142857143,3.2712,0.970414285714286,-0.327285714285714,0.1281,0.7072,0.61,-0.1342,612.4605,0,1,1,1
24-May-2018 14:40:10,289.125,0.0908714285714286,-0.882571428571428,-0.389657142857143,0.57,-0.6255,0.275333333333333,0.201,0,0,0,0,0,0,0,-0.3613,-0.94145,0.1851,-0.476,-1.64285714285714,-0.816857142857143,3.2712,0.970414285714286,-0.327285714285714,0.1281,0.7072,0.61,-0.1342,612.4605,0,1,1,1
24-May-2018 14:40:10,289.125,0.0908714285714286,-0.882571428571428,-0.389657142857143,0.57,-0.6255,0.275333333333333,0.201,0,0,0,0,0,0,0,-0.3613,-0.94145,0.1851,-0.476,-1.64285714285714,-0.816857142857143,3.2712,0.970414285714286,-0.327285714285714,0.1281,0.7072,0.61,-0.1342,612.4605,0,1,1,1
24-May-2018 14:40:11,233.833333333333,0.0908714285714286,-0.882571428571428,-0.389657142857143,0.57,-0.6255,0.275333333333333,0.201,0,0,0,0,0,0,0,-0.3499,-0.944642857142857,0.185385714285714,-0.5955,-1.245,-0.594833333333333,3.2705,0.971933333333333,-0.3198,0.1278,0.64025,0.1905,-0.17525,610.054,1,1,1,1
24-May-2018 14:40:11,233.833333333333,0.0908714285714286,-0.882571428571428,-0.389657142857143,0.57,-0.6255,0.275333333333333,0.201,0,0,0,0,0,0,0,-0.3499,-0.944642857142857,0.185385714285714,-0.5955,-1.245,-0.594833333333333,3.2705,0.971933333333333,-0.3198,0.1278,0.64025,0.1905,-0.17525,610.054,1,1,1,1
24-May-2018 14:40:11,233.833333333333,0.0908714285714286,-0.882571428571428,-0.389657142857143,0.57,-0.6255,0.275333333333333,0.201,0,0,0,0,0,0,0,-0.3499,-0.944642857142857,0.185385714285714,-0.5955,-1.245,-0.594833333333333,3.2705,0.971933333333333,-0.3198,0.1278,0.64025,0.1905,-0.17525,610.054,1,1,1,1
24-May-2018 14:40:11,233.833333333333,0.0908714285714286,-0.882571428571428,-0.389657142857143,0.57,-0.6255,0.275333333333333,0.201,0,0,0,0,0,0,0,-0.3499,-0.944642857142857,0.185385714285714,-0.5955,-1.245,-0.594833333333333,3.2705,0.971933333333333,-0.3198,0.1278,0.64025,0.1905,-0.17525,610.054,1,1,1,1
24-May-2018 14:40:12,199.8,0.0908714285714286,-0.882571428571428,-0.389657142857143,0.57,-0.6255,0.275333333333333,0.201,0,0,0,0,0,0,0,-0.3449,-0.945616666666667,0.19365,0.5905,-2.12833333333333,0.003,3.27066666666667,0.9714,-0.329075,0.125625,-1.50416666666667,1.05683333333333,0.111833333333333,610.974,1,1,1,1
24-May-2018 14:40:12,199.8,0.0908714285714286,-0.882571428571428,-0.389657142857143,0.57,-0.6255,0.275333333333333,0.201,0,0,0,0,0,0,0,-0.3449,-0.945616666666667,0.19365,0.5905,-2.12833333333333,0.003,3.27066666666667,0.9714,-0.329075,0.125625,-1.50416666666667,1.05683333333333,0.111833333333333,610.974,1,1,1,1
24-May-2018 14:40:12,199.8,0.0908714285714286,-0.882571428571428,-0.389657142857143,0.57,-0.6255,0.275333333333333,0.201,0,0,0,0,0,0,0,-0.3449,-0.945616666666667,0.19365,0.5905,-2.12833333333333,0.003,3.27066666666667,0.9714,-0.329075,0.125625,-1.50416666666667,1.05683333333333,0.111833333333333,610.974,1,1,1,1
24-May-2018 14:40:12,199.8,0.0908714285714286,-0.882571428571428,-0.389657142857143,0.57,-0.6255,0.275333333333333,0.201,0,0,0,0,0,0,0,-0.3449,-0.945616666666667,0.19365,0.5905,-2.12833333333333,0.003,3.27066666666667,0.9714,-0.329075,0.125625,-1.50416666666667,1.05683333333333,0.111833333333333,610.974,1,1,1,1
24-May-2018 14:40:13,164.3,0.0908714285714286,-0.882571428571428,-0.389657142857143,0.57,-0.6255,0.275333333333333,0.201,0,0,0,0,0,0,0,-0.352942857142857,-0.940471428571429,0.2091,-0.403666666666667,-0.617833333333333,-0.128833333333333,3.247,0.9702,-0.333114285714286,0.132614285714286,1.21942857142857,0.923428571428571,0.165571428571429,614.409666666667,1,1,1,1
24-May-2018 14:40:13,164.3,0.0908714285714286,-0.882571428571428,-0.389657142857143,0.57,-0.6255,0.275333333333333,0.201,0,0,0,0,0,0,0,-0.352942857142857,-0.940471428571429,0.2091,-0.403666666666667,-0.617833333333333,-0.128833333333333,3.247,0.9702,-0.333114285714286,0.132614285714286,1.21942857142857,0.923428571428571,0.165571428571429,614.409666666667,1,1,1,1
24-May-2018 14:40:13,164.3,0.0908714285714286,-0.882571428571428,-0.389657142857143,0.57,-0.6255,0.275333333333333,0.201,0,0,0,0,0,0,0,-0.352942857142857,-0.940471428571429,0.2091,-0.403666666666667,-0.617833333333333,-0.128833333333333,3.247,0.9702,-0.333114285714286,0.132614285714286,1.21942857142857,0.923428571428571,0.165571428571429,614.409666666667,1,1,1,1
24-May-2018 14:40:13,164.3,0.0908714285714286,-0.882571428571428,-0.389657142857143,0.57,-0.6255,0.275333333333333,0.201,0,0,0,0,0,0,0,-0.352942857142857,-0.940471428571429,0.2091,-0.403666666666667,-0.617833333333333,-0.128833333333333,3.247,0.9702,-0.333114285714286,0.132614285714286,1.21942857142857,0.923428571428571,0.165571428571429,614.409666666667,1,1,1,1
24-May-2018 14:40:14,131.5,0.0908714285714286,-0.882571428571428,-0.389657142857143,0.57,-0.6255,0.275333333333333,0.201,0,0,0,0,0,0,0,-0.35202,-0.94194,0.20226,-0.190833333333333,-0.394333333333333,-0.0798333333333333,3.28975,0.96445,-0.346066666666667,0.136616666666667,0.287428571428571,0.940714285714286,0.601285714285714,621.51675,1,1,1,1
24-May-2018 14:40:14,131.5,0.0908714285714286,-0.882571428571428,-0.389657142857143,0.57,-0.6255,0.275333333333333,0.201,0,0,0,0,0,0,0,-0.35202,-0.94194,0.20226,-0.190833333333333,-0.394333333333333,-0.0798333333333333,3.28975,0.96445,-0.346066666666667,0.136616666666667,0.287428571428571,0.940714285714286,0.601285714285714,621.51675,1,1,1,1
24-May-2018 14:40:14,131.5,0.0908714285714286,-0.882571428571428,-0.389657142857143,0.57,-0.6255,0.275333333333333,0.201,0,0,0,0,0,0,0,-0.35202,-0.94194,0.20226,-0.190833333333333,-0.394333333333333,-0.0798333333333333,3.28975,0.96445,-0.346066666666667,0.136616666666667,0.287428571428571,0.940714285714286,0.601285714285714,621.51675,1,1,1,1
24-May-2018 14:40:14,131.5,0.0908714285714286,-0.882571428571428,-0.389657142857143,0.57,-0.6255,0.275333333333333,0.201,0,0,0,0,0,0,0,-0.35202,-0.94194,0.20226,-0.190833333333333,-0.394333333333333,-0.0798333333333333,3.28975,0.96445,-0.346066666666667,0.136616666666667,0.287428571428571,0.940714285714286,0.601285714285714,621.51675,1,1,1,1
24-May-2018 14:40:15,116.666666666667,0.0908714285714286,-0.882571428571428,-0.389657142857143,0.57,-0.6255,0.275333333333333,0.201,0,0,0,0,0,0,0,-0.3472,-0.944214285714286,0.202514285714286,-0.75125,-0.63725,-0.219,3.26433333333333,0.961377777777778,-0.349844444444444,0.141944444444444,0.348571428571429,0.592428571428571,-0.104571428571429,626.73,1,1,1,1
24-May-2018 14:40:15,116.666666666667,0.0908714285714286,-0.882571428571428,-0.389657142857143,0.57,-0.6255,0.275333333333333,0.201,0,0,0,0,0,0,0,-0.3472,-0.944214285714286,0.202514285714286,-0.75125,-0.63725,-0.219,3.26433333333333,0.961377777777778,-0.349844444444444,0.141944444444444,0.348571428571429,0.592428571428571,-0.104571428571429,626.73,1,1,1,1
24-May-2018 14:40:15,116.666666666667,0.0908714285714286,-0.882571428571428,-0.389657142857143,0.57,-0.6255,0.275333333333333,0.201,0,0,0,0,0,0,0,-0.3472,-0.944214285714286,0.202514285714286,-0.75125,-0.63725,-0.219,3.26433333333333,0.961377777777778,-0.349844444444444,0.141944444444444,0.348571428571429,0.592428571428571,-0.104571428571429,626.73,1,1,1,1
24-May-2018 14:40:15,116.666666666667,0.0908714285714286,-0.882571428571428,-0.389657142857143,0.57,-0.6255,0.275333333333333,0.201,0,0,0,0,0,0,0,-0.3472,-0.944214285714286,0.202514285714286,-0.75125,-0.63725,-0.219,3.26433333333333,0.961377777777778,-0.349844444444444,0.141944444444444,0.348571428571429,0.592428571428571,-0.104571428571429,626.73,1,1,1,1
24-May-2018 14:40:16,104.25,0.0908714285714286,-0.882571428571428,-0.389657142857143,0.57,-0.6255,0.275333333333333,0.201,0,0,0,0,0,0,0,-0.352533333333333,-0.942283333333333,0.197216666666667,-0.320142857142857,-0.597714285714286,0.226714285714286,3.28075,0.962175,-0.3518,0.141225,0.339714285714286,0.383285714285714,-0.305,630.1105,0,1,1,1
24-May-2018 14:40:16,104.25,0.0908714285714286,-0.882571428571428,-0.389657142857143,0.57,-0.6255,0.275333333333333,0.201,0,0,0,0,0,0,0,-0.352533333333333,-0.942283333333333,0.197216666666667,-0.320142857142857,-0.597714285714286,0.226714285714286,3.28075,0.962175,-0.3518,0.141225,0.339714285714286,0.383285714285714,-0.305,630.1105,0,1,1,1
24-May-2018 14:40:16,104.25,0.0908714285714286,-0.882571428571428,-0.389657142857143,0.57,-0.6255,0.275333333333333,0.201,0,0,0,0,0,0,0,-0.352533333333333,-0.942283333333333,0.197216666666667,-0.320142857142857,-0.597714285714286,0.226714285714286,3.28075,0.962175,-0.3518,0.141225,0.339714285714286,0.383285714285714,-0.305,630.1105,0,1,1,1
24-May-2018 14:40:16,104.25,0.0908714285714286,-0.882571428571428,-0.389657142857143,0.57,-0.6255,0.275333333333333,0.201,0,0,0,0,0,0,0,-0.352533333333333,-0.942283333333333,0.197216666666667,-0.320142857142857,-0.597714285714286,0.226714285714286,3.28075,0.962175,-0.3518,0.141225,0.339714285714286,0.383285714285714,-0.305,630.1105,0,1,1,1
24-May-2018 14:40:17,89.7777777777778,0.0908714285714286,-0.882571428571428,-0.389657142857143,0.57,-0.6255,0.275333333333333,0.201,0,0,0,0,0,0,0,-0.360275,-0.938725,0.2056,0.0941666666666666,-0.3315,-0.07,3.2894,0.9653,-0.344642857142857,0.137342857142857,0.853714285714286,0.0261428571428571,-0.531571428571428,629.085,0,1,1,1
24-May-2018 14:40:17,89.7777777777778,0.0908714285714286,-0.882571428571428,-0.389657142857143,0.57,-0.6255,0.275333333333333,0.201,0,0,0,0,0,0,0,-0.360275,-0.938725,0.2056,0.0941666666666666,-0.3315,-0.07,3.2894,0.9653,-0.344642857142857,0.137342857142857,0.853714285714286,0.0261428571428571,-0.531571428571428,629.085,0,1,1,1
24-May-2018 14:40:17,89.7777777777778,0.0908714285714286,-0.882571428571428,-0.389657142857143,0.57,-0.6255,0.275333333333333,0.201,0,0,0,0,0,0,0,-0.360275,-0.938725,0.2056,0.0941666666666666,-0.3315,-0.07,3.2894,0.9653,-0.344642857142857,0.137342857142857,0.853714285714286,0.0261428571428571,-0.531571428571428,629.085,0,1,1,1
24-May-2018 14:40:17,89.7777777777778,0.0908714285714286,-0.882571428571428,-0.389657142857143,0.57,-0.6255,0.275333333333333,0.201,0,0,0,0,0,0,0,-0.360275,-0.938725,0.2056,0.0941666666666666,-0.3315,-0.07,3.2894,0.9653,-0.344642857142857,0.137342857142857,0.853714285714286,0.0261428571428571,-0.531571428571428,629.085,0,1,1,1
24-May-2018 14:40:18,89.7777777777778,0.0908714285714286,-0.882571428571428,-0.389657142857143,0.57,-0.6255,0.275333333333333,0.201,0,0,0,0,0,0,0,-0.35955,-0.9371,0.2049,-0.42,-0.85,-0.61,3.2894,0.9703,-0.3429,0.132,-0.427,0.854,-0.488,621.613,1,1,1,1
24-May-2018 14:40:18,89.7777777777778,0.0908714285714286,-0.882571428571428,-0.389657142857143,0.57,-0.6255,0.275333333333333,0.201,0,0,0,0,0,0,0,-0.35955,-0.9371,0.2049,-0.42,-0.85,-0.61,3.2894,0.9703,-0.3429,0.132,-0.427,0.854,-0.488,621.613,1,1,1,1
24-May-2018 14:40:18,89.7777777777778,0.0908714285714286,-0.882571428571428,-0.389657142857143,0.57,-0.6255,0.275333333333333,0.201,0,0,0,0,0,0,0,-0.35955,-0.9371,0.2049,-0.42,-0.85,-0.61,3.2894,0.9703,-0.3429,0.132,-0.427,0.854,-0.488,621.613,1,1,1,1
24-May-2018 14:40:18,0,0.0908714285714286,-0.882571428571428,-0.389657142857143,0.57,-0.6255,0.275333333333333,0.201,0,0,0,0,0,0,0,-0.35955,-0.9371,0.2049,-0.42,-0.85,-0.61,0,0.9703,-0.3429,0.132,-0.427,0.854,-0.488,621.613,1,1,1,1
24-May-2018 14:40:19,78.6666666666667,0.0908714285714286,-0.882571428571428,-0.389657142857143,0.57,-0.6255,0.275333333333333,0.201,0,0,0,0,0,0,0,-0.356975,-0.93945,0.206275,-1.13,-1.19,-0.726,3.288,0.96782,-0.3384,0.1354,0.121833333333333,1.07733333333333,-0.366,621.106,0,1,1,1
24-May-2018 14:40:19,78.6666666666667,0.0908714285714286,-0.882571428571428,-0.389657142857143,0.57,-0.6255,0.275333333333333,0.201,0,0,0,0,0,0,0,-0.356975,-0.93945,0.206275,-1.13,-1.19,-0.726,3.288,0.96782,-0.3384,0.1354,0.121833333333333,1.07733333333333,-0.366,621.106,0,1,1,1
24-May-2018 14:40:19,78.6666666666667,0.0908714285714286,-0.882571428571428,-0.389657142857143,0.57,-0.6255,0.275333333333333,0.201,0,0,0,0,0,0,0,-0.356975,-0.93945,0.206275,-1.13,-1.19,-0.726,3.288,0.96782,-0.3384,0.1354,0.121833333333333,1.07733333333333,-0.366,621.106,0,1,1,1
24-May-2018 14:40:19,78.6666666666667,0.0908714285714286,-0.882571428571428,-0.389657142857143,0.57,-0.6255,0.275333333333333,0.201,0,0,0,0,0,0,0,-0.356975,-0.93945,0.206275,-1.13,-1.19,-0.726,3.288,0.96782,-0.3384,0.1354,0.121833333333333,1.07733333333333,-0.366,621.106,0,1,1,1
24-May-2018 14:40:20,70.875,0.0908714285714286,-0.882571428571428,-0.389657142857143,0.57,-0.6255,0.275333333333333,0.201,0,0,0,0,0,0,0,-0.355566666666667,-0.94195,0.198316666666667,-0.918571428571429,-1.21285714285714,0.0962857142857143,3.285,0.962975,-0.33715,0.14025,-0.148285714285714,1.14985714285714,0.339857142857143,622.769,0,1,1,1
24-May-2018 14:40:20,70.875,0.0908714285714286,-0.882571428571428,-0.389657142857143,0.57,-0.6255,0.275333333333333,0.201,0,0,0,0,0,0,0,-0.355566666666667,-0.94195,0.198316666666667,-0.918571428571429,-1.21285714285714,0.0962857142857143,3.285,0.962975,-0.33715,0.14025,-0.148285714285714,1.14985714285714,0.339857142857143,622.769,0,1,1,1
24-May-2018 14:40:20,70.875,0.0908714285714286,-0.882571428571428,-0.389657142857143,0.57,-0.6255,0.275333333333333,0.201,0,0,0,0,0,0,0,-0.355566666666667,-0.94195,0.198316666666667,-0.918571428571429,-1.21285714285714,0.0962857142857143,3.285,0.962975,-0.33715,0.14025,-0.148285714285714,1.14985714285714,0.339857142857143,622.769,0,1,1,1
24-May-2018 14:40:20,70.875,0.0908714285714286,-0.882571428571428,-0.389657142857143,0.57,-0.6255,0.275333333333333,0.201,0,0,0,0,0,0,0,-0.355566666666667,-0.94195,0.198316666666667,-0.918571428571429,-1.21285714285714,0.0962857142857143,3.285,0.962975,-0.33715,0.14025,-0.148285714285714,1.14985714285714,0.339857142857143,622.769,0,1,1,1
24-May-2018 14:40:21,66.75,0.0908714285714286,-0.882571428571428,-0.389657142857143,0.57,-0.6255,0.275333333333333,0.201,0,0,0,0,0,0,0,-0.36295,-0.939266666666667,0.202533333333333,0.322,-0.4675,0.18325,3.272,0.963283333333333,-0.3418,0.139533333333333,1.41985714285714,0.0261428571428572,-0.148142857142857,626.949,0,1,1,1
24-May-2018 14:40:21,66.75,0.0908714285714286,-0.882571428571428,-0.389657142857143,0.57,-0.6255,0.275333333333333,0.201,0,0,0,0,0,0,0,-0.36295,-0.939266666666667,0.202533333333333,0.322,-0.4675,0.18325,3.272,0.963283333333333,-0.3418,0.139533333333333,1.41985714285714,0.0261428571428572,-0.148142857142857,626.949,0,1,1,1
24-May-2018 14:40:21,66.75,0.0908714285714286,-0.882571428571428,-0.389657142857143,0.57,-0.6255,0.275333333333333,0.201,0,0,0,0,0,0,0,-0.36295,-0.939266666666667,0.202533333333333,0.322,-0.4675,0.18325,3.272,0.963283333333333,-0.3418,0.139533333333333,1.41985714285714,0.0261428571428572,-0.148142857142857,626.949,0,1,1,1
24-May-2018 14:40:21,66.75,0.0908714285714286,-0.882571428571428,-0.389657142857143,0.57,-0.6255,0.275333333333333,0.201,0,0,0,0,0,0,0,-0.36295,-0.939266666666667,0.202533333333333,0.322,-0.4675,0.18325,3.272,0.963283333333333,-0.3418,0.139533333333333,1.41985714285714,0.0261428571428572,-0.148142857142857,626.949,0,1,1,1
24-May-2018 14:40:22,62.9090909090909,0.0908714285714286,-0.882571428571428,-0.389657142857143,0.57,-0.6255,0.275333333333333,0.201,0,0,0,0,0,0,0,-0.369,-0.934666666666667,0.212016666666667,-0.098,-0.646666666666667,-0.0471666666666667,3.2856,0.96525,-0.34515,0.134516666666667,0.22875,0.32025,-0.65575,625.144,0,1,1,1
24-May-2018 14:40:22,62.9090909090909,0.0908714285714286,-0.882571428571428,-0.389657142857143,0.57,-0.6255,0.275333333333333,0.201,0,0,0,0,0,0,0,-0.369,-0.934666666666667,0.212016666666667,-0.098,-0.646666666666667,-0.0471666666666667,3.2856,0.96525,-0.34515,0.134516666666667,0.22875,0.32025,-0.65575,625.144,0,1,1,1
24-May-2018 14:40:22,62.9090909090909,0.0908714285714286,-0.882571428571428,-0.389657142857143,0.57,-0.6255,0.275333333333333,0.201,0,0,0,0,0,0,0,-0.369,-0.934666666666667,0.212016666666667,-0.098,-0.646666666666667,-0.0471666666666667,3.2856,0.96525,-0.34515,0.134516666666667,0.22875,0.32025,-0.65575,625.144,0,1,1,1
24-May-2018 14:40:22,62.9090909090909,0.0908714285714286,-0.882571428571428,-0.389657142857143,0.57,-0.6255,0.275333333333333,0.201,0,0,0,0,0,0,0,-0.369,-0.934666666666667,0.212016666666667,-0.098,-0.646666666666667,-0.0471666666666667,3.2856,0.96525,-0.34515,0.134516666666667,0.22875,0.32025,-0.65575,625.144,0,1,1,1
24-May-2018 14:40:23,-1844.9,0.0908714285714286,-0.882571428571428,-0.389657142857143,0.57,-0.6255,0.275333333333333,0.201,0,0,0,0,0,0,0,-0.365157142857143,-0.937742857142857,0.205714285714286,-0.894285714285714,-1.18857142857143,-0.344285714285714,3.2925,0.967214285714286,-0.339157142857143,0.132,0.731714285714286,0.418142857142857,-0.549,620.054,0,1,1,1
24-May-2018 14:40:23,-1844.9,0.0908714285714286,-0.882571428571428,-0.389657142857143,0.57,-0.6255,0.275333333333333,0.201,0,0,0,0,0,0,0,-0.365157142857143,-0.937742857142857,0.205714285714286,-0.894285714285714,-1.18857142857143,-0.344285714285714,3.2925,0.967214285714286,-0.339157142857143,0.132,0.731714285714286,0.418142857142857,-0.549,620.054,0,1,1,1
24-May-2018 14:40:23,-1844.9,0.0908714285714286,-0.882571428571428,-0.389657142857143,0.57,-0.6255,0.275333333333333,0.201,0,0,0,0,0,0,0,-0.365157142857143,-0.937742857142857,0.205714285714286,-0.894285714285714,-1.18857142857143,-0.344285714285714,3.2925,0.967214285714286,-0.339157142857143,0.132,0.731714285714286,0.418142857142857,-0.549,620.054,0,1,1,1
24-May-2018 14:40:23,-1844.9,0.0908714285714286,-0.882571428571428,-0.389657142857143,0.57,-0.6255,0.275333333333333,0.201,0,0,0,0,0,0,0,-0.365157142857143,-0.937742857142857,0.205714285714286,-0.894285714285714,-1.18857142857143,-0.344285714285714,3.2925,0.967214285714286,-0.339157142857143,0.132,0.731714285714286,0.418142857142857,-0.549,620.054,0,1,1,1
24-May-2018 14:40:24,-2048,0.0908714285714286,-0.882571428571428,-0.389657142857143,0.57,-0.6255,0.275333333333333,0.201,0,0,0,0,0,0,0,-0.364328571428571,-0.937771428571429,0.204714285714286,-0.553333333333333,-0.708333333333333,-0.0896666666666667,3.284,0.9646,-0.342885714285714,0.134528571428571,-0.819,1.75085714285714,0.688285714285714,619.78,1,1,1,1
24-May-2018 14:40:24,-2048,0.0908714285714286,-0.882571428571428,-0.389657142857143,0.57,-0.6255,0.275333333333333,0.201,0,0,0,0,0,0,0,-0.364328571428571,-0.937771428571429,0.204714285714286,-0.553333333333333,-0.708333333333333,-0.0896666666666667,3.284,0.9646,-0.342885714285714,0.134528571428571,-0.819,1.75085714285714,0.688285714285714,619.78,1,1,1,1
24-May-2018 14:40:24,-2048,0.0908714285714286,-0.882571428571428,-0.389657142857143,0.57,-0.6255,0.275333333333333,0.201,0,0,0,0,0,0,0,-0.364328571428571,-0.937771428571429,0.204714285714286,-0.553333333333333,-0.708333333333333,-0.0896666666666667,3.284,0.9646,-0.342885714285714,0.134528571428571,-0.819,1.75085714285714,0.688285714285714,619.78,1,1,1,1
24-May-2018 14:40:24,-2048,0.0908714285714286,-0.882571428571428,-0.389657142857143,0.57,-0.6255,0.275333333333333,0.201,0,0,0,0,0,0,0,-0.364328571428571,-0.937771428571429,0.204714285714286,-0.553333333333333,-0.708333333333333,-0.0896666666666667,3.284,0.9646,-0.342885714285714,0.134528571428571,-0.819,1.75085714285714,0.688285714285714,619.78,1,1,1,1
24-May-2018 14:40:25,-1827.4,0.0908714285714286,-0.882571428571428,-0.389657142857143,0.57,-0.6255,0.275333333333333,0.201,0,0,0,0,0,0,0,-0.3694,-0.937214285714286,0.200414285714286,-0.63,-0.3398,-0.1318,3.2952,0.962285714285714,-0.3523,0.132314285714286,1.349125,0.564125,-0.800375,623.186,1,1,1,1
24-May-2018 14:40:25,-1827.4,0.0908714285714286,-0.882571428571428,-0.389657142857143,0.57,-0.6255,0.275333333333333,0.201,0,0,0,0,0,0,0,-0.3694,-0.937214285714286,0.200414285714286,-0.63,-0.3398,-0.1318,3.2952,0.962285714285714,-0.3523,0.132314285714286,1.349125,0.564125,-0.800375,623.186,1,1,1,1
24-May-2018 14:40:25,-1827.4,0.0908714285714286,-0.882571428571428,-0.389657142857143,0.57,-0.6255,0.275333333333333,0.201,0,0,0,0,0,0,0,-0.3694,-0.937214285714286,0.200414285714286,-0.63,-0.3398,-0.1318,3.2952,0.962285714285714,-0.3523,0.132314285714286,1.349125,0.564125,-0.800375,623.186,1,1,1,1
24-May-2018 14:40:25,-1827.4,0.0908714285714286,-0.882571428571428,-0.389657142857143,0.57,-0.6255,0.275333333333333,0.201,0,0,0,0,0,0,0,-0.3694,-0.937214285714286,0.200414285714286,-0.63,-0.3398,-0.1318,3.2952,0.962285714285714,-0.3523,0.132314285714286,1.349125,0.564125,-0.800375,623.186,1,1,1,1
24-May-2018 14:40:26,-1283.11111111111,0.0908714285714286,-0.882571428571428,-0.389657142857143,0.57,-0.6255,0.275333333333333,0.201,0,0,0,0,0,0,0,-0.370871428571429,-0.933828571428571,0.213,-0.0651428571428572,-1.54928571428571,-0.153714285714286,3.298,0.96345,-0.3414375,0.1400875,0.200142857142857,0.958,-0.252714285714286,621.1425,1,1,1,1
24-May-2018 14:40:26,-1283.11111111111,0.0908714285714286,-0.882571428571428,-0.389657142857143,0.57,-0.6255,0.275333333333333,0.201,0,0,0,0,0,0,0,-0.370871428571429,-0.933828571428571,0.213,-0.0651428571428572,-1.54928571428571,-0.153714285714286,3.298,0.96345,-0.3414375,0.1400875,0.200142857142857,0.958,-0.252714285714286,621.1425,1,1,1,1
24-May-2018 14:40:26,-1283.11111111111,0.0908714285714286,-0.882571428571428,-0.389657142857143,0.57,-0.6255,0.275333333333333,0.201,0,0,0,0,0,0,0,-0.370871428571429,-0.933828571428571,0.213,-0.0651428571428572,-1.54928571428571,-0.153714285714286,3.298,0.96345,-0.3414375,0.1400875,0.200142857142857,0.958,-0.252714285714286,621.1425,1,1,1,1
24-May-2018 14:40:26,-1283.11111111111,0.0908714285714286,-0.882571428571428,-0.389657142857143,0.57,-0.6255,0.275333333333333,0.201,0,0,0,0,0,0,0,-0.370871428571429,-0.933828571428571,0.213,-0.0651428571428572,-1.54928571428571,-0.153714285714286,3.298,0.96345,-0.3414375,0.1400875,0.200142857142857,0.958,-0.252714285714286,621.1425,1,1,1,1
24-May-2018 14:40:27,-886.2,0.0908714285714286,-0.882571428571428,-0.389657142857143,0.57,-0.6255,0.275333333333333,0.201,0,0,0,0,0,0,0,-0.366114285714286,-0.939014285714286,0.199171428571429,-5.56714285714286,-7.90428571428571,-2.094,3.1995,0.965685714285714,-0.341642857142857,0.137285714285714,0.513714285714286,0.418,-0.122,619.9805,1,1,1,1
24-May-2018 14:40:27,-886.2,0.0908714285714286,-0.882571428571428,-0.389657142857143,0.57,-0.6255,0.275333333333333,0.201,0,0,0,0,0,0,0,-0.366114285714286,-0.939014285714286,0.199171428571429,-5.56714285714286,-7.90428571428571,-2.094,3.1995,0.965685714285714,-0.341642857142857,0.137285714285714,0.513714285714286,0.418,-0.122,619.9805,1,1,1,1
24-May-2018 14:40:27,-886.2,0.0908714285714286,-0.882571428571428,-0.389657142857143,0.57,-0.6255,0.275333333333333,0.201,0,0,0,0,0,0,0,-0.366114285714286,-0.939014285714286,0.199171428571429,-5.56714285714286,-7.90428571428571,-2.094,3.1995,0.965685714285714,-0.341642857142857,0.137285714285714,0.513714285714286,0.418,-0.122,619.9805,1,1,1,1
24-May-2018 14:40:27,-886.2,0.0908714285714286,-0.882571428571428,-0.389657142857143,0.57,-0.6255,0.275333333333333,0.201,0,0,0,0,0,0,0,-0.366114285714286,-0.939014285714286,0.199171428571429,-5.56714285714286,-7.90428571428571,-2.094,3.1995,0.965685714285714,-0.341642857142857,0.137285714285714,0.513714285714286,0.418,-0.122,619.9805,1,1,1,1
24-May-2018 14:40:28,-570.6,0.0908714285714286,-0.882571428571428,-0.389657142857143,0.57,-0.6255,0.275333333333333,0.201,0,0,0,0,0,0,0,-0.2892,-0.970333333333333,0.08135,-13.5,-15.328,-2.436,2.76666666666667,0.9663,-0.330733333333333,0.151616666666667,1.202,0.853857142857143,-0.732,620.002,1,1,1,1
24-May-2018 14:40:28,-570.6,0.0908714285714286,-0.882571428571428,-0.389657142857143,0.57,-0.6255,0.275333333333333,0.201,0,0,0,0,0,0,0,-0.2892,-0.970333333333333,0.08135,-13.5,-15.328,-2.436,2.76666666666667,0.9663,-0.330733333333333,0.151616666666667,1.202,0.853857142857143,-0.732,620.002,1,1,1,1
24-May-2018 14:40:28,-570.6,0.0908714285714286,-0.882571428571428,-0.389657142857143,0.57,-0.6255,0.275333333333333,0.201,0,0,0,0,0,0,0,-0.2892,-0.970333333333333,0.08135,-13.5,-15.328,-2.436,2.76666666666667,0.9663,-0.330733333333333,0.151616666666667,1.202,0.853857142857143,-0.732,620.002,1,1,1,1
24-May-2018 14:40:28,-570.6,0.0908714285714286,-0.882571428571428,-0.389657142857143,0.57,-0.6255,0.275333333333333,0.201,0,0,0,0,0,0,0,-0.2892,-0.970333333333333,0.08135,-13.5,-15.328,-2.436,2.76666666666667,0.9663,-0.330733333333333,0.151616666666667,1.202,0.853857142857143,-0.732,620.002,1,1,1,1
24-May-2018 14:40:29,-400.714285714286,0.0908714285714286,-0.882571428571428,-0.389657142857143,0.57,-0.6255,0.275333333333333,0.201,0,0,0,0,0,0,0,-0.29585,-0.962775,-0.0325125,-3.67342857142857,2.56271428571429,-0.686714285714286,2.103,0.968328571428571,-0.328957142857143,0.149485714285714,1.09757142857143,-0.0522857142857143,-0.226428571428571,629.107,1,1,1,1
24-May-2018 14:40:29,-400.714285714286,0.0908714285714286,-0.882571428571428,-0.389657142857143,0.57,-0.6255,0.275333333333333,0.201,0,0,0,0,0,0,0,-0.29585,-0.962775,-0.0325125,-3.67342857142857,2.56271428571429,-0.686714285714286,2.103,0.968328571428571,-0.328957142857143,0.149485714285714,1.09757142857143,-0.0522857142857143,-0.226428571428571,629.107,1,1,1,1
24-May-2018 14:40:29,-400.714285714286,0.0908714285714286,-0.882571428571428,-0.389657142857143,0.57,-0.6255,0.275333333333333,0.201,0,0,0,0,0,0,0,-0.29585,-0.962775,-0.0325125,-3.67342857142857,2.56271428571429,-0.686714285714286,2.103,0.968328571428571,-0.328957142857143,0.149485714285714,1.09757142857143,-0.0522857142857143,-0.226428571428571,629.107,1,1,1,1
24-May-2018 14:40:29,-400.714285714286,0.0908714285714286,-0.882571428571428,-0.389657142857143,0.57,-0.6255,0.275333333333333,0.201,0,0,0,0,0,0,0,-0.29585,-0.962775,-0.0325125,-3.67342857142857,2.56271428571429,-0.686714285714286,2.103,0.968328571428571,-0.328957142857143,0.149485714285714,1.09757142857143,-0.0522857142857143,-0.226428571428571,629.107,1,1,1,1
24-May-2018 14:40:30,-290.875,0.0908714285714286,-0.882571428571428,-0.389657142857143,0.57,-0.6255,0.275333333333333,0.201,0,0,0,0,0,0,0,-0.2947,-0.965716666666667,-0.0148833333333333,2.6325,1.15933333333333,0.601,2.22533333333333,0.969171428571429,-0.332185714285714,0.148128571428571,0.392,0.487857142857143,-0.339857142857143,625.475333333333,0,1,1,1
24-May-2018 14:40:30,-290.875,0.0908714285714286,-0.882571428571428,-0.389657142857143,0.57,-0.6255,0.275333333333333,0.201,0,0,0,0,0,0,0,-0.2947,-0.965716666666667,-0.0148833333333333,2.6325,1.15933333333333,0.601,2.22533333333333,0.969171428571429,-0.332185714285714,0.148128571428571,0.392,0.487857142857143,-0.339857142857143,625.475333333333,0,1,1,1
24-May-2018 14:40:30,-290.875,0.0908714285714286,-0.882571428571428,-0.389657142857143,0.57,-0.6255,0.275333333333333,0.201,0,0,0,0,0,0,0,-0.2947,-0.965716666666667,-0.0148833333333333,2.6325,1.15933333333333,0.601,2.22533333333333,0.969171428571429,-0.332185714285714,0.148128571428571,0.392,0.487857142857143,-0.339857142857143,625.475333333333,0,1,1,1
24-May-2018 14:40:30,-290.875,0.0908714285714286,-0.882571428571428,-0.389657142857143,0.57,-0.6255,0.275333333333333,0.201,0,0,0,0,0,0,0,-0.2947,-0.965716666666667,-0.0148833333333333,2.6325,1.15933333333333,0.601,2.22533333333333,0.969171428571429,-0.332185714285714,0.148128571428571,0.392,0.487857142857143,-0.339857142857143,625.475333333333,0,1,1,1
24-May-2018 14:40:31,-193.4,0.0908714285714286,-0.882571428571428,-0.389657142857143,0.57,-0.6255,0.275333333333333,0.201,0,0,0,0,0,0,0,-0.291183333333333,-0.965066666666667,-0.0108166666666667,-4.07428571428571,-8.04857142857143,-1.32857142857143,2.3375,0.9679,-0.330028571428571,0.144214285714286,0.826444444444445,0.250666666666667,0.189777777777778,620.488,1,1,1,1
24-May-2018 14:40:31,-193.4,0.0908714285714286,-0.882571428571428,-0.389657142857143,0.57,-0.6255,0.275333333333333,0.201,0,0,0,0,0,0,0,-0.291183333333333,-0.965066666666667,-0.0108166666666667,-4.07428571428571,-8.04857142857143,-1.32857142857143,2.3375,0.9679,-0.330028571428571,0.144214285714286,0.826444444444445,0.250666666666667,0.189777777777778,620.488,1,1,1,1
24-May-2018 14:40:31,-193.4,0.0908714285714286,-0.882571428571428,-0.389657142857143,0.57,-0.6255,0.275333333333333,0.201,0,0,0,0,0,0,0,-0.291183333333333,-0.965066666666667,-0.0108166666666667,-4.07428571428571,-8.04857142857143,-1.32857142857143,2.3375,0.9679,-0.330028571428571,0.144214285714286,0.826444444444445,0.250666666666667,0.189777777777778,620.488,1,1,1,1
24-May-2018 14:40:31,-193.4,0.0908714285714286,-0.882571428571428,-0.389657142857143,0.57,-0.6255,0.275333333333333,0.201,0,0,0,0,0,0,0,-0.291183333333333,-0.965066666666667,-0.0108166666666667,-4.07428571428571,-8.04857142857143,-1.32857142857143,2.3375,0.9679,-0.330028571428571,0.144214285714286,0.826444444444445,0.250666666666667,0.189777777777778,620.488,1,1,1,1
24-May-2018 14:40:32,-116.5,0.0908714285714286,-0.882571428571428,-0.389657142857143,0.57,-0.6255,0.275333333333333,0.201,0,0,0,0,0,0,0,-0.2802,-0.96542,-0.02058,-0.493428571428571,-1.33057142857143,-1.00714285714286,1.96866666666667,0.965125,-0.333275,0.139925,0.1525,0.80025,-0.007625,619.655666666667,0,1,1,1
24-May-2018 14:40:32,-116.5,0.0908714285714286,-0.882571428571428,-0.389657142857143,0.57,-0.6255,0.275333333333333,0.201,0,0,0,0,0,0,0,-0.2802,-0.96542,-0.02058,-0.493428571428571,-1.33057142857143,-1.00714285714286,1.96866666666667,0.965125,-0.333275,0.139925,0.1525,0.80025,-0.007625,619.655666666667,0,1,1,1
24-May-2018 14:40:32,-116.5,0.0908714285714286,-0.882571428571428,-0.389657142857143,0.57,-0.6255,0.275333333333333,0.201,0,0,0,0,0,0,0,-0.2802,-0.96542,-0.02058,-0.493428571428571,-1.33057142857143,-1.00714285714286,1.96866666666667,0.965125,-0.333275,0.139925,0.1525,0.80025,-0.007625,619.655666666667,0,1,1,1
24-May-2018 14:40:32,-116.5,0.0908714285714286,-0.882571428571428,-0.389657142857143,0.57,-0.6255,0.275333333333333,0.201,0,0,0,0,0,0,0,-0.2802,-0.96542,-0.02058,-0.493428571428571,-1.33057142857143,-1.00714285714286,1.96866666666667,0.965125,-0.333275,0.139925,0.1525,0.80025,-0.007625,619.655666666667,0,1,1,1
24-May-2018 14:40:33,-64.2,0.0908714285714286,-0.882571428571428,-0.389657142857143,0.57,-0.6255,0.275333333333333,0.201,0,0,0,0,0,0,0,-0.271083333333333,-0.9695,-0.0384166666666667,-1.37242857142857,2.76142857142857,-0.145428571428571,2.05575,0.965333333333333,-0.33815,0.149383333333333,0.254,0.813,-0.427,623.51,0,1,1,1
24-May-2018 14:40:33,-64.2,0.0908714285714286,-0.882571428571428,-0.389657142857143,0.57,-0.6255,0.275333333333333,0.201,0,0,0,0,0,0,0,-0.271083333333333,-0.9695,-0.0384166666666667,-1.37242857142857,2.76142857142857,-0.145428571428571,2.05575,0.965333333333333,-0.33815,0.149383333333333,0.254,0.813,-0.427,623.51,0,1,1,1
24-May-2018 14:40:33,-64.2,0.0908714285714286,-0.882571428571428,-0.389657142857143,0.57,-0.6255,0.275333333333333,0.201,0,0,0,0,0,0,0,-0.271083333333333,-0.9695,-0.0384166666666667,-1.37242857142857,2.76142857142857,-0.145428571428571,2.05575,0.965333333333333,-0.33815,0.149383333333333,0.254,0.813,-0.427,623.51,0,1,1,1
24-May-2018 14:40:33,-64.2,0.0908714285714286,-0.882571428571428,-0.389657142857143,0.57,-0.6255,0.275333333333333,0.201,0,0,0,0,0,0,0,-0.271083333333333,-0.9695,-0.0384166666666667,-1.37242857142857,2.76142857142857,-0.145428571428571,2.05575,0.965333333333333,-0.33815,0.149383333333333,0.254,0.813,-0.427,623.51,0,1,1,1
24-May-2018 14:40:34,-27.6,0.0908714285714286,-0.882571428571428,-0.389657142857143,0.57,-0.6255,0.275333333333333,0.201,0,0,0,0,0,0,0,-0.27494,-0.96582,-0.03038,0.184333333333333,-1.27766666666667,0.609833333333333,2.103,0.9681,-0.33446,0.13968,1.2194,-0.122,0.0976,625.173142857143,0,1,1,1
24-May-2018 14:40:34,-27.6,0.0908714285714286,-0.882571428571428,-0.389657142857143,0.57,-0.6255,0.275333333333333,0.201,0,0,0,0,0,0,0,-0.27494,-0.96582,-0.03038,0.184333333333333,-1.27766666666667,0.609833333333333,2.103,0.9681,-0.33446,0.13968,1.2194,-0.122,0.0976,625.173142857143,0,1,1,1
24-May-2018 14:40:34,-27.6,0.0908714285714286,-0.882571428571428,-0.389657142857143,0.57,-0.6255,0.275333333333333,0.201,0,0,0,0,0,0,0,-0.27494,-0.96582,-0.03038,0.184333333333333,-1.27766666666667,0.609833333333333,2.103,0.9681,-0.33446,0.13968,1.2194,-0.122,0.0976,625.173142857143,0,1,1,1
24-May-2018 14:40:34,-27.6,0.0908714285714286,-0.882571428571428,-0.389657142857143,0.57,-0.6255,0.275333333333333,0.201,0,0,0,0,0,0,0,-0.27494,-0.96582,-0.03038,0.184333333333333,-1.27766666666667,0.609833333333333,2.103,0.9681,-0.33446,0.13968,1.2194,-0.122,0.0976,625.173142857143,0,1,1,1
24-May-2018 14:40:35,1.7,0.0908714285714286,-0.882571428571428,-0.389657142857143,0.57,-0.6255,0.275333333333333,0.201,0,0,0,0,0,0,0,-0.281428571428571,-0.965771428571429,-0.0442,-1.7652,0.5144,-0.5092,2.143,0.967014285714286,-0.335842857142857,0.138428571428571,0.5124,0.3904,-0.0854,617.524,1,1,1,1
24-May-2018 14:40:35,1.7,0.0908714285714286,-0.882571428571428,-0.389657142857143,0.57,-0.6255,0.275333333333333,0.201,0,0,0,0,0,0,0,-0.281428571428571,-0.965771428571429,-0.0442,-1.7652,0.5144,-0.5092,2.143,0.967014285714286,-0.335842857142857,0.138428571428571,0.5124,0.3904,-0.0854,617.524,1,1,1,1
24-May-2018 14:40:35,1.7,0.0908714285714286,-0.882571428571428,-0.389657142857143,0.57,-0.6255,0.275333333333333,0.201,0,0,0,0,0,0,0,-0.281428571428571,-0.965771428571429,-0.0442,-1.7652,0.5144,-0.5092,2.143,0.967014285714286,-0.335842857142857,0.138428571428571,0.5124,0.3904,-0.0854,617.524,1,1,1,1
24-May-2018 14:40:35,1.7,0.0908714285714286,-0.882571428571428,-0.389657142857143,0.57,-0.6255,0.275333333333333,0.201,0,0,0,0,0,0,0,-0.281428571428571,-0.965771428571429,-0.0442,-1.7652,0.5144,-0.5092,2.143,0.967014285714286,-0.335842857142857,0.138428571428571,0.5124,0.3904,-0.0854,617.524,1,1,1,1
24-May-2018 14:40:36,942.666666666667,0.0908714285714286,-0.882571428571428,-0.389657142857143,0.57,-0.6255,0.275333333333333,0.201,0,0,0,0,0,0,0,-0.27434,-0.96372,-0.06036,0.534285714285714,-0.667428571428571,0.045,2.15833333333333,0.96726,-0.33408,0.15238,0.317,0.8414,-0.2928,622.245142857143,1,1,1,1
24-May-2018 14:40:36,942.666666666667,0.0908714285714286,-0.882571428571428,-0.389657142857143,0.57,-0.6255,0.275333333333333,0.201,0,0,0,0,0,0,0,-0.27434,-0.96372,-0.06036,0.534285714285714,-0.667428571428571,0.045,2.15833333333333,0.96726,-0.33408,0.15238,0.317,0.8414,-0.2928,622.245142857143,1,1,1,1
24-May-2018 14:40:36,942.666666666667,0.0908714285714286,-0.882571428571428,-0.389657142857143,0.57,-0.6255,0.275333333333333,0.201,0,0,0,0,0,0,0,-0.27434,-0.96372,-0.06036,0.534285714285714,-0.667428571428571,0.045,2.15833333333333,0.96726,-0.33408,0.15238,0.317,0.8414,-0.2928,622.245142857143,1,1,1,1
24-May-2018 14:40:36,942.666666666667,0.0908714285714286,-0.882571428571428,-0.389657142857143,0.57,-0.6255,0.275333333333333,0.201,0,0,0,0,0,0,0,-0.27434,-0.96372,-0.06036,0.534285714285714,-0.667428571428571,0.045,2.15833333333333,0.96726,-0.33408,0.15238,0.317,0.8414,-0.2928,622.245142857143,1,1,1,1
24-May-2018 14:40:37,2047,0.0908714285714286,-0.882571428571428,-0.389657142857143,0.57,-0.6255,0.275333333333333,0.201,0,0,0,0,0,0,0,-0.28888,-0.96342,-0.04484,-0.865125,-0.241875,-0.06675,2.1845,0.9663875,-0.3353375,0.148875,0.609833333333333,0.2135,-0.183,630.451333333333,1,1,1,1
24-May-2018 14:40:37,2047,0.0908714285714286,-0.882571428571428,-0.389657142857143,0.57,-0.6255,0.275333333333333,0.201,0,0,0,0,0,0,0,-0.28888,-0.96342,-0.04484,-0.865125,-0.241875,-0.06675,2.1845,0.9663875,-0.3353375,0.148875,0.609833333333333,0.2135,-0.183,630.451333333333,1,1,1,1
24-May-2018 14:40:37,2047,0.0908714285714286,-0.882571428571428,-0.389657142857143,0.57,-0.6255,0.275333333333333,0.201,0,0,0,0,0,0,0,-0.28888,-0.96342,-0.04484,-0.865125,-0.241875,-0.06675,2.1845,0.9663875,-0.3353375,0.148875,0.609833333333333,0.2135,-0.183,630.451333333333,1,1,1,1
24-May-2018 14:40:37,2047,0.0908714285714286,-0.882571428571428,-0.389657142857143,0.57,-0.6255,0.275333333333333,0.201,0,0,0,0,0,0,0,-0.28888,-0.96342,-0.04484,-0.865125,-0.241875,-0.06675,2.1845,0.9663875,-0.3353375,0.148875,0.609833333333333,0.2135,-0.183,630.451333333333,1,1,1,1
