TIME,HELMET_RAW,BELT_ACC_X,BELT_ACC_Y,BELT_ACC_Z,BELT_ANG_X,BELT_ANG_Y,BELT_ANG_Z,BELT_LUMINOSITY,NECK_ACC_X,NECK_ACC_Y,NECK_ACC_Z,NECK_ANG_X,NECK_ANG_Y,NECK_ANG_Z,NECK_LUMINOSITY,PCKT_ACC_X,PCKT_ACC_Y,PCKT_ACC_Z,PCKT_ANG_X,PCKT_ANG_Y,PCKT_ANG_Z,PCKT_LUMINOSITY,WRST_ACC_X,WRST_ACC_Y,WRST_ACC_Z,WRST_ANG_X,WRST_ANG_Y,WRST_ANG_Z,WRST_LUMINOSITY,IR_1,IR_2,IR_3,IR_4
24-May-2018 14:40:38,2047,0.0908714285714286,-0.882571428571428,-0.389657142857143,0.57,-0.6255,0.275333333333333,0.201,0,0,0,0,0,0,0,-0.279716666666667,-0.965833333333333,-0.0460666666666667,-2.006,0.015,-0.68,2.1696,0.9674,-0.33216,0.14406,1.22966666666667,0.294666666666667,-0.111833333333333,627.1288,1,1,1,1
24-May-2018 14:40:38,2047,0.0908714285714286,-0.882571428571428,-0.389657142857143,0.57,-0.6255,0.275333333333333,0.201,0,0,0,0,0,0,0,-0.279716666666667,-0.965833333333333,-0.0460666666666667,-2.006,0.015,-0.68,2.1696,0.9674,-0.33216,0.14406,1.22966666666667,0.294666666666667,-0.111833333333333,627.1288,1,1,1,1
24-May-2018 14:40:38,2047,0.0908714285714286,-0.882571428571428,-0.389657142857143,0.57,-0.6255,0.275333333333333,0.201,0,0,0,0,0,0,0,-0.279716666666667,-0.965833333333333,-0.0460666666666667,-2.006,0.015,-0.68,2.1696,0.9674,-0.33216,0.14406,1.22966666666667,0.294666666666667,-0.111833333333333,627.1288,1,1,1,1
24-May-2018 14:40:38,2047,0.0908714285714286,-0.882571428571428,-0.389657142857143,0.57,-0.6255,0.275333333333333,0.201,0,0,0,0,0,0,0,-0.279716666666667,-0.965833333333333,-0.0460666666666667,-2.006,0.015,-0.68,2.1696,0.9674,-0.33216,0.14406,1.22966666666667,0.294666666666667,-0.111833333333333,627.1288,1,1,1,1
24-May-2018 14:40:39,1980.6,0.0908714285714286,-0.882571428571428,-0.389657142857143,0.57,-0.6255,0.275333333333333,0.201,0,0,0,0,0,0,0,-0.27854,-0.96546,-0.05048,2.02316666666667,1.68816666666667,0.5185,2.2028,0.96665,-0.336875,0.144475,-0.0915,1.03683333333333,-0.0508333333333333,623.97525,1,1,1,1
24-May-2018 14:40:39,1980.6,0.0908714285714286,-0.882571428571428,-0.389657142857143,0.57,-0.6255,0.275333333333333,0.201,0,0,0,0,0,0,0,-0.27854,-0.96546,-0.05048,2.02316666666667,1.68816666666667,0.5185,2.2028,0.96665,-0.336875,0.144475,-0.0915,1.03683333333333,-0.0508333333333333,623.97525,1,1,1,1
24-May-2018 14:40:39,1980.6,0.0908714285714286,-0.882571428571428,-0.389657142857143,0.57,-0.6255,0.275333333333333,0.201,0,0,0,0,0,0,0,-0.27854,-0.96546,-0.05048,2.02316666666667,1.68816666666667,0.5185,2.2028,0.96665,-0.336875,0.144475,-0.0915,1.03683333333333,-0.0508333333333333,623.97525,1,1,1,1
24-May-2018 14:40:39,1980.6,0.0908714285714286,-0.882571428571428,-0.389657142857143,0.57,-0.6255,0.275333333333333,0.201,0,0,0,0,0,0,0,-0.27854,-0.96546,-0.05048,2.02316666666667,1.68816666666667,0.5185,2.2028,0.96665,-0.336875,0.144475,-0.0915,1.03683333333333,-0.0508333333333333,623.97525,1,1,1,1
24-May-2018 14:40:40,1471.4,0.0908714285714286,-0.882571428571428,-0.389657142857143,0.57,-0.6255,0.275333333333333,0.201,0,0,0,0,0,0,0,-0.310466666666667,-0.960916666666667,0.0179333333333333,9.82516666666667,6.931,3.0695,2.251,0.9634,-0.334616666666667,0.158466666666667,0.223333333333333,0.995833333333333,-0.203333333333333,631.2894,1,1,1,1
24-May-2018 14:40:40,1471.4,0.0908714285714286,-0.882571428571428,-0.389657142857143,0.57,-0.6255,0.275333333333333,0.201,0,0,0,0,0,0,0,-0.310466666666667,-0.960916666666667,0.0179333333333333,9.82516666666667,6.931,3.0695,2.251,0.9634,-0.334616666666667,0.158466666666667,0.223333333333333,0.995833333333333,-0.203333333333333,631.2894,1,1,1,1
24-May-2018 14:40:40,1471.4,0.0908714285714286,-0.882571428571428,-0.389657142857143,0.57,-0.6255,0.275333333333333,0.201,0,0,0,0,0,0,0,-0.310466666666667,-0.960916666666667,0.0179333333333333,9.82516666666667,6.931,3.0695,2.251,0.9634,-0.334616666666667,0.158466666666667,0.223333333333333,0.995833333333333,-0.203333333333333,631.2894,1,1,1,1
24-May-2018 14:40:40,1471.4,0.0908714285714286,-0.882571428571428,-0.389657142857143,0.57,-0.6255,0.275333333333333,0.201,0,0,0,0,0,0,0,-0.310466666666667,-0.960916666666667,0.0179333333333333,9.82516666666667,6.931,3.0695,2.251,0.9634,-0.334616666666667,0.158466666666667,0.223333333333333,0.995833333333333,-0.203333333333333,631.2894,1,1,1,1
24-May-2018 14:40:41,1031.3,0.0908714285714286,-0.882571428571428,-0.389657142857143,0.57,-0.6255,0.275333333333333,0.201,0,0,0,0,0,0,0,-0.3216,-0.959525,0.12015,5.688,-2.94714285714286,-0.292857142857143,2.8305,0.9645,-0.3338,0.161883333333333,1.08885714285714,-0.226571428571429,-0.0435714285714286,639.83225,0,1,1,1
24-May-2018 14:40:41,1031.3,0.0908714285714286,-0.882571428571428,-0.389657142857143,0.57,-0.6255,0.275333333333333,0.201,0,0,0,0,0,0,0,-0.3216,-0.959525,0.12015,5.688,-2.94714285714286,-0.292857142857143,2.8305,0.9645,-0.3338,0.161883333333333,1.08885714285714,-0.226571428571429,-0.0435714285714286,639.83225,0,1,1,1
24-May-2018 14:40:41,1031.3,0.0908714285714286,-0.882571428571428,-0.389657142857143,0.57,-0.6255,0.275333333333333,0.201,0,0,0,0,0,0,0,-0.3216,-0.959525,0.12015,5.688,-2.94714285714286,-0.292857142857143,2.8305,0.9645,-0.3338,0.161883333333333,1.08885714285714,-0.226571428571429,-0.0435714285714286,639.83225,0,1,1,1
24-May-2018 14:40:41,1031.3,0.0908714285714286,-0.882571428571428,-0.389657142857143,0.57,-0.6255,0.275333333333333,0.201,0,0,0,0,0,0,0,-0.3216,-0.959525,0.12015,5.688,-2.94714285714286,-0.292857142857143,2.8305,0.9645,-0.3338,0.161883333333333,1.08885714285714,-0.226571428571429,-0.0435714285714286,639.83225,0,1,1,1
24-May-2018 14:40:42,726.9,0.0908714285714286,-0.882571428571428,-0.389657142857143,0.57,-0.6255,0.275333333333333,0.201,0,0,0,0,0,0,0,-0.323571428571429,-0.952185714285714,0.204571428571429,6.0655,2.776,1.37225,2.897,0.966585714285714,-0.332728571428571,0.148142857142857,17.0525,-8.95333333333333,0.2235,633.62,0,1,1,1
24-May-2018 14:40:42,726.9,0.0908714285714286,-0.882571428571428,-0.389657142857143,0.57,-0.6255,0.275333333333333,0.201,0,0,0,0,0,0,0,-0.323571428571429,-0.952185714285714,0.204571428571429,6.0655,2.776,1.37225,2.897,0.966585714285714,-0.332728571428571,0.148142857142857,17.0525,-8.95333333333333,0.2235,633.62,0,1,1,1
24-May-2018 14:40:42,726.9,0.0908714285714286,-0.882571428571428,-0.389657142857143,0.57,-0.6255,0.275333333333333,0.201,0,0,0,0,0,0,0,-0.323571428571429,-0.952185714285714,0.204571428571429,6.0655,2.776,1.37225,2.897,0.966585714285714,-0.332728571428571,0.148142857142857,17.0525,-8.95333333333333,0.2235,633.62,0,1,1,1
24-May-2018 14:40:42,726.9,0.0908714285714286,-0.882571428571428,-0.389657142857143,0.57,-0.6255,0.275333333333333,0.201,0,0,0,0,0,0,0,-0.323571428571429,-0.952185714285714,0.204571428571429,6.0655,2.776,1.37225,2.897,0.966585714285714,-0.332728571428571,0.148142857142857,17.0525,-8.95333333333333,0.2235,633.62,0,1,1,1
24-May-2018 14:40:43,533.25,0.0908714285714286,-0.882571428571428,-0.389657142857143,0.57,-0.6255,0.275333333333333,0.201,0,0,0,0,0,0,0,-0.333442857142857,-0.9457,0.235957142857143,-2.7384,-11.2224,1.1714,2.9966,0.977485714285714,-0.3259,0.0489142857142857,26.5158571428571,-10.0347142857143,4.23342857142857,495.99325,0,1,1,1
24-May-2018 14:40:43,533.25,0.0908714285714286,-0.882571428571428,-0.389657142857143,0.57,-0.6255,0.275333333333333,0.201,0,0,0,0,0,0,0,-0.333442857142857,-0.9457,0.235957142857143,-2.7384,-11.2224,1.1714,2.9966,0.977485714285714,-0.3259,0.0489142857142857,26.5158571428571,-10.0347142857143,4.23342857142857,495.99325,0,1,1,1
24-May-2018 14:40:43,533.25,0.0908714285714286,-0.882571428571428,-0.389657142857143,0.57,-0.6255,0.275333333333333,0.201,0,0,0,0,0,0,0,-0.333442857142857,-0.9457,0.235957142857143,-2.7384,-11.2224,1.1714,2.9966,0.977485714285714,-0.3259,0.0489142857142857,26.5158571428571,-10.0347142857143,4.23342857142857,495.99325,0,1,1,1
24-May-2018 14:40:43,533.25,0.0908714285714286,-0.882571428571428,-0.389657142857143,0.57,-0.6255,0.275333333333333,0.201,0,0,0,0,0,0,0,-0.333442857142857,-0.9457,0.235957142857143,-2.7384,-11.2224,1.1714,2.9966,0.977485714285714,-0.3259,0.0489142857142857,26.5158571428571,-10.0347142857143,4.23342857142857,495.99325,0,1,1,1
24-May-2018 14:40:44,403.888888888889,0.0908714285714286,-0.882571428571428,-0.389657142857143,0.57,-0.6255,0.275333333333333,0.201,0,0,0,0,0,0,0,-0.3187,-0.951116666666667,-0.0502833333333333,-16.2066666666667,-17.3966666666667,-4.315,2.54325,0.954671428571429,-0.384657142857143,0.0677285714285714,-1.84933333333333,2.13416666666667,2.002,431.6685,0,1,1,1
24-May-2018 14:40:44,403.888888888889,0.0908714285714286,-0.882571428571428,-0.389657142857143,0.57,-0.6255,0.275333333333333,0.201,0,0,0,0,0,0,0,-0.3187,-0.951116666666667,-0.0502833333333333,-16.2066666666667,-17.3966666666667,-4.315,2.54325,0.954671428571429,-0.384657142857143,0.0677285714285714,-1.84933333333333,2.13416666666667,2.002,431.6685,0,1,1,1
24-May-2018 14:40:44,403.888888888889,0.0908714285714286,-0.882571428571428,-0.389657142857143,0.57,-0.6255,0.275333333333333,0.201,0,0,0,0,0,0,0,-0.3187,-0.951116666666667,-0.0502833333333333,-16.2066666666667,-17.3966666666667,-4.315,2.54325,0.954671428571429,-0.384657142857143,0.0677285714285714,-1.84933333333333,2.13416666666667,2.002,431.6685,0,1,1,1
24-May-2018 14:40:44,403.888888888889,0.0908714285714286,-0.882571428571428,-0.389657142857143,0.57,-0.6255,0.275333333333333,0.201,0,0,0,0,0,0,0,-0.3187,-0.951116666666667,-0.0502833333333333,-16.2066666666667,-17.3966666666667,-4.315,2.54325,0.954671428571429,-0.384657142857143,0.0677285714285714,-1.84933333333333,2.13416666666667,2.002,431.6685,0,1,1,1
24-May-2018 14:40:45,309.75,0.0908714285714286,-0.882571428571428,-0.389657142857143,0.57,-0.6255,0.275333333333333,0.201,0,0,0,0,0,0,0,-0.299171428571429,-0.964928571428572,-0.0468428571428571,2.3548,3.7976,-0.4988,1.60875,0.953325,-0.38395,0.092125,-8.366,5.1706,-0.7562,454.980333333333,0,1,1,1
24-May-2018 14:40:45,309.75,0.0908714285714286,-0.882571428571428,-0.389657142857143,0.57,-0.6255,0.275333333333333,0.201,0,0,0,0,0,0,0,-0.299171428571429,-0.964928571428572,-0.0468428571428571,2.3548,3.7976,-0.4988,1.60875,0.953325,-0.38395,0.092125,-8.366,5.1706,-0.7562,454.980333333333,0,1,1,1
24-May-2018 14:40:45,309.75,0.0908714285714286,-0.882571428571428,-0.389657142857143,0.57,-0.6255,0.275333333333333,0.201,0,0,0,0,0,0,0,-0.299171428571429,-0.964928571428572,-0.0468428571428571,2.3548,3.7976,-0.4988,1.60875,0.953325,-0.38395,0.092125,-8.366,5.1706,-0.7562,454.980333333333,0,1,1,1
24-May-2018 14:40:45,309.75,0.0908714285714286,-0.882571428571428,-0.389657142857143,0.57,-0.6255,0.275333333333333,0.201,0,0,0,0,0,0,0,-0.299171428571429,-0.964928571428572,-0.0468428571428571,2.3548,3.7976,-0.4988,1.60875,0.953325,-0.38395,0.092125,-8.366,5.1706,-0.7562,454.980333333333,0,1,1,1
24-May-2018 14:40:46,244.125,0.0908714285714286,-0.882571428571428,-0.389657142857143,0.57,-0.6255,0.275333333333333,0.201,0,0,0,0,0,0,0,-0.317975,-0.95855,0.007275,6.4626,11.972,1.6218,1.712,0.9481,-0.395042857142857,0.0868714285714286,13.9021666666667,-7.71333333333333,0.538666666666667,471.239,0,1,1,1
24-May-2018 14:40:46,244.125,0.0908714285714286,-0.882571428571428,-0.389657142857143,0.57,-0.6255,0.275333333333333,0.201,0,0,0,0,0,0,0,-0.317975,-0.95855,0.007275,6.4626,11.972,1.6218,1.712,0.9481,-0.395042857142857,0.0868714285714286,13.9021666666667,-7.71333333333333,0.538666666666667,471.239,0,1,1,1
24-May-2018 14:40:46,244.125,0.0908714285714286,-0.882571428571428,-0.389657142857143,0.57,-0.6255,0.275333333333333,0.201,0,0,0,0,0,0,0,-0.317975,-0.95855,0.007275,6.4626,11.972,1.6218,1.712,0.9481,-0.395042857142857,0.0868714285714286,13.9021666666667,-7.71333333333333,0.538666666666667,471.239,0,1,1,1
24-May-2018 14:40:46,244.125,0.0908714285714286,-0.882571428571428,-0.389657142857143,0.57,-0.6255,0.275333333333333,0.201,0,0,0,0,0,0,0,-0.317975,-0.95855,0.007275,6.4626,11.972,1.6218,1.712,0.9481,-0.395042857142857,0.0868714285714286,13.9021666666667,-7.71333333333333,0.538666666666667,471.239,0,1,1,1
24-May-2018 14:40:47,181.833333333333,0.0908714285714286,-0.882571428571428,-0.389657142857143,0.57,-0.6255,0.275333333333333,0.201,0,0,0,0,0,0,0,-0.311783333333333,-0.96105,0.0122166666666667,-1.908,-3.92833333333333,-1.57166666666667,2.07933333333333,0.95085,-0.39475,0.065125,3.811,-0.233666666666667,0.802833333333333,430.828,1,1,1,1
24-May-2018 14:40:47,181.833333333333,0.0908714285714286,-0.882571428571428,-0.389657142857143,0.57,-0.6255,0.275333333333333,0.201,0,0,0,0,0,0,0,-0.311783333333333,-0.96105,0.0122166666666667,-1.908,-3.92833333333333,-1.57166666666667,2.07933333333333,0.95085,-0.39475,0.065125,3.811,-0.233666666666667,0.802833333333333,430.828,1,1,1,1
24-May-2018 14:40:47,181.833333333333,0.0908714285714286,-0.882571428571428,-0.389657142857143,0.57,-0.6255,0.275333333333333,0.201,0,0,0,0,0,0,0,-0.311783333333333,-0.96105,0.0122166666666667,-1.908,-3.92833333333333,-1.57166666666667,2.07933333333333,0.95085,-0.39475,0.065125,3.811,-0.233666666666667,0.802833333333333,430.828,1,1,1,1
24-May-2018 14:40:47,181.833333333333,0.0908714285714286,-0.882571428571428,-0.389657142857143,0.57,-0.6255,0.275333333333333,0.201,0,0,0,0,0,0,0,-0.311783333333333,-0.96105,0.0122166666666667,-1.908,-3.92833333333333,-1.57166666666667,2.07933333333333,0.95085,-0.39475,0.065125,3.811,-0.233666666666667,0.802833333333333,430.828,1,1,1,1
24-May-2018 14:40:48,-144.1,0.0908714285714286,-0.882571428571428,-0.389657142857143,0.57,-0.6255,0.275333333333333,0.201,0,0,0,0,0,0,0,-0.312075,-0.962925,0.02655,0.8306,-0.0594,0.0632,2.0426,0.9552,-0.395266666666667,0.0721166666666667,-0.7115,1.35166666666667,-1.0875,427.591833333333,0,1,1,1
24-May-2018 14:40:48,-144.1,0.0908714285714286,-0.882571428571428,-0.389657142857143,0.57,-0.6255,0.275333333333333,0.201,0,0,0,0,0,0,0,-0.312075,-0.962925,0.02655,0.8306,-0.0594,0.0632,2.0426,0.9552,-0.395266666666667,0.0721166666666667,-0.7115,1.35166666666667,-1.0875,427.591833333333,0,1,1,1
24-May-2018 14:40:48,-144.1,0.0908714285714286,-0.882571428571428,-0.389657142857143,0.57,-0.6255,0.275333333333333,0.201,0,0,0,0,0,0,0,-0.312075,-0.962925,0.02655,0.8306,-0.0594,0.0632,2.0426,0.9552,-0.395266666666667,0.0721166666666667,-0.7115,1.35166666666667,-1.0875,427.591833333333,0,1,1,1
24-May-2018 14:40:48,-144.1,0.0908714285714286,-0.882571428571428,-0.389657142857143,0.57,-0.6255,0.275333333333333,0.201,0,0,0,0,0,0,0,-0.312075,-0.962925,0.02655,0.8306,-0.0594,0.0632,2.0426,0.9552,-0.395266666666667,0.0721166666666667,-0.7115,1.35166666666667,-1.0875,427.591833333333,0,1,1,1
24-May-2018 14:40:49,-1221.42857142857,0.0908714285714286,-0.882571428571428,-0.389657142857143,0.57,-0.6255,0.275333333333333,0.201,0,0,0,0,0,0,0,-0.307828571428571,-0.962814285714286,0.0251142857142857,-0.877833333333333,-0.231,-0.353,2.1015,0.947642857142857,-0.392057142857143,0.0814142857142857,-1.42857142857143,1.55057142857143,-0.165571428571429,443.161,1,1,1,1
24-May-2018 14:40:49,-1221.42857142857,0.0908714285714286,-0.882571428571428,-0.389657142857143,0.57,-0.6255,0.275333333333333,0.201,0,0,0,0,0,0,0,-0.307828571428571,-0.962814285714286,0.0251142857142857,-0.877833333333333,-0.231,-0.353,2.1015,0.947642857142857,-0.392057142857143,0.0814142857142857,-1.42857142857143,1.55057142857143,-0.165571428571429,443.161,1,1,1,1
24-May-2018 14:40:49,-1221.42857142857,0.0908714285714286,-0.882571428571428,-0.389657142857143,0.57,-0.6255,0.275333333333333,0.201,0,0,0,0,0,0,0,-0.307828571428571,-0.962814285714286,0.0251142857142857,-0.877833333333333,-0.231,-0.353,2.1015,0.947642857142857,-0.392057142857143,0.0814142857142857,-1.42857142857143,1.55057142857143,-0.165571428571429,443.161,1,1,1,1
24-May-2018 14:40:49,-1221.42857142857,0.0908714285714286,-0.882571428571428,-0.389657142857143,0.57,-0.6255,0.275333333333333,0.201,0,0,0,0,0,0,0,-0.307828571428571,-0.962814285714286,0.0251142857142857,-0.877833333333333,-0.231,-0.353,2.1015,0.947642857142857,-0.392057142857143,0.0814142857142857,-1.42857142857143,1.55057142857143,-0.165571428571429,443.161,1,1,1,1
24-May-2018 14:40:50,-1976.4,0.0908714285714286,-0.882571428571428,-0.389657142857143,0.57,-0.6255,0.275333333333333,0.201,0,0,0,0,0,0,0,-0.310328571428571,-0.961628571428571,0.0275285714285714,-1.482,-2.568,-0.5452,2.127,0.951116666666667,-0.393833333333333,0.08395,0.955333333333333,0.0508333333333333,0.0101666666666667,442.4588,1,1,1,1
24-May-2018 14:40:50,-1976.4,0.0908714285714286,-0.882571428571428,-0.389657142857143,0.57,-0.6255,0.275333333333333,0.201,0,0,0,0,0,0,0,-0.310328571428571,-0.961628571428571,0.0275285714285714,-1.482,-2.568,-0.5452,2.127,0.951116666666667,-0.393833333333333,0.08395,0.955333333333333,0.0508333333333333,0.0101666666666667,442.4588,1,1,1,1
24-May-2018 14:40:50,-1976.4,0.0908714285714286,-0.882571428571428,-0.389657142857143,0.57,-0.6255,0.275333333333333,0.201,0,0,0,0,0,0,0,-0.310328571428571,-0.961628571428571,0.0275285714285714,-1.482,-2.568,-0.5452,2.127,0.951116666666667,-0.393833333333333,0.08395,0.955333333333333,0.0508333333333333,0.0101666666666667,442.4588,1,1,1,1
24-May-2018 14:40:50,-1976.4,0.0908714285714286,-0.882571428571428,-0.389657142857143,0.57,-0.6255,0.275333333333333,0.201,0,0,0,0,0,0,0,-0.310328571428571,-0.961628571428571,0.0275285714285714,-1.482,-2.568,-0.5452,2.127,0.951116666666667,-0.393833333333333,0.08395,0.955333333333333,0.0508333333333333,0.0101666666666667,442.4588,1,1,1,1
24-May-2018 14:40:51,-2048,0.0908714285714286,-0.882571428571428,-0.389657142857143,0.57,-0.6255,0.275333333333333,0.201,0,0,0,0,0,0,0,-0.280085714285714,-0.963,-0.0613428571428571,-13.0916666666667,-12.9233333333333,-4.22333333333333,2.03925,0.950083333333333,-0.39405,0.0688333333333333,-1.90033333333333,1.26033333333333,-0.3355,434.577,1,1,1,1
24-May-2018 14:40:51,-2048,0.0908714285714286,-0.882571428571428,-0.389657142857143,0.57,-0.6255,0.275333333333333,0.201,0,0,0,0,0,0,0,-0.280085714285714,-0.963,-0.0613428571428571,-13.0916666666667,-12.9233333333333,-4.22333333333333,2.03925,0.950083333333333,-0.39405,0.0688333333333333,-1.90033333333333,1.26033333333333,-0.3355,434.577,1,1,1,1
24-May-2018 14:40:51,-2048,0.0908714285714286,-0.882571428571428,-0.389657142857143,0.57,-0.6255,0.275333333333333,0.201,0,0,0,0,0,0,0,-0.280085714285714,-0.963,-0.0613428571428571,-13.0916666666667,-12.9233333333333,-4.22333333333333,2.03925,0.950083333333333,-0.39405,0.0688333333333333,-1.90033333333333,1.26033333333333,-0.3355,434.577,1,1,1,1
24-May-2018 14:40:51,-2048,0.0908714285714286,-0.882571428571428,-0.389657142857143,0.57,-0.6255,0.275333333333333,0.201,0,0,0,0,0,0,0,-0.280085714285714,-0.963,-0.0613428571428571,-13.0916666666667,-12.9233333333333,-4.22333333333333,2.03925,0.950083333333333,-0.39405,0.0688333333333333,-1.90033333333333,1.26033333333333,-0.3355,434.577,1,1,1,1
24-May-2018 14:40:52,-2048,0.0908714285714286,-0.882571428571428,-0.389657142857143,0.57,-0.6255,0.275333333333333,0.201,0,0,0,0,0,0,0,-0.2923,-0.95146,-0.10224,0.702166666666667,4.1655,1.32166666666667,1.519,0.955914285714286,-0.396814285714286,0.0721571428571429,-0.505285714285714,-0.113285714285714,-1.13228571428571,439.32025,1,1,1,1
24-May-2018 14:40:52,-2048,0.0908714285714286,-0.882571428571428,-0.389657142857143,0.57,-0.6255,0.275333333333333,0.201,0,0,0,0,0,0,0,-0.2923,-0.95146,-0.10224,0.702166666666667,4.1655,1.32166666666667,1.519,0.955914285714286,-0.396814285714286,0.0721571428571429,-0.505285714285714,-0.113285714285714,-1.13228571428571,439.32025,1,1,1,1
24-May-2018 14:40:52,-2048,0.0908714285714286,-0.882571428571428,-0.389657142857143,0.57,-0.6255,0.275333333333333,0.201,0,0,0,0,0,0,0,-0.2923,-0.95146,-0.10224,0.702166666666667,4.1655,1.32166666666667,1.519,0.955914285714286,-0.396814285714286,0.0721571428571429,-0.505285714285714,-0.113285714285714,-1.13228571428571,439.32025,1,1,1,1
24-May-2018 14:40:52,-2048,0.0908714285714286,-0.882571428571428,-0.389657142857143,0.57,-0.6255,0.275333333333333,0.201,0,0,0,0,0,0,0,-0.2923,-0.95146,-0.10224,0.702166666666667,4.1655,1.32166666666667,1.519,0.955914285714286,-0.396814285714286,0.0721571428571429,-0.505285714285714,-0.113285714285714,-1.13228571428571,439.32025,1,1,1,1
24-May-2018 14:40:53,-2023.77777777778,0.0908714285714286,-0.882571428571428,-0.389657142857143,0.57,-0.6255,0.275333333333333,0.201,0,0,0,0,0,0,0,-0.28284,-0.95654,-0.09816,-0.295,-2.27171428571429,-0.519714285714286,1.659,0.95196,-0.37706,0.05768,-5.02033333333333,2.7135,-1.54483333333333,441.32675,1,1,1,1
24-May-2018 14:40:53,-2023.77777777778,0.0908714285714286,-0.882571428571428,-0.389657142857143,0.57,-0.6255,0.275333333333333,0.201,0,0,0,0,0,0,0,-0.28284,-0.95654,-0.09816,-0.295,-2.27171428571429,-0.519714285714286,1.659,0.95196,-0.37706,0.05768,-5.02033333333333,2.7135,-1.54483333333333,441.32675,1,1,1,1
24-May-2018 14:40:53,-2023.77777777778,0.0908714285714286,-0.882571428571428,-0.389657142857143,0.57,-0.6255,0.275333333333333,0.201,0,0,0,0,0,0,0,-0.28284,-0.95654,-0.09816,-0.295,-2.27171428571429,-0.519714285714286,1.659,0.95196,-0.37706,0.05768,-5.02033333333333,2.7135,-1.54483333333333,441.32675,1,1,1,1
24-May-2018 14:40:53,-2023.77777777778,0.0908714285714286,-0.882571428571428,-0.389657142857143,0.57,-0.6255,0.275333333333333,0.201,0,0,0,0,0,0,0,-0.28284,-0.95654,-0.09816,-0.295,-2.27171428571429,-0.519714285714286,1.659,0.95196,-0.37706,0.05768,-5.02033333333333,2.7135,-1.54483333333333,441.32675,1,1,1,1
24-May-2018 14:40:54,-1553.9,0.0908714285714286,-0.882571428571428,-0.389657142857143,0.57,-0.6255,0.275333333333333,0.201,0,0,0,0,0,0,0,-0.28194,-0.95706,-0.089,-0.22425,-1.66575,-0.0735,1.71925,0.958416666666667,-0.376216666666667,0.0684333333333333,0.139285714285714,1.55057142857143,0.383142857142857,446.4975,1,1,1,1
24-May-2018 14:40:54,-1553.9,0.0908714285714286,-0.882571428571428,-0.389657142857143,0.57,-0.6255,0.275333333333333,0.201,0,0,0,0,0,0,0,-0.28194,-0.95706,-0.089,-0.22425,-1.66575,-0.0735,1.71925,0.958416666666667,-0.376216666666667,0.0684333333333333,0.139285714285714,1.55057142857143,0.383142857142857,446.4975,1,1,1,1
24-May-2018 14:40:54,-1553.9,0.0908714285714286,-0.882571428571428,-0.389657142857143,0.57,-0.6255,0.275333333333333,0.201,0,0,0,0,0,0,0,-0.28194,-0.95706,-0.089,-0.22425,-1.66575,-0.0735,1.71925,0.958416666666667,-0.376216666666667,0.0684333333333333,0.139285714285714,1.55057142857143,0.383142857142857,446.4975,1,1,1,1
24-May-2018 14:40:54,-1553.9,0.0908714285714286,-0.882571428571428,-0.389657142857143,0.57,-0.6255,0.275333333333333,0.201,0,0,0,0,0,0,0,-0.28194,-0.95706,-0.089,-0.22425,-1.66575,-0.0735,1.71925,0.958416666666667,-0.376216666666667,0.0684333333333333,0.139285714285714,1.55057142857143,0.383142857142857,446.4975,1,1,1,1
24-May-2018 14:40:55,-1116.28571428571,0.0908714285714286,-0.882571428571428,-0.389657142857143,0.57,-0.6255,0.275333333333333,0.201,0,0,0,0,0,0,0,-0.282516666666667,-0.957883333333333,-0.0894333333333333,-0.9496,-0.5838,-0.399,1.6605,0.957925,-0.375375,0.085475,-18.1401666666667,9.18716666666667,-3.68883333333333,452.106333333333,1,1,1,1
24-May-2018 14:40:55,-1116.28571428571,0.0908714285714286,-0.882571428571428,-0.389657142857143,0.57,-0.6255,0.275333333333333,0.201,0,0,0,0,0,0,0,-0.282516666666667,-0.957883333333333,-0.0894333333333333,-0.9496,-0.5838,-0.399,1.6605,0.957925,-0.375375,0.085475,-18.1401666666667,9.18716666666667,-3.68883333333333,452.106333333333,1,1,1,1
24-May-2018 14:40:55,-1116.28571428571,0.0908714285714286,-0.882571428571428,-0.389657142857143,0.57,-0.6255,0.275333333333333,0.201,0,0,0,0,0,0,0,-0.282516666666667,-0.957883333333333,-0.0894333333333333,-0.9496,-0.5838,-0.399,1.6605,0.957925,-0.375375,0.085475,-18.1401666666667,9.18716666666667,-3.68883333333333,452.106333333333,1,1,1,1
24-May-2018 14:40:55,-1116.28571428571,0.0908714285714286,-0.882571428571428,-0.389657142857143,0.57,-0.6255,0.275333333333333,0.201,0,0,0,0,0,0,0,-0.282516666666667,-0.957883333333333,-0.0894333333333333,-0.9496,-0.5838,-0.399,1.6605,0.957925,-0.375375,0.085475,-18.1401666666667,9.18716666666667,-3.68883333333333,452.106333333333,1,1,1,1
24-May-2018 14:40:56,-831.875,0.0908714285714286,-0.882571428571428,-0.389657142857143,0.57,-0.6255,0.275333333333333,0.201,0,0,0,0,0,0,0,-0.27828,-0.95902,-0.09222,1.4528,7.4756,0.282,1.765,0.969,-0.3401,0.0989285714285714,-0.386333333333333,2.3375,-1.20933333333333,506.033333333333,1,1,1,1
24-May-2018 14:40:56,-831.875,0.0908714285714286,-0.882571428571428,-0.389657142857143,0.57,-0.6255,0.275333333333333,0.201,0,0,0,0,0,0,0,-0.27828,-0.95902,-0.09222,1.4528,7.4756,0.282,1.765,0.969,-0.3401,0.0989285714285714,-0.386333333333333,2.3375,-1.20933333333333,506.033333333333,1,1,1,1
24-May-2018 14:40:56,-831.875,0.0908714285714286,-0.882571428571428,-0.389657142857143,0.57,-0.6255,0.275333333333333,0.201,0,0,0,0,0,0,0,-0.27828,-0.95902,-0.09222,1.4528,7.4756,0.282,1.765,0.969,-0.3401,0.0989285714285714,-0.386333333333333,2.3375,-1.20933333333333,506.033333333333,1,1,1,1
24-May-2018 14:40:56,-831.875,0.0908714285714286,-0.882571428571428,-0.389657142857143,0.57,-0.6255,0.275333333333333,0.201,0,0,0,0,0,0,0,-0.27828,-0.95902,-0.09222,1.4528,7.4756,0.282,1.765,0.969,-0.3401,0.0989285714285714,-0.386333333333333,2.3375,-1.20933333333333,506.033333333333,1,1,1,1
24-May-2018 14:40:57,-591.444444444444,0.0908714285714286,-0.882571428571428,-0.389657142857143,0.57,-0.6255,0.275333333333333,0.201,0,0,0,0,0,0,0,-0.28044,-0.96276,-0.02128,9.998,0.9412,0.8294,2.0544,0.963775,-0.347125,0.144025,-8.56271428571429,6.72471428571429,-1.14985714285714,521.899,1,1,1,1
24-May-2018 14:40:57,-591.444444444444,0.0908714285714286,-0.882571428571428,-0.389657142857143,0.57,-0.6255,0.275333333333333,0.201,0,0,0,0,0,0,0,-0.28044,-0.96276,-0.02128,9.998,0.9412,0.8294,2.0544,0.963775,-0.347125,0.144025,-8.56271428571429,6.72471428571429,-1.14985714285714,521.899,1,1,1,1
24-May-2018 14:40:57,-591.444444444444,0.0908714285714286,-0.882571428571428,-0.389657142857143,0.57,-0.6255,0.275333333333333,0.201,0,0,0,0,0,0,0,-0.28044,-0.96276,-0.02128,9.998,0.9412,0.8294,2.0544,0.963775,-0.347125,0.144025,-8.56271428571429,6.72471428571429,-1.14985714285714,521.899,1,1,1,1
24-May-2018 14:40:57,-591.444444444444,0.0908714285714286,-0.882571428571428,-0.389657142857143,0.57,-0.6255,0.275333333333333,0.201,0,0,0,0,0,0,0,-0.28044,-0.96276,-0.02128,9.998,0.9412,0.8294,2.0544,0.963775,-0.347125,0.144025,-8.56271428571429,6.72471428571429,-1.14985714285714,521.899,1,1,1,1
24-May-2018 14:40:58,-400.5,0.0908714285714286,-0.882571428571428,-0.389657142857143,0.57,-0.6255,0.275333333333333,0.201,0,0,0,0,0,0,0,-0.27416,-0.9742,0.18536,1.78542857142857,-8.60357142857143,0.332571428571429,2.305,0.9468125,-0.365575,0.194875,4.425,-0.165571428571428,1.08,600.887,1,1,1,1
24-May-2018 14:40:58,-400.5,0.0908714285714286,-0.882571428571428,-0.389657142857143,0.57,-0.6255,0.275333333333333,0.201,0,0,0,0,0,0,0,-0.27416,-0.9742,0.18536,1.78542857142857,-8.60357142857143,0.332571428571429,2.305,0.9468125,-0.365575,0.194875,4.425,-0.165571428571428,1.08,600.887,1,1,1,1
24-May-2018 14:40:58,-400.5,0.0908714285714286,-0.882571428571428,-0.389657142857143,0.57,-0.6255,0.275333333333333,0.201,0,0,0,0,0,0,0,-0.27416,-0.9742,0.18536,1.78542857142857,-8.60357142857143,0.332571428571429,2.305,0.9468125,-0.365575,0.194875,4.425,-0.165571428571428,1.08,600.887,1,1,1,1
24-May-2018 14:40:58,-400.5,0.0908714285714286,-0.882571428571428,-0.389657142857143,0.57,-0.6255,0.275333333333333,0.201,0,0,0,0,0,0,0,-0.27416,-0.9742,0.18536,1.78542857142857,-8.60357142857143,0.332571428571429,2.305,0.9468125,-0.365575,0.194875,4.425,-0.165571428571428,1.08,600.887,1,1,1,1
24-May-2018 14:40:59,-270.875,0.0908714285714286,-0.882571428571428,-0.389657142857143,0.57,-0.6255,0.275333333333333,0.201,0,0,0,0,0,0,0,-0.299033333333333,-0.959833333333333,-0.0153833333333333,-8.72783333333333,-6.13683333333333,1.05933333333333,1.9372,0.95854,-0.37374,0.08956,26.0191428571429,-16.1062857142857,2.77014285714286,559.0646,0,1,1,1
24-May-2018 14:40:59,-270.875,0.0908714285714286,-0.882571428571428,-0.389657142857143,0.57,-0.6255,0.275333333333333,0.201,0,0,0,0,0,0,0,-0.299033333333333,-0.959833333333333,-0.0153833333333333,-8.72783333333333,-6.13683333333333,1.05933333333333,1.9372,0.95854,-0.37374,0.08956,26.0191428571429,-16.1062857142857,2.77014285714286,559.0646,0,1,1,1
24-May-2018 14:40:59,-270.875,0.0908714285714286,-0.882571428571428,-0.389657142857143,0.57,-0.6255,0.275333333333333,0.201,0,0,0,0,0,0,0,-0.299033333333333,-0.959833333333333,-0.0153833333333333,-8.72783333333333,-6.13683333333333,1.05933333333333,1.9372,0.95854,-0.37374,0.08956,26.0191428571429,-16.1062857142857,2.77014285714286,559.0646,0,1,1,1
24-May-2018 14:40:59,-270.875,0.0908714285714286,-0.882571428571428,-0.389657142857143,0.57,-0.6255,0.275333333333333,0.201,0,0,0,0,0,0,0,-0.299033333333333,-0.959833333333333,-0.0153833333333333,-8.72783333333333,-6.13683333333333,1.05933333333333,1.9372,0.95854,-0.37374,0.08956,26.0191428571429,-16.1062857142857,2.77014285714286,559.0646,0,1,1,1
24-May-2018 14:41:00,-178.5,0.0908714285714286,-0.882571428571428,-0.389657142857143,0.57,-0.6255,0.275333333333333,0.201,0,0,0,0,0,0,0,-0.305266666666667,-0.961033333333333,-0.0108833333333333,1.62242857142857,2.63128571428571,-0.231428571428571,1.6672,0.97202,-0.38374,0.0301,12.937,-1.677,2.95733333333333,407.1456,1,1,1,1
24-May-2018 14:41:00,-178.5,0.0908714285714286,-0.882571428571428,-0.389657142857143,0.57,-0.6255,0.275333333333333,0.201,0,0,0,0,0,0,0,-0.305266666666667,-0.961033333333333,-0.0108833333333333,1.62242857142857,2.63128571428571,-0.231428571428571,1.6672,0.97202,-0.38374,0.0301,12.937,-1.677,2.95733333333333,407.1456,1,1,1,1
24-May-2018 14:41:00,-178.5,0.0908714285714286,-0.882571428571428,-0.389657142857143,0.57,-0.6255,0.275333333333333,0.201,0,0,0,0,0,0,0,-0.305266666666667,-0.961033333333333,-0.0108833333333333,1.62242857142857,2.63128571428571,-0.231428571428571,1.6672,0.97202,-0.38374,0.0301,12.937,-1.677,2.95733333333333,407.1456,1,1,1,1
24-May-2018 14:41:00,-178.5,0.0908714285714286,-0.882571428571428,-0.389657142857143,0.57,-0.6255,0.275333333333333,0.201,0,0,0,0,0,0,0,-0.305266666666667,-0.961033333333333,-0.0108833333333333,1.62242857142857,2.63128571428571,-0.231428571428571,1.6672,0.97202,-0.38374,0.0301,12.937,-1.677,2.95733333333333,407.1456,1,1,1,1
24-May-2018 14:41:01,587.4,0.0908714285714286,-0.882571428571428,-0.389657142857143,0.57,-0.6255,0.275333333333333,0.201,0,0,0,0,0,0,0,-0.31405,-0.957275,-0.003125,0.6732,8.7176,0.695,1.8215,0.93558,-0.41544,0.10202,-14.1598888888889,7.79811111111111,-3.55011111111111,421.275,1,1,1,1
24-May-2018 14:41:01,587.4,0.0908714285714286,-0.882571428571428,-0.389657142857143,0.57,-0.6255,0.275333333333333,0.201,0,0,0,0,0,0,0,-0.31405,-0.957275,-0.003125,0.6732,8.7176,0.695,1.8215,0.93558,-0.41544,0.10202,-14.1598888888889,7.79811111111111,-3.55011111111111,421.275,1,1,1,1
24-May-2018 14:41:01,587.4,0.0908714285714286,-0.882571428571428,-0.389657142857143,0.57,-0.6255,0.275333333333333,0.201,0,0,0,0,0,0,0,-0.31405,-0.957275,-0.003125,0.6732,8.7176,0.695,1.8215,0.93558,-0.41544,0.10202,-14.1598888888889,7.79811111111111,-3.55011111111111,421.275,1,1,1,1
24-May-2018 14:41:01,587.4,0.0908714285714286,-0.882571428571428,-0.389657142857143,0.57,-0.6255,0.275333333333333,0.201,0,0,0,0,0,0,0,-0.31405,-0.957275,-0.003125,0.6732,8.7176,0.695,1.8215,0.93558,-0.41544,0.10202,-14.1598888888889,7.79811111111111,-3.55011111111111,421.275,1,1,1,1
24-May-2018 14:41:02,2047,0.0908714285714286,-0.882571428571428,-0.389657142857143,0.57,-0.6255,0.275333333333333,0.201,0,0,0,0,0,0,0,-0.286214285714286,-0.968485714285714,-0.0249285714285714,1.011,1.22285714285714,-0.109428571428571,1.9225,0.959228571428571,-0.364871428571429,0.0736571428571429,3.9025,-1.61616666666667,-0.569,453.2994,1,1,1,1
24-May-2018 14:41:02,2047,0.0908714285714286,-0.882571428571428,-0.389657142857143,0.57,-0.6255,0.275333333333333,0.201,0,0,0,0,0,0,0,-0.286214285714286,-0.968485714285714,-0.0249285714285714,1.011,1.22285714285714,-0.109428571428571,1.9225,0.959228571428571,-0.364871428571429,0.0736571428571429,3.9025,-1.61616666666667,-0.569,453.2994,1,1,1,1
24-May-2018 14:41:02,2047,0.0908714285714286,-0.882571428571428,-0.389657142857143,0.57,-0.6255,0.275333333333333,0.201,0,0,0,0,0,0,0,-0.286214285714286,-0.968485714285714,-0.0249285714285714,1.011,1.22285714285714,-0.109428571428571,1.9225,0.959228571428571,-0.364871428571429,0.0736571428571429,3.9025,-1.61616666666667,-0.569,453.2994,1,1,1,1
24-May-2018 14:41:02,2047,0.0908714285714286,-0.882571428571428,-0.389657142857143,0.57,-0.6255,0.275333333333333,0.201,0,0,0,0,0,0,0,-0.286214285714286,-0.968485714285714,-0.0249285714285714,1.011,1.22285714285714,-0.109428571428571,1.9225,0.959228571428571,-0.364871428571429,0.0736571428571429,3.9025,-1.61616666666667,-0.569,453.2994,1,1,1,1
24-May-2018 14:41:03,2047,0.0908714285714286,-0.882571428571428,-0.389657142857143,0.57,-0.6255,0.275333333333333,0.201,0,0,0,0,0,0,0,-0.28878,-0.96456,-0.00824,-1.966,-4.09214285714286,-0.841142857142857,2.0722,0.958657142857143,-0.376942857142857,0.0764285714285714,-0.766714285714286,0.897285714285714,-0.331142857142857,447.5285,1,1,1,1
24-May-2018 14:41:03,2047,0.0908714285714286,-0.882571428571428,-0.389657142857143,0.57,-0.6255,0.275333333333333,0.201,0,0,0,0,0,0,0,-0.28878,-0.96456,-0.00824,-1.966,-4.09214285714286,-0.841142857142857,2.0722,0.958657142857143,-0.376942857142857,0.0764285714285714,-0.766714285714286,0.897285714285714,-0.331142857142857,447.5285,1,1,1,1
24-May-2018 14:41:03,2047,0.0908714285714286,-0.882571428571428,-0.389657142857143,0.57,-0.6255,0.275333333333333,0.201,0,0,0,0,0,0,0,-0.28878,-0.96456,-0.00824,-1.966,-4.09214285714286,-0.841142857142857,2.0722,0.958657142857143,-0.376942857142857,0.0764285714285714,-0.766714285714286,0.897285714285714,-0.331142857142857,447.5285,1,1,1,1
24-May-2018 14:41:03,2047,0.0908714285714286,-0.882571428571428,-0.389657142857143,0.57,-0.6255,0.275333333333333,0.201,0,0,0,0,0,0,0,-0.28878,-0.96456,-0.00824,-1.966,-4.09214285714286,-0.841142857142857,2.0722,0.958657142857143,-0.376942857142857,0.0764285714285714,-0.766714285714286,0.897285714285714,-0.331142857142857,447.5285,1,1,1,1
24-May-2018 14:41:04,1729.45454545455,0.0908714285714286,-0.882571428571428,-0.389657142857143,0.57,-0.6255,0.275333333333333,0.201,0,0,0,0,0,0,0,-0.305725,-0.96355,0.0145375,-0.0719999999999999,0.6964,0.3446,1.9595,0.959185714285714,-0.380814285714286,0.0781142857142857,-2.64216666666667,2.5915,0.2135,456.1698,1,1,1,1
24-May-2018 14:41:04,1729.45454545455,0.0908714285714286,-0.882571428571428,-0.389657142857143,0.57,-0.6255,0.275333333333333,0.201,0,0,0,0,0,0,0,-0.305725,-0.96355,0.0145375,-0.0719999999999999,0.6964,0.3446,1.9595,0.959185714285714,-0.380814285714286,0.0781142857142857,-2.64216666666667,2.5915,0.2135,456.1698,1,1,1,1
24-May-2018 14:41:04,1729.45454545455,0.0908714285714286,-0.882571428571428,-0.389657142857143,0.57,-0.6255,0.275333333333333,0.201,0,0,0,0,0,0,0,-0.305725,-0.96355,0.0145375,-0.0719999999999999,0.6964,0.3446,1.9595,0.959185714285714,-0.380814285714286,0.0781142857142857,-2.64216666666667,2.5915,0.2135,456.1698,1,1,1,1
24-May-2018 14:41:04,1729.45454545455,0.0908714285714286,-0.882571428571428,-0.389657142857143,0.57,-0.6255,0.275333333333333,0.201,0,0,0,0,0,0,0,-0.305725,-0.96355,0.0145375,-0.0719999999999999,0.6964,0.3446,1.9595,0.959185714285714,-0.380814285714286,0.0781142857142857,-2.64216666666667,2.5915,0.2135,456.1698,1,1,1,1
24-May-2018 14:41:05,1209.11111111111,0.0908714285714286,-0.882571428571428,-0.389657142857143,0.57,-0.6255,0.275333333333333,0.201,0,0,0,0,0,0,0,-0.307366666666667,-0.963766666666667,-0.00398333333333333,-3.1934,1.245,-1.166,1.9785,0.950966666666667,-0.390333333333333,0.0904,8.61766666666667,-4.00411111111111,0.149111111111111,460.129,0,1,1,1
24-May-2018 14:41:05,1209.11111111111,0.0908714285714286,-0.882571428571428,-0.389657142857143,0.57,-0.6255,0.275333333333333,0.201,0,0,0,0,0,0,0,-0.307366666666667,-0.963766666666667,-0.00398333333333333,-3.1934,1.245,-1.166,1.9785,0.950966666666667,-0.390333333333333,0.0904,8.61766666666667,-4.00411111111111,0.149111111111111,460.129,0,1,1,1
24-May-2018 14:41:05,1209.11111111111,0.0908714285714286,-0.882571428571428,-0.389657142857143,0.57,-0.6255,0.275333333333333,0.201,0,0,0,0,0,0,0,-0.307366666666667,-0.963766666666667,-0.00398333333333333,-3.1934,1.245,-1.166,1.9785,0.950966666666667,-0.390333333333333,0.0904,8.61766666666667,-4.00411111111111,0.149111111111111,460.129,0,1,1,1
24-May-2018 14:41:05,1209.11111111111,0.0908714285714286,-0.882571428571428,-0.389657142857143,0.57,-0.6255,0.275333333333333,0.201,0,0,0,0,0,0,0,-0.307366666666667,-0.963766666666667,-0.00398333333333333,-3.1934,1.245,-1.166,1.9785,0.950966666666667,-0.390333333333333,0.0904,8.61766666666667,-4.00411111111111,0.149111111111111,460.129,0,1,1,1
24-May-2018 14:41:06,865.1,0.0908714285714286,-0.882571428571428,-0.389657142857143,0.57,-0.6255,0.275333333333333,0.201,0,0,0,0,0,0,0,-0.299433333333333,-0.964183333333333,-0.00503333333333333,-1.928,-3.3085,-1.21666666666667,1.9514,0.959566666666667,-0.383666666666667,0.0508,18.0488333333333,-5.2945,2.80483333333333,430.399,1,1,1,1
24-May-2018 14:41:06,865.1,0.0908714285714286,-0.882571428571428,-0.389657142857143,0.57,-0.6255,0.275333333333333,0.201,0,0,0,0,0,0,0,-0.299433333333333,-0.964183333333333,-0.00503333333333333,-1.928,-3.3085,-1.21666666666667,1.9514,0.959566666666667,-0.383666666666667,0.0508,18.0488333333333,-5.2945,2.80483333333333,430.399,1,1,1,1
24-May-2018 14:41:06,865.1,0.0908714285714286,-0.882571428571428,-0.389657142857143,0.57,-0.6255,0.275333333333333,0.201,0,0,0,0,0,0,0,-0.299433333333333,-0.964183333333333,-0.00503333333333333,-1.928,-3.3085,-1.21666666666667,1.9514,0.959566666666667,-0.383666666666667,0.0508,18.0488333333333,-5.2945,2.80483333333333,430.399,1,1,1,1
24-May-2018 14:41:06,865.1,0.0908714285714286,-0.882571428571428,-0.389657142857143,0.57,-0.6255,0.275333333333333,0.201,0,0,0,0,0,0,0,-0.299433333333333,-0.964183333333333,-0.00503333333333333,-1.928,-3.3085,-1.21666666666667,1.9514,0.959566666666667,-0.383666666666667,0.0508,18.0488333333333,-5.2945,2.80483333333333,430.399,1,1,1,1
24-May-2018 14:41:07,611.9,0.0908714285714286,-0.882571428571428,-0.389657142857143,0.57,-0.6255,0.275333333333333,0.201,0,0,0,0,0,0,0,-0.29325,-0.966183333333333,-0.00241666666666667,1.99366666666667,1.201,-0.190333333333333,1.8924,0.94262,-0.41894,0.08196,-10.175375,3.505875,-1.6615,405.005,1,1,1,1
24-May-2018 14:41:07,611.9,0.0908714285714286,-0.882571428571428,-0.389657142857143,0.57,-0.6255,0.275333333333333,0.201,0,0,0,0,0,0,0,-0.29325,-0.966183333333333,-0.00241666666666667,1.99366666666667,1.201,-0.190333333333333,1.8924,0.94262,-0.41894,0.08196,-10.175375,3.505875,-1.6615,405.005,1,1,1,1
24-May-2018 14:41:07,611.9,0.0908714285714286,-0.882571428571428,-0.389657142857143,0.57,-0.6255,0.275333333333333,0.201,0,0,0,0,0,0,0,-0.29325,-0.966183333333333,-0.00241666666666667,1.99366666666667,1.201,-0.190333333333333,1.8924,0.94262,-0.41894,0.08196,-10.175375,3.505875,-1.6615,405.005,1,1,1,1
24-May-2018 14:41:07,611.9,0.0908714285714286,-0.882571428571428,-0.389657142857143,0.57,-0.6255,0.275333333333333,0.201,0,0,0,0,0,0,0,-0.29325,-0.966183333333333,-0.00241666666666667,1.99366666666667,1.201,-0.190333333333333,1.8924,0.94262,-0.41894,0.08196,-10.175375,3.505875,-1.6615,405.005,1,1,1,1
24-May-2018 14:41:08,437.8,0.0908714285714286,-0.882571428571428,-0.389657142857143,0.57,-0.6255,0.275333333333333,0.201,0,0,0,0,0,0,0,-0.302083333333333,-0.968733333333333,0.0817,5.90457142857143,2.631,0.531571428571428,2.192,0.946766666666667,-0.406216666666667,0.0625833333333333,0.7684,0.7682,0.6464,418.81825,1,1,1,1
24-May-2018 14:41:08,437.8,0.0908714285714286,-0.882571428571428,-0.389657142857143,0.57,-0.6255,0.275333333333333,0.201,0,0,0,0,0,0,0,-0.302083333333333,-0.968733333333333,0.0817,5.90457142857143,2.631,0.531571428571428,2.192,0.946766666666667,-0.406216666666667,0.0625833333333333,0.7684,0.7682,0.6464,418.81825,1,1,1,1
24-May-2018 14:41:08,437.8,0.0908714285714286,-0.882571428571428,-0.389657142857143,0.57,-0.6255,0.275333333333333,0.201,0,0,0,0,0,0,0,-0.302083333333333,-0.968733333333333,0.0817,5.90457142857143,2.631,0.531571428571428,2.192,0.946766666666667,-0.406216666666667,0.0625833333333333,0.7684,0.7682,0.6464,418.81825,1,1,1,1
24-May-2018 14:41:08,437.8,0.0908714285714286,-0.882571428571428,-0.389657142857143,0.57,-0.6255,0.275333333333333,0.201,0,0,0,0,0,0,0,-0.302083333333333,-0.968733333333333,0.0817,5.90457142857143,2.631,0.531571428571428,2.192,0.946766666666667,-0.406216666666667,0.0625833333333333,0.7684,0.7682,0.6464,418.81825,1,1,1,1
24-May-2018 14:41:09,322.333333333333,0.0908714285714286,-0.882571428571428,-0.389657142857143,0.57,-0.6255,0.275333333333333,0.201,0,0,0,0,0,0,0,-0.3003375,-0.966,0.076325,-7.12,-0.475833333333333,-0.049,2.431,0.951466666666667,-0.398216666666667,0.057,4.53828571428571,-1.47214285714286,0.0695714285714285,418.212666666667,1,1,1,1
24-May-2018 14:41:09,322.333333333333,0.0908714285714286,-0.882571428571428,-0.389657142857143,0.57,-0.6255,0.275333333333333,0.201,0,0,0,0,0,0,0,-0.3003375,-0.966,0.076325,-7.12,-0.475833333333333,-0.049,2.431,0.951466666666667,-0.398216666666667,0.057,4.53828571428571,-1.47214285714286,0.0695714285714285,418.212666666667,1,1,1,1
24-May-2018 14:41:09,322.333333333333,0.0908714285714286,-0.882571428571428,-0.389657142857143,0.57,-0.6255,0.275333333333333,0.201,0,0,0,0,0,0,0,-0.3003375,-0.966,0.076325,-7.12,-0.475833333333333,-0.049,2.431,0.951466666666667,-0.398216666666667,0.057,4.53828571428571,-1.47214285714286,0.0695714285714285,418.212666666667,1,1,1,1
24-May-2018 14:41:09,322.333333333333,0.0908714285714286,-0.882571428571428,-0.389657142857143,0.57,-0.6255,0.275333333333333,0.201,0,0,0,0,0,0,0,-0.3003375,-0.966,0.076325,-7.12,-0.475833333333333,-0.049,2.431,0.951466666666667,-0.398216666666667,0.057,4.53828571428571,-1.47214285714286,0.0695714285714285,418.212666666667,1,1,1,1
24-May-2018 14:41:10,241.5,0.0908714285714286,-0.882571428571428,-0.389657142857143,0.57,-0.6255,0.275333333333333,0.201,0,0,0,0,0,0,0,-0.348075,-0.9464,-0.041175,-2.3384,-0.9132,2.0248,2.28975,0.9508125,-0.4036625,0.0524,-2.42171428571429,1.91657142857143,-0.217857142857143,410.569,1,1,1,1
24-May-2018 14:41:10,241.5,0.0908714285714286,-0.882571428571428,-0.389657142857143,0.57,-0.6255,0.275333333333333,0.201,0,0,0,0,0,0,0,-0.348075,-0.9464,-0.041175,-2.3384,-0.9132,2.0248,2.28975,0.9508125,-0.4036625,0.0524,-2.42171428571429,1.91657142857143,-0.217857142857143,410.569,1,1,1,1
24-May-2018 14:41:10,241.5,0.0908714285714286,-0.882571428571428,-0.389657142857143,0.57,-0.6255,0.275333333333333,0.201,0,0,0,0,0,0,0,-0.348075,-0.9464,-0.041175,-2.3384,-0.9132,2.0248,2.28975,0.9508125,-0.4036625,0.0524,-2.42171428571429,1.91657142857143,-0.217857142857143,410.569,1,1,1,1
24-May-2018 14:41:10,241.5,0.0908714285714286,-0.882571428571428,-0.389657142857143,0.57,-0.6255,0.275333333333333,0.201,0,0,0,0,0,0,0,-0.348075,-0.9464,-0.041175,-2.3384,-0.9132,2.0248,2.28975,0.9508125,-0.4036625,0.0524,-2.42171428571429,1.91657142857143,-0.217857142857143,410.569,1,1,1,1
24-May-2018 14:41:11,182.4,0.0908714285714286,-0.882571428571428,-0.389657142857143,0.57,-0.6255,0.275333333333333,0.201,0,0,0,0,0,0,0,-0.298642857142857,-0.952585714285714,-0.0896714285714286,-5.6525,-14.3183333333333,-4.05083333333333,1.8708,0.946428571428571,-0.406757142857143,0.0627,-13.0895,7.632,-1.44316666666667,423.725333333333,1,1,1,1
24-May-2018 14:41:11,182.4,0.0908714285714286,-0.882571428571428,-0.389657142857143,0.57,-0.6255,0.275333333333333,0.201,0,0,0,0,0,0,0,-0.298642857142857,-0.952585714285714,-0.0896714285714286,-5.6525,-14.3183333333333,-4.05083333333333,1.8708,0.946428571428571,-0.406757142857143,0.0627,-13.0895,7.632,-1.44316666666667,423.725333333333,1,1,1,1
24-May-2018 14:41:11,182.4,0.0908714285714286,-0.882571428571428,-0.389657142857143,0.57,-0.6255,0.275333333333333,0.201,0,0,0,0,0,0,0,-0.298642857142857,-0.952585714285714,-0.0896714285714286,-5.6525,-14.3183333333333,-4.05083333333333,1.8708,0.946428571428571,-0.406757142857143,0.0627,-13.0895,7.632,-1.44316666666667,423.725333333333,1,1,1,1
24-May-2018 14:41:11,182.4,0.0908714285714286,-0.882571428571428,-0.389657142857143,0.57,-0.6255,0.275333333333333,0.201,0,0,0,0,0,0,0,-0.298642857142857,-0.952585714285714,-0.0896714285714286,-5.6525,-14.3183333333333,-4.05083333333333,1.8708,0.946428571428571,-0.406757142857143,0.0627,-13.0895,7.632,-1.44316666666667,423.725333333333,1,1,1,1
24-May-2018 14:41:12,141.4,0.0908714285714286,-0.882571428571428,-0.389657142857143,0.57,-0.6255,0.275333333333333,0.201,0,0,0,0,0,0,0,-0.291728571428571,-0.9576,-0.0737428571428571,0.463571428571429,3.84214285714286,0.516285714285714,1.638,0.9599,-0.378442857142857,0.105157142857143,0.5285,4.08533333333333,0.0713333333333333,460.718666666667,0,1,1,1
24-May-2018 14:41:12,141.4,0.0908714285714286,-0.882571428571428,-0.389657142857143,0.57,-0.6255,0.275333333333333,0.201,0,0,0,0,0,0,0,-0.291728571428571,-0.9576,-0.0737428571428571,0.463571428571429,3.84214285714286,0.516285714285714,1.638,0.9599,-0.378442857142857,0.105157142857143,0.5285,4.08533333333333,0.0713333333333333,460.718666666667,0,1,1,1
24-May-2018 14:41:12,141.4,0.0908714285714286,-0.882571428571428,-0.389657142857143,0.57,-0.6255,0.275333333333333,0.201,0,0,0,0,0,0,0,-0.291728571428571,-0.9576,-0.0737428571428571,0.463571428571429,3.84214285714286,0.516285714285714,1.638,0.9599,-0.378442857142857,0.105157142857143,0.5285,4.08533333333333,0.0713333333333333,460.718666666667,0,1,1,1
24-May-2018 14:41:12,141.4,0.0908714285714286,-0.882571428571428,-0.389657142857143,0.57,-0.6255,0.275333333333333,0.201,0,0,0,0,0,0,0,-0.291728571428571,-0.9576,-0.0737428571428571,0.463571428571429,3.84214285714286,0.516285714285714,1.638,0.9599,-0.378442857142857,0.105157142857143,0.5285,4.08533333333333,0.0713333333333333,460.718666666667,0,1,1,1
24-May-2018 14:41:13,112.9,0.0908714285714286,-0.882571428571428,-0.389657142857143,0.57,-0.6255,0.275333333333333,0.201,0,0,0,0,0,0,0,-0.28675,-0.962275,-0.063775,1.405,1.45333333333333,-0.0180000000000001,1.69875,0.9596,-0.36275,0.0733,25.16775,-14.398,0.929875,479.161,1,1,1,1
24-May-2018 14:41:13,112.9,0.0908714285714286,-0.882571428571428,-0.389657142857143,0.57,-0.6255,0.275333333333333,0.201,0,0,0,0,0,0,0,-0.28675,-0.962275,-0.063775,1.405,1.45333333333333,-0.0180000000000001,1.69875,0.9596,-0.36275,0.0733,25.16775,-14.398,0.929875,479.161,1,1,1,1
24-May-2018 14:41:13,112.9,0.0908714285714286,-0.882571428571428,-0.389657142857143,0.57,-0.6255,0.275333333333333,0.201,0,0,0,0,0,0,0,-0.28675,-0.962275,-0.063775,1.405,1.45333333333333,-0.0180000000000001,1.69875,0.9596,-0.36275,0.0733,25.16775,-14.398,0.929875,479.161,1,1,1,1
24-May-2018 14:41:13,112.9,0.0908714285714286,-0.882571428571428,-0.389657142857143,0.57,-0.6255,0.275333333333333,0.201,0,0,0,0,0,0,0,-0.28675,-0.962275,-0.063775,1.405,1.45333333333333,-0.0180000000000001,1.69875,0.9596,-0.36275,0.0733,25.16775,-14.398,0.929875,479.161,1,1,1,1
24-May-2018 14:41:14,94,0.0908714285714286,-0.882571428571428,-0.389657142857143,0.57,-0.6255,0.275333333333333,0.201,0,0,0,0,0,0,0,-0.312425,-0.96175,-0.010725,7.7438,12.508,1.8414,1.742,0.942625,-0.39785,0.048375,-4.09414285714286,4.19871428571429,0.679428571428571,397.5935,1,1,1,1
24-May-2018 14:41:14,94,0.0908714285714286,-0.882571428571428,-0.389657142857143,0.57,-0.6255,0.275333333333333,0.201,0,0,0,0,0,0,0,-0.312425,-0.96175,-0.010725,7.7438,12.508,1.8414,1.742,0.942625,-0.39785,0.048375,-4.09414285714286,4.19871428571429,0.679428571428571,397.5935,1,1,1,1
24-May-2018 14:41:14,94,0.0908714285714286,-0.882571428571428,-0.389657142857143,0.57,-0.6255,0.275333333333333,0.201,0,0,0,0,0,0,0,-0.312425,-0.96175,-0.010725,7.7438,12.508,1.8414,1.742,0.942625,-0.39785,0.048375,-4.09414285714286,4.19871428571429,0.679428571428571,397.5935,1,1,1,1
24-May-2018 14:41:14,94,0.0908714285714286,-0.882571428571428,-0.389657142857143,0.57,-0.6255,0.275333333333333,0.201,0,0,0,0,0,0,0,-0.312425,-0.96175,-0.010725,7.7438,12.508,1.8414,1.742,0.942625,-0.39785,0.048375,-4.09414285714286,4.19871428571429,0.679428571428571,397.5935,1,1,1,1
24-May-2018 14:41:15,80.9090909090909,0.0908714285714286,-0.882571428571428,-0.389657142857143,0.57,-0.6255,0.275333333333333,0.201,0,0,0,0,0,0,0,-0.3021,-0.96468,0.02436,-0.624,-1.27628571428571,-0.0941428571428571,2.253,0.961842857142857,-0.375271428571429,0.0587571428571429,-9.72911111111111,5.09488888888889,-0.63,408.1055,0,1,1,1
24-May-2018 14:41:15,80.9090909090909,0.0908714285714286,-0.882571428571428,-0.389657142857143,0.57,-0.6255,0.275333333333333,0.201,0,0,0,0,0,0,0,-0.3021,-0.96468,0.02436,-0.624,-1.27628571428571,-0.0941428571428571,2.253,0.961842857142857,-0.375271428571429,0.0587571428571429,-9.72911111111111,5.09488888888889,-0.63,408.1055,0,1,1,1
24-May-2018 14:41:15,80.9090909090909,0.0908714285714286,-0.882571428571428,-0.389657142857143,0.57,-0.6255,0.275333333333333,0.201,0,0,0,0,0,0,0,-0.3021,-0.96468,0.02436,-0.624,-1.27628571428571,-0.0941428571428571,2.253,0.961842857142857,-0.375271428571429,0.0587571428571429,-9.72911111111111,5.09488888888889,-0.63,408.1055,0,1,1,1
24-May-2018 14:41:15,80.9090909090909,0.0908714285714286,-0.882571428571428,-0.389657142857143,0.57,-0.6255,0.275333333333333,0.201,0,0,0,0,0,0,0,-0.3021,-0.96468,0.02436,-0.624,-1.27628571428571,-0.0941428571428571,2.253,0.961842857142857,-0.375271428571429,0.0587571428571429,-9.72911111111111,5.09488888888889,-0.63,408.1055,0,1,1,1
24-May-2018 14:41:16,71.375,0.0908714285714286,-0.882571428571428,-0.389657142857143,0.57,-0.6255,0.275333333333333,0.201,0,0,0,0,0,0,0,-0.31495,-0.957433333333333,-0.0291833333333333,-4.89628571428571,-2.94857142857143,-0.467714285714286,2.2345,0.9474625,-0.4146,0.0836625,2.20385714285714,0.200285714285714,-1.19342857142857,444.040333333333,0,1,1,1
24-May-2018 14:41:16,71.375,0.0908714285714286,-0.882571428571428,-0.389657142857143,0.57,-0.6255,0.275333333333333,0.201,0,0,0,0,0,0,0,-0.31495,-0.957433333333333,-0.0291833333333333,-4.89628571428571,-2.94857142857143,-0.467714285714286,2.2345,0.9474625,-0.4146,0.0836625,2.20385714285714,0.200285714285714,-1.19342857142857,444.040333333333,0,1,1,1
24-May-2018 14:41:16,71.375,0.0908714285714286,-0.882571428571428,-0.389657142857143,0.57,-0.6255,0.275333333333333,0.201,0,0,0,0,0,0,0,-0.31495,-0.957433333333333,-0.0291833333333333,-4.89628571428571,-2.94857142857143,-0.467714285714286,2.2345,0.9474625,-0.4146,0.0836625,2.20385714285714,0.200285714285714,-1.19342857142857,444.040333333333,0,1,1,1
24-May-2018 14:41:16,71.375,0.0908714285714286,-0.882571428571428,-0.389657142857143,0.57,-0.6255,0.275333333333333,0.201,0,0,0,0,0,0,0,-0.31495,-0.957433333333333,-0.0291833333333333,-4.89628571428571,-2.94857142857143,-0.467714285714286,2.2345,0.9474625,-0.4146,0.0836625,2.20385714285714,0.200285714285714,-1.19342857142857,444.040333333333,0,1,1,1
24-May-2018 14:41:17,66.6666666666667,0.0908714285714286,-0.882571428571428,-0.389657142857143,0.57,-0.6255,0.275333333333333,0.201,0,0,0,0,0,0,0,-0.31308,-0.95326,-0.07158,-0.392166666666667,-2.49616666666667,-0.87,2.0994,0.952083333333333,-0.3886,0.0833333333333333,1.58542857142857,-1.82928571428571,-2.19514285714286,450.733333333333,0,1,1,1
24-May-2018 14:41:17,66.6666666666667,0.0908714285714286,-0.882571428571428,-0.389657142857143,0.57,-0.6255,0.275333333333333,0.201,0,0,0,0,0,0,0,-0.31308,-0.95326,-0.07158,-0.392166666666667,-2.49616666666667,-0.87,2.0994,0.952083333333333,-0.3886,0.0833333333333333,1.58542857142857,-1.82928571428571,-2.19514285714286,450.733333333333,0,1,1,1
24-May-2018 14:41:17,66.6666666666667,0.0908714285714286,-0.882571428571428,-0.389657142857143,0.57,-0.6255,0.275333333333333,0.201,0,0,0,0,0,0,0,-0.31308,-0.95326,-0.07158,-0.392166666666667,-2.49616666666667,-0.87,2.0994,0.952083333333333,-0.3886,0.0833333333333333,1.58542857142857,-1.82928571428571,-2.19514285714286,450.733333333333,0,1,1,1
24-May-2018 14:41:17,66.6666666666667,0.0908714285714286,-0.882571428571428,-0.389657142857143,0.57,-0.6255,0.275333333333333,0.201,0,0,0,0,0,0,0,-0.31308,-0.95326,-0.07158,-0.392166666666667,-2.49616666666667,-0.87,2.0994,0.952083333333333,-0.3886,0.0833333333333333,1.58542857142857,-1.82928571428571,-2.19514285714286,450.733333333333,0,1,1,1
24-May-2018 14:41:18,60.8,0.0908714285714286,-0.882571428571428,-0.389657142857143,0.57,-0.6255,0.275333333333333,0.201,0,0,0,0,0,0,0,-0.30846,-0.95822,-0.03348,1.7075,0.824125,-0.417625,2.12266666666667,0.959142857142857,-0.374757142857143,0.0755142857142857,0.172666666666667,0.823,0.4675,435.744666666667,1,1,1,1
24-May-2018 14:41:18,60.8,0.0908714285714286,-0.882571428571428,-0.389657142857143,0.57,-0.6255,0.275333333333333,0.201,0,0,0,0,0,0,0,-0.30846,-0.95822,-0.03348,1.7075,0.824125,-0.417625,2.12266666666667,0.959142857142857,-0.374757142857143,0.0755142857142857,0.172666666666667,0.823,0.4675,435.744666666667,1,1,1,1
24-May-2018 14:41:18,60.8,0.0908714285714286,-0.882571428571428,-0.389657142857143,0.57,-0.6255,0.275333333333333,0.201,0,0,0,0,0,0,0,-0.30846,-0.95822,-0.03348,1.7075,0.824125,-0.417625,2.12266666666667,0.959142857142857,-0.374757142857143,0.0755142857142857,0.172666666666667,0.823,0.4675,435.744666666667,1,1,1,1
24-May-2018 14:41:18,60.8,0.0908714285714286,-0.882571428571428,-0.389657142857143,0.57,-0.6255,0.275333333333333,0.201,0,0,0,0,0,0,0,-0.30846,-0.95822,-0.03348,1.7075,0.824125,-0.417625,2.12266666666667,0.959142857142857,-0.374757142857143,0.0755142857142857,0.172666666666667,0.823,0.4675,435.744666666667,1,1,1,1
24-May-2018 14:41:19,110.3,0.0908714285714286,-0.882571428571428,-0.389657142857143,0.57,-0.6255,0.275333333333333,0.201,0,0,0,0,0,0,0,-0.30972,-0.96014,-0.01632,-0.638,-1.15516666666667,0.0323333333333333,2.1596,0.949733333333333,-0.388416666666667,0.0865,0.749142857142857,-0.200285714285714,0.287571428571429,443.217,1,1,1,1
24-May-2018 14:41:19,110.3,0.0908714285714286,-0.882571428571428,-0.389657142857143,0.57,-0.6255,0.275333333333333,0.201,0,0,0,0,0,0,0,-0.30972,-0.96014,-0.01632,-0.638,-1.15516666666667,0.0323333333333333,2.1596,0.949733333333333,-0.388416666666667,0.0865,0.749142857142857,-0.200285714285714,0.287571428571429,443.217,1,1,1,1
24-May-2018 14:41:19,110.3,0.0908714285714286,-0.882571428571428,-0.389657142857143,0.57,-0.6255,0.275333333333333,0.201,0,0,0,0,0,0,0,-0.30972,-0.96014,-0.01632,-0.638,-1.15516666666667,0.0323333333333333,2.1596,0.949733333333333,-0.388416666666667,0.0865,0.749142857142857,-0.200285714285714,0.287571428571429,443.217,1,1,1,1
24-May-2018 14:41:19,110.3,0.0908714285714286,-0.882571428571428,-0.389657142857143,0.57,-0.6255,0.275333333333333,0.201,0,0,0,0,0,0,0,-0.30972,-0.96014,-0.01632,-0.638,-1.15516666666667,0.0323333333333333,2.1596,0.949733333333333,-0.388416666666667,0.0865,0.749142857142857,-0.200285714285714,0.287571428571429,443.217,1,1,1,1
24-May-2018 14:41:20,52.7777777777778,0.0908714285714286,-0.882571428571428,-0.389657142857143,0.57,-0.6255,0.275333333333333,0.201,0,0,0,0,0,0,0,-0.309657142857143,-0.958542857142857,-0.0310714285714286,-1.522,-2.24,-0.6078,2.154,0.955133333333333,-0.39625,0.0749166666666667,1.41985714285714,-1.01928571428571,-0.818857142857143,441.77175,1,1,1,1
24-May-2018 14:41:20,52.7777777777778,0.0908714285714286,-0.882571428571428,-0.389657142857143,0.57,-0.6255,0.275333333333333,0.201,0,0,0,0,0,0,0,-0.309657142857143,-0.958542857142857,-0.0310714285714286,-1.522,-2.24,-0.6078,2.154,0.955133333333333,-0.39625,0.0749166666666667,1.41985714285714,-1.01928571428571,-0.818857142857143,441.77175,1,1,1,1
24-May-2018 14:41:20,52.7777777777778,0.0908714285714286,-0.882571428571428,-0.389657142857143,0.57,-0.6255,0.275333333333333,0.201,0,0,0,0,0,0,0,-0.309657142857143,-0.958542857142857,-0.0310714285714286,-1.522,-2.24,-0.6078,2.154,0.955133333333333,-0.39625,0.0749166666666667,1.41985714285714,-1.01928571428571,-0.818857142857143,441.77175,1,1,1,1
24-May-2018 14:41:20,52.7777777777778,0.0908714285714286,-0.882571428571428,-0.389657142857143,0.57,-0.6255,0.275333333333333,0.201,0,0,0,0,0,0,0,-0.309657142857143,-0.958542857142857,-0.0310714285714286,-1.522,-2.24,-0.6078,2.154,0.955133333333333,-0.39625,0.0749166666666667,1.41985714285714,-1.01928571428571,-0.818857142857143,441.77175,1,1,1,1
24-May-2018 14:41:21,265.3,0.0908714285714286,-0.882571428571428,-0.389657142857143,0.57,-0.6255,0.275333333333333,0.201,0,0,0,0,0,0,0,-0.27142,-0.96062,-0.09722,-6.55233333333333,-12.8583333333333,-2.6495,1.995,0.96365,-0.371533333333333,0.04475,1.88,-0.548833333333333,-2.77555756156289e-17,424.8725,1,1,1,1
24-May-2018 14:41:21,265.3,0.0908714285714286,-0.882571428571428,-0.389657142857143,0.57,-0.6255,0.275333333333333,0.201,0,0,0,0,0,0,0,-0.27142,-0.96062,-0.09722,-6.55233333333333,-12.8583333333333,-2.6495,1.995,0.96365,-0.371533333333333,0.04475,1.88,-0.548833333333333,-2.77555756156289e-17,424.8725,1,1,1,1
24-May-2018 14:41:21,265.3,0.0908714285714286,-0.882571428571428,-0.389657142857143,0.57,-0.6255,0.275333333333333,0.201,0,0,0,0,0,0,0,-0.27142,-0.96062,-0.09722,-6.55233333333333,-12.8583333333333,-2.6495,1.995,0.96365,-0.371533333333333,0.04475,1.88,-0.548833333333333,-2.77555756156289e-17,424.8725,1,1,1,1
24-May-2018 14:41:21,265.3,0.0908714285714286,-0.882571428571428,-0.389657142857143,0.57,-0.6255,0.275333333333333,0.201,0,0,0,0,0,0,0,-0.27142,-0.96062,-0.09722,-6.55233333333333,-12.8583333333333,-2.6495,1.995,0.96365,-0.371533333333333,0.04475,1.88,-0.548833333333333,-2.77555756156289e-17,424.8725,1,1,1,1
24-May-2018 14:41:22,12.9,0.0908714285714286,-0.882571428571428,-0.389657142857143,0.57,-0.6255,0.275333333333333,0.201,0,0,0,0,0,0,0,-0.288966666666667,-0.95755,-0.0806166666666667,4.3414,2.7332,0.927,1.6025,0.953014285714286,-0.389142857142857,0.0912857142857143,-11.1932857142857,8.397,-0.722857142857143,440.7085,1,1,1,1
24-May-2018 14:41:22,12.9,0.0908714285714286,-0.882571428571428,-0.389657142857143,0.57,-0.6255,0.275333333333333,0.201,0,0,0,0,0,0,0,-0.288966666666667,-0.95755,-0.0806166666666667,4.3414,2.7332,0.927,1.6025,0.953014285714286,-0.389142857142857,0.0912857142857143,-11.1932857142857,8.397,-0.722857142857143,440.7085,1,1,1,1
24-May-2018 14:41:22,12.9,0.0908714285714286,-0.882571428571428,-0.389657142857143,0.57,-0.6255,0.275333333333333,0.201,0,0,0,0,0,0,0,-0.288966666666667,-0.95755,-0.0806166666666667,4.3414,2.7332,0.927,1.6025,0.953014285714286,-0.389142857142857,0.0912857142857143,-11.1932857142857,8.397,-0.722857142857143,440.7085,1,1,1,1
24-May-2018 14:41:22,12.9,0.0908714285714286,-0.882571428571428,-0.389657142857143,0.57,-0.6255,0.275333333333333,0.201,0,0,0,0,0,0,0,-0.288966666666667,-0.95755,-0.0806166666666667,4.3414,2.7332,0.927,1.6025,0.953014285714286,-0.389142857142857,0.0912857142857143,-11.1932857142857,8.397,-0.722857142857143,440.7085,1,1,1,1
24-May-2018 14:41:23,31.8888888888889,0.0908714285714286,-0.882571428571428,-0.389657142857143,0.57,-0.6255,0.275333333333333,0.201,0,0,0,0,0,0,0,-0.2996,-0.961628571428571,-0.0325285714285714,-1.07366666666667,-0.526166666666667,0.914666666666667,1.70925,0.953157142857143,-0.389685714285714,0.111957142857143,-0.984428571428572,0.0958571428571428,-0.0958571428571429,440.7085,0,1,1,1
24-May-2018 14:41:23,31.8888888888889,0.0908714285714286,-0.882571428571428,-0.389657142857143,0.57,-0.6255,0.275333333333333,0.201,0,0,0,0,0,0,0,-0.2996,-0.961628571428571,-0.0325285714285714,-1.07366666666667,-0.526166666666667,0.914666666666667,1.70925,0.953157142857143,-0.389685714285714,0.111957142857143,-0.984428571428572,0.0958571428571428,-0.0958571428571429,440.7085,0,1,1,1
24-May-2018 14:41:23,31.8888888888889,0.0908714285714286,-0.882571428571428,-0.389657142857143,0.57,-0.6255,0.275333333333333,0.201,0,0,0,0,0,0,0,-0.2996,-0.961628571428571,-0.0325285714285714,-1.07366666666667,-0.526166666666667,0.914666666666667,1.70925,0.953157142857143,-0.389685714285714,0.111957142857143,-0.984428571428572,0.0958571428571428,-0.0958571428571429,440.7085,0,1,1,1
24-May-2018 14:41:23,31.8888888888889,0.0908714285714286,-0.882571428571428,-0.389657142857143,0.57,-0.6255,0.275333333333333,0.201,0,0,0,0,0,0,0,-0.2996,-0.961628571428571,-0.0325285714285714,-1.07366666666667,-0.526166666666667,0.914666666666667,1.70925,0.953157142857143,-0.389685714285714,0.111957142857143,-0.984428571428572,0.0958571428571428,-0.0958571428571429,0,0,1,1,1
24-May-2018 14:41:24,128,0.0908714285714286,-0.882571428571428,-0.389657142857143,0.57,-0.6255,0.275333333333333,0.201,0,0,0,0,0,0,0,-0.31886,-0.9525,-0.0579,0.7235,3.354,0.955333333333333,1.7285,0.945985714285714,-0.397571428571429,0.0671,3.23171428571429,-2.91828571428571,-0.357285714285714,487.5885,1,1,1,1
24-May-2018 14:41:24,128,0.0908714285714286,-0.882571428571428,-0.389657142857143,0.57,-0.6255,0.275333333333333,0.201,0,0,0,0,0,0,0,-0.31886,-0.9525,-0.0579,0.7235,3.354,0.955333333333333,1.7285,0.945985714285714,-0.397571428571429,0.0671,3.23171428571429,-2.91828571428571,-0.357285714285714,487.5885,1,1,1,1
24-May-2018 14:41:24,128,0.0908714285714286,-0.882571428571428,-0.389657142857143,0.57,-0.6255,0.275333333333333,0.201,0,0,0,0,0,0,0,-0.31886,-0.9525,-0.0579,0.7235,3.354,0.955333333333333,1.7285,0.945985714285714,-0.397571428571429,0.0671,3.23171428571429,-2.91828571428571,-0.357285714285714,487.5885,1,1,1,1
24-May-2018 14:41:24,128,0.0908714285714286,-0.882571428571428,-0.389657142857143,0.57,-0.6255,0.275333333333333,0.201,0,0,0,0,0,0,0,-0.31886,-0.9525,-0.0579,0.7235,3.354,0.955333333333333,1.7285,0.945985714285714,-0.397571428571429,0.0671,3.23171428571429,-2.91828571428571,-0.357285714285714,487.5885,1,1,1,1
24-May-2018 14:41:25,115,0.0908714285714286,-0.882571428571428,-0.389657142857143,0.57,-0.6255,0.275333333333333,0.201,0,0,0,0,0,0,0,-0.314471428571429,-0.956271428571428,-0.0421571428571429,-0.757166666666667,-2.10066666666667,-0.180833333333333,1.794,0.958875,-0.3871625,0.02865,27.3475,-11.509,1.806375,394.147,0,1,1,1
24-May-2018 14:41:25,115,0.0908714285714286,-0.882571428571428,-0.389657142857143,0.57,-0.6255,0.275333333333333,0.201,0,0,0,0,0,0,0,-0.314471428571429,-0.956271428571428,-0.0421571428571429,-0.757166666666667,-2.10066666666667,-0.180833333333333,1.794,0.958875,-0.3871625,0.02865,27.3475,-11.509,1.806375,394.147,0,1,1,1
24-May-2018 14:41:25,115,0.0908714285714286,-0.882571428571428,-0.389657142857143,0.57,-0.6255,0.275333333333333,0.201,0,0,0,0,0,0,0,-0.314471428571429,-0.956271428571428,-0.0421571428571429,-0.757166666666667,-2.10066666666667,-0.180833333333333,1.794,0.958875,-0.3871625,0.02865,27.3475,-11.509,1.806375,394.147,0,1,1,1
24-May-2018 14:41:25,115,0.0908714285714286,-0.882571428571428,-0.389657142857143,0.57,-0.6255,0.275333333333333,0.201,0,0,0,0,0,0,0,-0.314471428571429,-0.956271428571428,-0.0421571428571429,-0.757166666666667,-2.10066666666667,-0.180833333333333,1.794,0.958875,-0.3871625,0.02865,27.3475,-11.509,1.806375,394.147,0,1,1,1
24-May-2018 14:41:26,78,0.0908714285714286,-0.882571428571428,-0.389657142857143,0.57,-0.6255,0.275333333333333,0.201,0,0,0,0,0,0,0,-0.326014285714286,-0.952042857142857,-0.0468428571428571,-0.8624,-0.2642,-0.3152,1.805,0.9488875,-0.4021,0.046675,-5.59228571428571,3.519,0.104714285714286,398.865666666667,0,1,1,1
24-May-2018 14:41:26,78,0.0908714285714286,-0.882571428571428,-0.389657142857143,0.57,-0.6255,0.275333333333333,0.201,0,0,0,0,0,0,0,-0.326014285714286,-0.952042857142857,-0.0468428571428571,-0.8624,-0.2642,-0.3152,1.805,0.9488875,-0.4021,0.046675,-5.59228571428571,3.519,0.104714285714286,398.865666666667,0,1,1,1
24-May-2018 14:41:26,78,0.0908714285714286,-0.882571428571428,-0.389657142857143,0.57,-0.6255,0.275333333333333,0.201,0,0,0,0,0,0,0,-0.326014285714286,-0.952042857142857,-0.0468428571428571,-0.8624,-0.2642,-0.3152,1.805,0.9488875,-0.4021,0.046675,-5.59228571428571,3.519,0.104714285714286,398.865666666667,0,1,1,1
24-May-2018 14:41:26,78,0.0908714285714286,-0.882571428571428,-0.389657142857143,0.57,-0.6255,0.275333333333333,0.201,0,0,0,0,0,0,0,-0.326014285714286,-0.952042857142857,-0.0468428571428571,-0.8624,-0.2642,-0.3152,1.805,0.9488875,-0.4021,0.046675,-5.59228571428571,3.519,0.104714285714286,398.865666666667,0,1,1,1
24-May-2018 14:41:27,-25.8,0.0908714285714286,-0.882571428571428,-0.389657142857143,0.57,-0.6255,0.275333333333333,0.201,0,0,0,0,0,0,0,-0.2935,-0.9597,-0.0693666666666667,0.735166666666667,10.7501666666667,-1.379,1.884,0.950742857142857,-0.414871428571429,0.0440428571428571,-3.83285714285714,1.86414285714286,-0.392,398.865666666667,0,1,1,1
24-May-2018 14:41:27,-25.8,0.0908714285714286,-0.882571428571428,-0.389657142857143,0.57,-0.6255,0.275333333333333,0.201,0,0,0,0,0,0,0,-0.2935,-0.9597,-0.0693666666666667,0.735166666666667,10.7501666666667,-1.379,1.884,0.950742857142857,-0.414871428571429,0.0440428571428571,-3.83285714285714,1.86414285714286,-0.392,398.865666666667,0,1,1,1
24-May-2018 14:41:27,-25.8,0.0908714285714286,-0.882571428571428,-0.389657142857143,0.57,-0.6255,0.275333333333333,0.201,0,0,0,0,0,0,0,-0.2935,-0.9597,-0.0693666666666667,0.735166666666667,10.7501666666667,-1.379,1.884,0.950742857142857,-0.414871428571429,0.0440428571428571,-3.83285714285714,1.86414285714286,-0.392,398.865666666667,0,1,1,1
24-May-2018 14:41:27,-25.8,0.0908714285714286,-0.882571428571428,-0.389657142857143,0.57,-0.6255,0.275333333333333,0.201,0,0,0,0,0,0,0,-0.2935,-0.9597,-0.0693666666666667,0.735166666666667,10.7501666666667,-1.379,1.884,0.950742857142857,-0.414871428571429,0.0440428571428571,-3.83285714285714,1.86414285714286,-0.392,0,0,1,1,1
24-May-2018 14:41:28,129,0.0908714285714286,-0.882571428571428,-0.389657142857143,0.57,-0.6255,0.275333333333333,0.201,0,0,0,0,0,0,0,-0.30352,-0.96522,0.05658,10.9275,4.5425,3.04875,2.3416,0.9489,-0.403583333333333,0.0547666666666667,-16.8295714285714,8.89371428571429,-2.00357142857143,426.3185,0,1,1,1
24-May-2018 14:41:28,129,0.0908714285714286,-0.882571428571428,-0.389657142857143,0.57,-0.6255,0.275333333333333,0.201,0,0,0,0,0,0,0,-0.30352,-0.96522,0.05658,10.9275,4.5425,3.04875,2.3416,0.9489,-0.403583333333333,0.0547666666666667,-16.8295714285714,8.89371428571429,-2.00357142857143,426.3185,0,1,1,1
24-May-2018 14:41:28,129,0.0908714285714286,-0.882571428571428,-0.389657142857143,0.57,-0.6255,0.275333333333333,0.201,0,0,0,0,0,0,0,-0.30352,-0.96522,0.05658,10.9275,4.5425,3.04875,2.3416,0.9489,-0.403583333333333,0.0547666666666667,-16.8295714285714,8.89371428571429,-2.00357142857143,426.3185,0,1,1,1
24-May-2018 14:41:28,129,0.0908714285714286,-0.882571428571428,-0.389657142857143,0.57,-0.6255,0.275333333333333,0.201,0,0,0,0,0,0,0,-0.30352,-0.96522,0.05658,10.9275,4.5425,3.04875,2.3416,0.9489,-0.403583333333333,0.0547666666666667,-16.8295714285714,8.89371428571429,-2.00357142857143,426.3185,0,1,1,1
24-May-2018 14:41:29,179.666666666667,0.0908714285714286,-0.882571428571428,-0.389657142857143,0.57,-0.6255,0.275333333333333,0.201,0,0,0,0,0,0,0,-0.3015,-0.9637,0.1771,4.313,-11.62,0.10775,2.702,0.966533333333333,-0.366233333333333,0.0623666666666667,0.914666666666667,-0.406333333333333,0.0813333333333333,426.3185,0,1,1,1
24-May-2018 14:41:29,179.666666666667,0.0908714285714286,-0.882571428571428,-0.389657142857143,0.57,-0.6255,0.275333333333333,0.201,0,0,0,0,0,0,0,-0.3015,-0.9637,0.1771,4.313,-11.62,0.10775,2.702,0.966533333333333,-0.366233333333333,0.0623666666666667,0.914666666666667,-0.406333333333333,0.0813333333333333,426.3185,0,1,1,1
24-May-2018 14:41:29,179.666666666667,0.0908714285714286,-0.882571428571428,-0.389657142857143,0.57,-0.6255,0.275333333333333,0.201,0,0,0,0,0,0,0,-0.3015,-0.9637,0.1771,4.313,-11.62,0.10775,2.702,0.966533333333333,-0.366233333333333,0.0623666666666667,0.914666666666667,-0.406333333333333,0.0813333333333333,426.3185,0,1,1,1
24-May-2018 14:41:29,179.666666666667,0.0908714285714286,-0.882571428571428,-0.389657142857143,0.57,-0.6255,0.275333333333333,0.201,0,0,0,0,0,0,0,-0.3015,-0.9637,0.1771,4.313,-11.62,0.10775,2.702,0.966533333333333,-0.366233333333333,0.0623666666666667,0.914666666666667,-0.406333333333333,0.0813333333333333,0,0,1,1,1
24-May-2018 14:41:30,148,0.0908714285714286,-0.882571428571428,-0.389657142857143,0.57,-0.6255,0.275333333333333,0.201,0,0,0,0,0,0,0,-0.296675,-0.963475,0.185575,2.378,0.874333333333333,-1.36,2.6275,0.955433333333333,-0.378266666666667,0.0613,-0.996,0.0405000000000001,0.426666666666667,477.826,1,1,1,1
24-May-2018 14:41:30,148,0.0908714285714286,-0.882571428571428,-0.389657142857143,0.57,-0.6255,0.275333333333333,0.201,0,0,0,0,0,0,0,-0.296675,-0.963475,0.185575,2.378,0.874333333333333,-1.36,2.6275,0.955433333333333,-0.378266666666667,0.0613,-0.996,0.0405000000000001,0.426666666666667,477.826,1,1,1,1
24-May-2018 14:41:30,148,0.0908714285714286,-0.882571428571428,-0.389657142857143,0.57,-0.6255,0.275333333333333,0.201,0,0,0,0,0,0,0,-0.296675,-0.963475,0.185575,2.378,0.874333333333333,-1.36,2.6275,0.955433333333333,-0.378266666666667,0.0613,-0.996,0.0405000000000001,0.426666666666667,477.826,1,1,1,1
24-May-2018 14:41:30,148,0.0908714285714286,-0.882571428571428,-0.389657142857143,0.57,-0.6255,0.275333333333333,0.201,0,0,0,0,0,0,0,-0.296675,-0.963475,0.185575,2.378,0.874333333333333,-1.36,2.6275,0.955433333333333,-0.378266666666667,0.0613,-0.996,0.0405000000000001,0.426666666666667,477.826,1,1,1,1
24-May-2018 14:41:31,251.8,0.0908714285714286,-0.882571428571428,-0.389657142857143,0.57,-0.6255,0.275333333333333,0.201,0,0,0,0,0,0,0,-0.31094,-0.95622,0.19168,-1.654,-1.448,1.3414,2.71933333333333,0.9541,-0.401328571428571,0.0567142857142857,3.10966666666667,-0.142333333333333,0.731833333333333,478.718,0,1,1,1
24-May-2018 14:41:31,251.8,0.0908714285714286,-0.882571428571428,-0.389657142857143,0.57,-0.6255,0.275333333333333,0.201,0,0,0,0,0,0,0,-0.31094,-0.95622,0.19168,-1.654,-1.448,1.3414,2.71933333333333,0.9541,-0.401328571428571,0.0567142857142857,3.10966666666667,-0.142333333333333,0.731833333333333,478.718,0,1,1,1
24-May-2018 14:41:31,251.8,0.0908714285714286,-0.882571428571428,-0.389657142857143,0.57,-0.6255,0.275333333333333,0.201,0,0,0,0,0,0,0,-0.31094,-0.95622,0.19168,-1.654,-1.448,1.3414,2.71933333333333,0.9541,-0.401328571428571,0.0567142857142857,3.10966666666667,-0.142333333333333,0.731833333333333,478.718,0,1,1,1
24-May-2018 14:41:31,251.8,0.0908714285714286,-0.882571428571428,-0.389657142857143,0.57,-0.6255,0.275333333333333,0.201,0,0,0,0,0,0,0,-0.31094,-0.95622,0.19168,-1.654,-1.448,1.3414,2.71933333333333,0.9541,-0.401328571428571,0.0567142857142857,3.10966666666667,-0.142333333333333,0.731833333333333,478.718,0,1,1,1
24-May-2018 14:41:32,0.6,0.0908714285714286,-0.882571428571428,-0.389657142857143,0.57,-0.6255,0.275333333333333,0.201,0,0,0,0,0,0,0,-0.341557142857143,-0.954028571428571,0.1379,-5.56857142857143,0.105857142857143,0.628571428571429,2.77825,0.955457142857143,-0.390828571428571,0.0500857142857143,2.568625,-0.419125,-0.61,456.645,0,1,1,1
24-May-2018 14:41:32,0.6,0.0908714285714286,-0.882571428571428,-0.389657142857143,0.57,-0.6255,0.275333333333333,0.201,0,0,0,0,0,0,0,-0.341557142857143,-0.954028571428571,0.1379,-5.56857142857143,0.105857142857143,0.628571428571429,2.77825,0.955457142857143,-0.390828571428571,0.0500857142857143,2.568625,-0.419125,-0.61,456.645,0,1,1,1
24-May-2018 14:41:32,0.6,0.0908714285714286,-0.882571428571428,-0.389657142857143,0.57,-0.6255,0.275333333333333,0.201,0,0,0,0,0,0,0,-0.341557142857143,-0.954028571428571,0.1379,-5.56857142857143,0.105857142857143,0.628571428571429,2.77825,0.955457142857143,-0.390828571428571,0.0500857142857143,2.568625,-0.419125,-0.61,456.645,0,1,1,1
24-May-2018 14:41:32,0.6,0.0908714285714286,-0.882571428571428,-0.389657142857143,0.57,-0.6255,0.275333333333333,0.201,0,0,0,0,0,0,0,-0.341557142857143,-0.954028571428571,0.1379,-5.56857142857143,0.105857142857143,0.628571428571429,2.77825,0.955457142857143,-0.390828571428571,0.0500857142857143,2.568625,-0.419125,-0.61,456.645,0,1,1,1
24-May-2018 14:41:33,20.3636363636364,0.0908714285714286,-0.882571428571428,-0.389657142857143,0.57,-0.6255,0.275333333333333,0.201,0,0,0,0,0,0,0,-0.3537,-0.95075,0.104283333333333,1.32233333333333,-0.658666666666667,0.267,2.6836,0.95685,-0.387833333333333,0.0587833333333333,-2.11125,1.79125,-2.77555756156289e-17,461.486333333333,0,1,1,1
24-May-2018 14:41:33,20.3636363636364,0.0908714285714286,-0.882571428571428,-0.389657142857143,0.57,-0.6255,0.275333333333333,0.201,0,0,0,0,0,0,0,-0.3537,-0.95075,0.104283333333333,1.32233333333333,-0.658666666666667,0.267,2.6836,0.95685,-0.387833333333333,0.0587833333333333,-2.11125,1.79125,-2.77555756156289e-17,461.486333333333,0,1,1,1
24-May-2018 14:41:33,20.3636363636364,0.0908714285714286,-0.882571428571428,-0.389657142857143,0.57,-0.6255,0.275333333333333,0.201,0,0,0,0,0,0,0,-0.3537,-0.95075,0.104283333333333,1.32233333333333,-0.658666666666667,0.267,2.6836,0.95685,-0.387833333333333,0.0587833333333333,-2.11125,1.79125,-2.77555756156289e-17,461.486333333333,0,1,1,1
24-May-2018 14:41:33,20.3636363636364,0.0908714285714286,-0.882571428571428,-0.389657142857143,0.57,-0.6255,0.275333333333333,0.201,0,0,0,0,0,0,0,-0.3537,-0.95075,0.104283333333333,1.32233333333333,-0.658666666666667,0.267,2.6836,0.95685,-0.387833333333333,0.0587833333333333,-2.11125,1.79125,-2.77555756156289e-17,461.486333333333,0,1,1,1
24-May-2018 14:41:34,-63.7272727272727,0.0908714285714286,-0.882571428571428,-0.389657142857143,0.57,-0.6255,0.275333333333333,0.201,0,0,0,0,0,0,0,-0.352033333333333,-0.949333333333333,0.14175,0.664428571428571,-0.196714285714286,-0.179428571428571,2.7904,0.954,-0.392485714285714,0.0604142857142857,2.29957142857143,-0.296285714285714,0.392142857142857,473.202666666667,0,1,1,1
24-May-2018 14:41:34,-63.7272727272727,0.0908714285714286,-0.882571428571428,-0.389657142857143,0.57,-0.6255,0.275333333333333,0.201,0,0,0,0,0,0,0,-0.352033333333333,-0.949333333333333,0.14175,0.664428571428571,-0.196714285714286,-0.179428571428571,2.7904,0.954,-0.392485714285714,0.0604142857142857,2.29957142857143,-0.296285714285714,0.392142857142857,473.202666666667,0,1,1,1
24-May-2018 14:41:34,-63.7272727272727,0.0908714285714286,-0.882571428571428,-0.389657142857143,0.57,-0.6255,0.275333333333333,0.201,0,0,0,0,0,0,0,-0.352033333333333,-0.949333333333333,0.14175,0.664428571428571,-0.196714285714286,-0.179428571428571,2.7904,0.954,-0.392485714285714,0.0604142857142857,2.29957142857143,-0.296285714285714,0.392142857142857,473.202666666667,0,1,1,1
24-May-2018 14:41:34,-63.7272727272727,0.0908714285714286,-0.882571428571428,-0.389657142857143,0.57,-0.6255,0.275333333333333,0.201,0,0,0,0,0,0,0,-0.352033333333333,-0.949333333333333,0.14175,0.664428571428571,-0.196714285714286,-0.179428571428571,2.7904,0.954,-0.392485714285714,0.0604142857142857,2.29957142857143,-0.296285714285714,0.392142857142857,473.202666666667,0,1,1,1
24-May-2018 14:41:35,82.9,0.0908714285714286,-0.882571428571428,-0.389657142857143,0.57,-0.6255,0.275333333333333,0.201,0,0,0,0,0,0,0,-0.347183333333333,-0.948866666666667,0.13785,-0.638,-1.26666666666667,-0.88,2.7778,0.947,-0.406133333333333,0.0454333333333333,25.8414,-10.3294,2.2682,454.650857142857,1,1,1,1
24-May-2018 14:41:35,82.9,0.0908714285714286,-0.882571428571428,-0.389657142857143,0.57,-0.6255,0.275333333333333,0.201,0,0,0,0,0,0,0,-0.347183333333333,-0.948866666666667,0.13785,-0.638,-1.26666666666667,-0.88,2.7778,0.947,-0.406133333333333,0.0454333333333333,25.8414,-10.3294,2.2682,454.650857142857,1,1,1,1
24-May-2018 14:41:35,82.9,0.0908714285714286,-0.882571428571428,-0.389657142857143,0.57,-0.6255,0.275333333333333,0.201,0,0,0,0,0,0,0,-0.347183333333333,-0.948866666666667,0.13785,-0.638,-1.26666666666667,-0.88,2.7778,0.947,-0.406133333333333,0.0454333333333333,25.8414,-10.3294,2.2682,454.650857142857,1,1,1,1
24-May-2018 14:41:35,82.9,0.0908714285714286,-0.882571428571428,-0.389657142857143,0.57,-0.6255,0.275333333333333,0.201,0,0,0,0,0,0,0,-0.347183333333333,-0.948866666666667,0.13785,-0.638,-1.26666666666667,-0.88,2.7778,0.947,-0.406133333333333,0.0454333333333333,25.8414,-10.3294,2.2682,454.650857142857,1,1,1,1
24-May-2018 14:41:36,13.375,0.0908714285714286,-0.882571428571428,-0.389657142857143,0.57,-0.6255,0.275333333333333,0.201,0,0,0,0,0,0,0,-0.338114285714286,-0.950714285714286,0.160885714285714,0.95375,-0.3865,-0.226,2.822,0.951025,-0.397975,0.031775,-0.843666666666666,0.376,-0.752,400.276,1,1,1,1
24-May-2018 14:41:36,13.375,0.0908714285714286,-0.882571428571428,-0.389657142857143,0.57,-0.6255,0.275333333333333,0.201,0,0,0,0,0,0,0,-0.338114285714286,-0.950714285714286,0.160885714285714,0.95375,-0.3865,-0.226,2.822,0.951025,-0.397975,0.031775,-0.843666666666666,0.376,-0.752,400.276,1,1,1,1
24-May-2018 14:41:36,13.375,0.0908714285714286,-0.882571428571428,-0.389657142857143,0.57,-0.6255,0.275333333333333,0.201,0,0,0,0,0,0,0,-0.338114285714286,-0.950714285714286,0.160885714285714,0.95375,-0.3865,-0.226,2.822,0.951025,-0.397975,0.031775,-0.843666666666666,0.376,-0.752,400.276,1,1,1,1
24-May-2018 14:41:36,13.375,0.0908714285714286,-0.882571428571428,-0.389657142857143,0.57,-0.6255,0.275333333333333,0.201,0,0,0,0,0,0,0,-0.338114285714286,-0.950714285714286,0.160885714285714,0.95375,-0.3865,-0.226,2.822,0.951025,-0.397975,0.031775,-0.843666666666666,0.376,-0.752,400.276,1,1,1,1
24-May-2018 14:41:37,-14,0.0908714285714286,-0.882571428571428,-0.389657142857143,0.57,-0.6255,0.275333333333333,0.201,0,0,0,0,0,0,0,-0.319916666666667,-0.95385,0.162333333333333,-12.605,-18.70625,-1.962875,2.77575,0.9497,-0.401033333333333,0.0511,0.4024,0.939,0.0486,407.078,1,1,0,1
24-May-2018 14:41:37,-14,0.0908714285714286,-0.882571428571428,-0.389657142857143,0.57,-0.6255,0.275333333333333,0.201,0,0,0,0,0,0,0,-0.319916666666667,-0.95385,0.162333333333333,-12.605,-18.70625,-1.962875,2.77575,0.9497,-0.401033333333333,0.0511,0.4024,0.939,0.0486,407.078,1,1,0,1
24-May-2018 14:41:37,-14,0.0908714285714286,-0.882571428571428,-0.389657142857143,0.57,-0.6255,0.275333333333333,0.201,0,0,0,0,0,0,0,-0.319916666666667,-0.95385,0.162333333333333,-12.605,-18.70625,-1.962875,2.77575,0.9497,-0.401033333333333,0.0511,0.4024,0.939,0.0486,407.078,1,1,0,1
24-May-2018 14:41:37,-14,0.0908714285714286,-0.882571428571428,-0.389657142857143,0.57,-0.6255,0.275333333333333,0.201,0,0,0,0,0,0,0,-0.319916666666667,-0.95385,0.162333333333333,-12.605,-18.70625,-1.962875,2.77575,0.9497,-0.401033333333333,0.0511,0.4024,0.939,0.0486,407.078,1,1,0,1
