TIME,HELMET_RAW,BELT_ACC_X,BELT_ACC_Y,BELT_ACC_Z,BELT_ANG_X,BELT_ANG_Y,BELT_ANG_Z,BELT_LUMINOSITY,NECK_ACC_X,NECK_ACC_Y,NECK_ACC_Z,NECK_ANG_X,NECK_ANG_Y,NECK_ANG_Z,NECK_LUMINOSITY,PCKT_ACC_X,PCKT_ACC_Y,PCKT_ACC_Z,PCKT_ANG_X,PCKT_ANG_Y,PCKT_ANG_Z,PCKT_LUMINOSITY,WRST_ACC_X,WRST_ACC_Y,WRST_ACC_Z,WRST_ANG_X,WRST_ANG_Y,WRST_ANG_Z,WRST_LUMINOSITY,IR_1,IR_2,IR_3,IR_4
24-May-2018 14:41:38,-33.5454545454545,0.0908714285714286,-0.882571428571428,-0.389657142857143,0.57,-0.6255,0.275333333333333,0.201,0,0,0,0,0,0,0,-0.32438,-0.95714,0.09114,7.5962,17.0934,1.6588,2.167,0.94446,-0.42256,0.05532,-11.2108571428571,5.54014285714286,-0.653428571428571,415.4835,1,1,1,1
24-May-2018 14:41:38,-33.5454545454545,0.0908714285714286,-0.882571428571428,-0.389657142857143,0.57,-0.6255,0.275333333333333,0.201,0,0,0,0,0,0,0,-0.32438,-0.95714,0.09114,7.5962,17.0934,1.6588,2.167,0.94446,-0.42256,0.05532,-11.2108571428571,5.54014285714286,-0.653428571428571,415.4835,1,1,1,1
24-May-2018 14:41:38,-33.5454545454545,0.0908714285714286,-0.882571428571428,-0.389657142857143,0.57,-0.6255,0.275333333333333,0.201,0,0,0,0,0,0,0,-0.32438,-0.95714,0.09114,7.5962,17.0934,1.6588,2.167,0.94446,-0.42256,0.05532,-11.2108571428571,5.54014285714286,-0.653428571428571,415.4835,1,1,1,1
24-May-2018 14:41:38,-33.5454545454545,0.0908714285714286,-0.882571428571428,-0.389657142857143,0.57,-0.6255,0.275333333333333,0.201,0,0,0,0,0,0,0,-0.32438,-0.95714,0.09114,7.5962,17.0934,1.6588,2.167,0.94446,-0.42256,0.05532,-11.2108571428571,5.54014285714286,-0.653428571428571,415.4835,1,1,1,1
24-May-2018 14:41:39,28.6,0.0908714285714286,-0.882571428571428,-0.389657142857143,0.57,-0.6255,0.275333333333333,0.201,0,0,0,0,0,0,0,-0.341075,-0.9548,0.157325,3.60525,-5.495875,-0.264375,2.589,0.94956,-0.40176,0.0568,1.40257142857143,0.409571428571428,0.296285714285714,435.8138,1,1,1,1
24-May-2018 14:41:39,28.6,0.0908714285714286,-0.882571428571428,-0.389657142857143,0.57,-0.6255,0.275333333333333,0.201,0,0,0,0,0,0,0,-0.341075,-0.9548,0.157325,3.60525,-5.495875,-0.264375,2.589,0.94956,-0.40176,0.0568,1.40257142857143,0.409571428571428,0.296285714285714,435.8138,1,1,1,1
24-May-2018 14:41:39,28.6,0.0908714285714286,-0.882571428571428,-0.389657142857143,0.57,-0.6255,0.275333333333333,0.201,0,0,0,0,0,0,0,-0.341075,-0.9548,0.157325,3.60525,-5.495875,-0.264375,2.589,0.94956,-0.40176,0.0568,1.40257142857143,0.409571428571428,0.296285714285714,435.8138,1,1,1,1
24-May-2018 14:41:39,28.6,0.0908714285714286,-0.882571428571428,-0.389657142857143,0.57,-0.6255,0.275333333333333,0.201,0,0,0,0,0,0,0,-0.341075,-0.9548,0.157325,3.60525,-5.495875,-0.264375,2.589,0.94956,-0.40176,0.0568,1.40257142857143,0.409571428571428,0.296285714285714,435.8138,1,1,1,1
24-May-2018 14:41:40,6.54545454545455,0.0908714285714286,-0.882571428571428,-0.389657142857143,0.57,-0.6255,0.275333333333333,0.201,0,0,0,0,0,0,0,-0.3285,-0.9508,0.190066666666667,-1.31014285714286,0.00214285714285711,-0.762857142857143,2.62633333333333,0.9408,-0.419985714285714,0.0597714285714286,-0.975571428571428,0.453,-0.217714285714286,433.2065,1,1,1,1
24-May-2018 14:41:40,6.54545454545455,0.0908714285714286,-0.882571428571428,-0.389657142857143,0.57,-0.6255,0.275333333333333,0.201,0,0,0,0,0,0,0,-0.3285,-0.9508,0.190066666666667,-1.31014285714286,0.00214285714285711,-0.762857142857143,2.62633333333333,0.9408,-0.419985714285714,0.0597714285714286,-0.975571428571428,0.453,-0.217714285714286,433.2065,1,1,1,1
24-May-2018 14:41:40,6.54545454545455,0.0908714285714286,-0.882571428571428,-0.389657142857143,0.57,-0.6255,0.275333333333333,0.201,0,0,0,0,0,0,0,-0.3285,-0.9508,0.190066666666667,-1.31014285714286,0.00214285714285711,-0.762857142857143,2.62633333333333,0.9408,-0.419985714285714,0.0597714285714286,-0.975571428571428,0.453,-0.217714285714286,433.2065,1,1,1,1
24-May-2018 14:41:40,6.54545454545455,0.0908714285714286,-0.882571428571428,-0.389657142857143,0.57,-0.6255,0.275333333333333,0.201,0,0,0,0,0,0,0,-0.3285,-0.9508,0.190066666666667,-1.31014285714286,0.00214285714285711,-0.762857142857143,2.62633333333333,0.9408,-0.419985714285714,0.0597714285714286,-0.975571428571428,0.453,-0.217714285714286,433.2065,1,1,1,1
24-May-2018 14:41:41,10,0.0908714285714286,-0.882571428571428,-0.389657142857143,0.57,-0.6255,0.275333333333333,0.201,0,0,0,0,0,0,0,-0.318385714285714,-0.955842857142857,0.187057142857143,0.0106666666666666,0.722833333333333,0.00150000000000001,2.5935,0.96376,-0.39506,0.00876,-15.2928,8.878,-2.9754,425.431333333333,0,1,1,1
24-May-2018 14:41:41,10,0.0908714285714286,-0.882571428571428,-0.389657142857143,0.57,-0.6255,0.275333333333333,0.201,0,0,0,0,0,0,0,-0.318385714285714,-0.955842857142857,0.187057142857143,0.0106666666666666,0.722833333333333,0.00150000000000001,2.5935,0.96376,-0.39506,0.00876,-15.2928,8.878,-2.9754,425.431333333333,0,1,1,1
24-May-2018 14:41:41,10,0.0908714285714286,-0.882571428571428,-0.389657142857143,0.57,-0.6255,0.275333333333333,0.201,0,0,0,0,0,0,0,-0.318385714285714,-0.955842857142857,0.187057142857143,0.0106666666666666,0.722833333333333,0.00150000000000001,2.5935,0.96376,-0.39506,0.00876,-15.2928,8.878,-2.9754,425.431333333333,0,1,1,1
24-May-2018 14:41:41,10,0.0908714285714286,-0.882571428571428,-0.389657142857143,0.57,-0.6255,0.275333333333333,0.201,0,0,0,0,0,0,0,-0.318385714285714,-0.955842857142857,0.187057142857143,0.0106666666666666,0.722833333333333,0.00150000000000001,2.5935,0.96376,-0.39506,0.00876,-15.2928,8.878,-2.9754,425.431333333333,0,1,1,1
24-May-2018 14:41:42,87.5,0.0908714285714286,-0.882571428571428,-0.389657142857143,0.57,-0.6255,0.275333333333333,0.201,0,0,0,0,0,0,0,-0.3341,-0.942366666666667,0.213133333333333,1.02,-2.37285714285714,0.767142857142857,2.576,0.958366666666667,-0.366666666666667,0.0820166666666667,-6.76814285714286,6.45485714285714,-2.02085714285714,516.3638,1,1,1,1
24-May-2018 14:41:42,87.5,0.0908714285714286,-0.882571428571428,-0.389657142857143,0.57,-0.6255,0.275333333333333,0.201,0,0,0,0,0,0,0,-0.3341,-0.942366666666667,0.213133333333333,1.02,-2.37285714285714,0.767142857142857,2.576,0.958366666666667,-0.366666666666667,0.0820166666666667,-6.76814285714286,6.45485714285714,-2.02085714285714,516.3638,1,1,1,1
24-May-2018 14:41:42,87.5,0.0908714285714286,-0.882571428571428,-0.389657142857143,0.57,-0.6255,0.275333333333333,0.201,0,0,0,0,0,0,0,-0.3341,-0.942366666666667,0.213133333333333,1.02,-2.37285714285714,0.767142857142857,2.576,0.958366666666667,-0.366666666666667,0.0820166666666667,-6.76814285714286,6.45485714285714,-2.02085714285714,516.3638,1,1,1,1
24-May-2018 14:41:42,87.5,0.0908714285714286,-0.882571428571428,-0.389657142857143,0.57,-0.6255,0.275333333333333,0.201,0,0,0,0,0,0,0,-0.3341,-0.942366666666667,0.213133333333333,1.02,-2.37285714285714,0.767142857142857,2.576,0.958366666666667,-0.366666666666667,0.0820166666666667,-6.76814285714286,6.45485714285714,-2.02085714285714,516.3638,1,1,1,1
24-May-2018 14:41:43,44.7,0.0908714285714286,-0.882571428571428,-0.389657142857143,0.57,-0.6255,0.275333333333333,0.201,0,0,0,0,0,0,0,-0.341457142857143,-0.945714285714286,0.219528571428571,-1.5025,-3.9275,0.00225,2.53666666666667,0.982633333333333,-0.3226,0.107666666666667,0.609571428571429,1.36757142857143,-1.48942857142857,546.46175,0,1,1,1
24-May-2018 14:41:43,44.7,0.0908714285714286,-0.882571428571428,-0.389657142857143,0.57,-0.6255,0.275333333333333,0.201,0,0,0,0,0,0,0,-0.341457142857143,-0.945714285714286,0.219528571428571,-1.5025,-3.9275,0.00225,2.53666666666667,0.982633333333333,-0.3226,0.107666666666667,0.609571428571429,1.36757142857143,-1.48942857142857,546.46175,0,1,1,1
24-May-2018 14:41:43,44.7,0.0908714285714286,-0.882571428571428,-0.389657142857143,0.57,-0.6255,0.275333333333333,0.201,0,0,0,0,0,0,0,-0.341457142857143,-0.945714285714286,0.219528571428571,-1.5025,-3.9275,0.00225,2.53666666666667,0.982633333333333,-0.3226,0.107666666666667,0.609571428571429,1.36757142857143,-1.48942857142857,546.46175,0,1,1,1
24-May-2018 14:41:43,44.7,0.0908714285714286,-0.882571428571428,-0.389657142857143,0.57,-0.6255,0.275333333333333,0.201,0,0,0,0,0,0,0,-0.341457142857143,-0.945714285714286,0.219528571428571,-1.5025,-3.9275,0.00225,2.53666666666667,0.982633333333333,-0.3226,0.107666666666667,0.609571428571429,1.36757142857143,-1.48942857142857,546.46175,0,1,1,1
24-May-2018 14:41:44,33.3333333333333,0.0908714285714286,-0.882571428571428,-0.389657142857143,0.57,-0.6255,0.275333333333333,0.201,0,0,0,0,0,0,0,-0.344083333333333,-0.93955,0.227716666666667,0.1968,-1.2666,0.732,2.494,0.97355,-0.319733333333333,0.120016666666667,0.609571428571429,1.324,1.39371428571429,551.2645,1,1,1,1
24-May-2018 14:41:44,33.3333333333333,0.0908714285714286,-0.882571428571428,-0.389657142857143,0.57,-0.6255,0.275333333333333,0.201,0,0,0,0,0,0,0,-0.344083333333333,-0.93955,0.227716666666667,0.1968,-1.2666,0.732,2.494,0.97355,-0.319733333333333,0.120016666666667,0.609571428571429,1.324,1.39371428571429,551.2645,1,1,1,1
24-May-2018 14:41:44,33.3333333333333,0.0908714285714286,-0.882571428571428,-0.389657142857143,0.57,-0.6255,0.275333333333333,0.201,0,0,0,0,0,0,0,-0.344083333333333,-0.93955,0.227716666666667,0.1968,-1.2666,0.732,2.494,0.97355,-0.319733333333333,0.120016666666667,0.609571428571429,1.324,1.39371428571429,551.2645,1,1,1,1
24-May-2018 14:41:44,33.3333333333333,0.0908714285714286,-0.882571428571428,-0.389657142857143,0.57,-0.6255,0.275333333333333,0.201,0,0,0,0,0,0,0,-0.344083333333333,-0.93955,0.227716666666667,0.1968,-1.2666,0.732,2.494,0.97355,-0.319733333333333,0.120016666666667,0,1.324,1.39371428571429,551.2645,1,1,1,1
24-May-2018 14:41:45,28.8571428571429,0.0908714285714286,-0.882571428571428,-0.389657142857143,0.57,-0.6255,0.275333333333333,0.201,0,0,0,0,0,0,0,-0.332266666666667,-0.949133333333333,0.199216666666667,-3.169,0.329500000000001,-0.424666666666667,2.48033333333333,0.960316666666667,-0.362133333333333,0.0977,1.54185714285714,-1.47214285714286,1.13242857142857,553.69825,1,1,1,1
24-May-2018 14:41:45,28.8571428571429,0.0908714285714286,-0.882571428571428,-0.389657142857143,0.57,-0.6255,0.275333333333333,0.201,0,0,0,0,0,0,0,-0.332266666666667,-0.949133333333333,0.199216666666667,-3.169,0.329500000000001,-0.424666666666667,2.48033333333333,0.960316666666667,-0.362133333333333,0.0977,1.54185714285714,-1.47214285714286,1.13242857142857,553.69825,1,1,1,1
24-May-2018 14:41:45,28.8571428571429,0.0908714285714286,-0.882571428571428,-0.389657142857143,0.57,-0.6255,0.275333333333333,0.201,0,0,0,0,0,0,0,-0.332266666666667,-0.949133333333333,0.199216666666667,-3.169,0.329500000000001,-0.424666666666667,2.48033333333333,0.960316666666667,-0.362133333333333,0.0977,1.54185714285714,-1.47214285714286,1.13242857142857,553.69825,1,1,1,1
24-May-2018 14:41:45,28.8571428571429,0.0908714285714286,-0.882571428571428,-0.389657142857143,0.57,-0.6255,0.275333333333333,0.201,0,0,0,0,0,0,0,-0.332266666666667,-0.949133333333333,0.199216666666667,-3.169,0.329500000000001,-0.424666666666667,2.48033333333333,0.960316666666667,-0.362133333333333,0.0977,1.54185714285714,-1.47214285714286,1.13242857142857,553.69825,1,1,1,1
24-May-2018 14:41:46,15.7,0.0908714285714286,-0.882571428571428,-0.389657142857143,0.57,-0.6255,0.275333333333333,0.201,0,0,0,0,0,0,0,-0.35015,-0.94575,0.18355,1.67242857142857,1.04614285714286,-0.494142857142857,2.42325,0.963328571428572,-0.369642857142857,0.0906857142857143,-0.254,1.16866666666667,-0.5895,541.49275,1,1,1,1
24-May-2018 14:41:46,15.7,0.0908714285714286,-0.882571428571428,-0.389657142857143,0.57,-0.6255,0.275333333333333,0.201,0,0,0,0,0,0,0,-0.35015,-0.94575,0.18355,1.67242857142857,1.04614285714286,-0.494142857142857,2.42325,0.963328571428572,-0.369642857142857,0.0906857142857143,-0.254,1.16866666666667,-0.5895,541.49275,1,1,1,1
24-May-2018 14:41:46,15.7,0.0908714285714286,-0.882571428571428,-0.389657142857143,0.57,-0.6255,0.275333333333333,0.201,0,0,0,0,0,0,0,-0.35015,-0.94575,0.18355,1.67242857142857,1.04614285714286,-0.494142857142857,2.42325,0.963328571428572,-0.369642857142857,0.0906857142857143,-0.254,1.16866666666667,-0.5895,541.49275,1,1,1,1
24-May-2018 14:41:46,15.7,0.0908714285714286,-0.882571428571428,-0.389657142857143,0.57,-0.6255,0.275333333333333,0.201,0,0,0,0,0,0,0,-0.35015,-0.94575,0.18355,1.67242857142857,1.04614285714286,-0.494142857142857,2.42325,0.963328571428572,-0.369642857142857,0.0906857142857143,-0.254,1.16866666666667,-0.5895,541.49275,1,1,1,1
24-May-2018 14:41:47,61.8,0.0908714285714286,-0.882571428571428,-0.389657142857143,0.57,-0.6255,0.275333333333333,0.201,0,0,0,0,0,0,0,-0.335257142857143,-0.946342857142857,0.220042857142857,0.233,0.9156,0.502,2.621,0.963133333333333,-0.3643,0.0999333333333333,1.85225,0.182875,-0.3735,548.33025,1,1,1,1
24-May-2018 14:41:47,61.8,0.0908714285714286,-0.882571428571428,-0.389657142857143,0.57,-0.6255,0.275333333333333,0.201,0,0,0,0,0,0,0,-0.335257142857143,-0.946342857142857,0.220042857142857,0.233,0.9156,0.502,2.621,0.963133333333333,-0.3643,0.0999333333333333,1.85225,0.182875,-0.3735,548.33025,1,1,1,1
24-May-2018 14:41:47,61.8,0.0908714285714286,-0.882571428571428,-0.389657142857143,0.57,-0.6255,0.275333333333333,0.201,0,0,0,0,0,0,0,-0.335257142857143,-0.946342857142857,0.220042857142857,0.233,0.9156,0.502,2.621,0.963133333333333,-0.3643,0.0999333333333333,1.85225,0.182875,-0.3735,548.33025,1,1,1,1
24-May-2018 14:41:47,61.8,0.0908714285714286,-0.882571428571428,-0.389657142857143,0.57,-0.6255,0.275333333333333,0.201,0,0,0,0,0,0,0,-0.335257142857143,-0.946342857142857,0.220042857142857,0.233,0.9156,0.502,2.621,0.963133333333333,-0.3643,0.0999333333333333,1.85225,0.182875,-0.3735,548.33025,1,1,1,1
24-May-2018 14:41:48,26.4444444444444,0.0908714285714286,-0.882571428571428,-0.389657142857143,0.57,-0.6255,0.275333333333333,0.201,0,0,0,0,0,0,0,-0.352171428571429,-0.946957142857143,0.161285714285714,-8.19666666666667,2.7855,0.204333333333333,2.5745,0.964,-0.364785714285714,0.0957571428571429,0.558833333333333,0.965333333333333,-0.254166666666667,548.7325,1,1,1,1
24-May-2018 14:41:48,26.4444444444444,0.0908714285714286,-0.882571428571428,-0.389657142857143,0.57,-0.6255,0.275333333333333,0.201,0,0,0,0,0,0,0,-0.352171428571429,-0.946957142857143,0.161285714285714,-8.19666666666667,2.7855,0.204333333333333,2.5745,0.964,-0.364785714285714,0.0957571428571429,0.558833333333333,0.965333333333333,-0.254166666666667,548.7325,1,1,1,1
24-May-2018 14:41:48,26.4444444444444,0.0908714285714286,-0.882571428571428,-0.389657142857143,0.57,-0.6255,0.275333333333333,0.201,0,0,0,0,0,0,0,-0.352171428571429,-0.946957142857143,0.161285714285714,-8.19666666666667,2.7855,0.204333333333333,2.5745,0.964,-0.364785714285714,0.0957571428571429,0.558833333333333,0.965333333333333,-0.254166666666667,548.7325,1,1,1,1
24-May-2018 14:41:48,26.4444444444444,0.0908714285714286,-0.882571428571428,-0.389657142857143,0.57,-0.6255,0.275333333333333,0.201,0,0,0,0,0,0,0,-0.352171428571429,-0.946957142857143,0.161285714285714,-8.19666666666667,2.7855,0.204333333333333,2.5745,0.964,-0.364785714285714,0.0957571428571429,0.558833333333333,0.965333333333333,-0.254166666666667,548.7325,1,1,1,1
24-May-2018 14:41:49,58.8,0.0908714285714286,-0.882571428571428,-0.389657142857143,0.57,-0.6255,0.275333333333333,0.201,0,0,0,0,0,0,0,-0.327833333333333,-0.952633333333333,-0.0236833333333333,-15.016,-3.393,-6.629,2.4302,0.965,-0.35626,0.10754,-0.226571428571429,1.089,-0.540285714285714,552.66675,0,1,1,1
24-May-2018 14:41:49,58.8,0.0908714285714286,-0.882571428571428,-0.389657142857143,0.57,-0.6255,0.275333333333333,0.201,0,0,0,0,0,0,0,-0.327833333333333,-0.952633333333333,-0.0236833333333333,-15.016,-3.393,-6.629,2.4302,0.965,-0.35626,0.10754,-0.226571428571429,1.089,-0.540285714285714,552.66675,0,1,1,1
24-May-2018 14:41:49,58.8,0.0908714285714286,-0.882571428571428,-0.389657142857143,0.57,-0.6255,0.275333333333333,0.201,0,0,0,0,0,0,0,-0.327833333333333,-0.952633333333333,-0.0236833333333333,-15.016,-3.393,-6.629,2.4302,0.965,-0.35626,0.10754,-0.226571428571429,1.089,-0.540285714285714,552.66675,0,1,1,1
24-May-2018 14:41:49,58.8,0.0908714285714286,-0.882571428571428,-0.389657142857143,0.57,-0.6255,0.275333333333333,0.201,0,0,0,0,0,0,0,-0.327833333333333,-0.952633333333333,-0.0236833333333333,-15.016,-3.393,-6.629,2.4302,0.965,-0.35626,0.10754,-0.226571428571429,1.089,-0.540285714285714,552.66675,0,1,1,1
24-May-2018 14:41:50,36,0.0908714285714286,-0.882571428571428,-0.389657142857143,0.57,-0.6255,0.275333333333333,0.201,0,0,0,0,0,0,0,-0.30348,-0.94638,-0.11868,-1.94666666666667,-0.726666666666667,1.19966666666667,2.1756,0.969975,-0.348925,0.1118,13.4668571428571,-4.74728571428571,-0.548857142857143,561.459333333333,1,1,1,1
24-May-2018 14:41:50,36,0.0908714285714286,-0.882571428571428,-0.389657142857143,0.57,-0.6255,0.275333333333333,0.201,0,0,0,0,0,0,0,-0.30348,-0.94638,-0.11868,-1.94666666666667,-0.726666666666667,1.19966666666667,2.1756,0.969975,-0.348925,0.1118,13.4668571428571,-4.74728571428571,-0.548857142857143,561.459333333333,1,1,1,1
24-May-2018 14:41:50,36,0.0908714285714286,-0.882571428571428,-0.389657142857143,0.57,-0.6255,0.275333333333333,0.201,0,0,0,0,0,0,0,-0.30348,-0.94638,-0.11868,-1.94666666666667,-0.726666666666667,1.19966666666667,2.1756,0.969975,-0.348925,0.1118,13.4668571428571,-4.74728571428571,-0.548857142857143,561.459333333333,1,1,1,1
24-May-2018 14:41:50,36,0.0908714285714286,-0.882571428571428,-0.389657142857143,0.57,-0.6255,0.275333333333333,0.201,0,0,0,0,0,0,0,-0.30348,-0.94638,-0.11868,-1.94666666666667,-0.726666666666667,1.19966666666667,2.1756,0.969975,-0.348925,0.1118,13.4668571428571,-4.74728571428571,-0.548857142857143,561.459333333333,1,1,1,1
24-May-2018 14:41:51,38.25,0.0908714285714286,-0.882571428571428,-0.389657142857143,0.57,-0.6255,0.275333333333333,0.201,0,0,0,0,0,0,0,-0.3061,-0.942233333333333,-0.134933333333333,-0.364,0.5285,-0.7525,2.121,0.97828,-0.33952,0.03358,-12.9676666666667,8.872,3.23166666666667,502.8672,1,1,1,1
24-May-2018 14:41:51,38.25,0.0908714285714286,-0.882571428571428,-0.389657142857143,0.57,-0.6255,0.275333333333333,0.201,0,0,0,0,0,0,0,-0.3061,-0.942233333333333,-0.134933333333333,-0.364,0.5285,-0.7525,2.121,0.97828,-0.33952,0.03358,-12.9676666666667,8.872,3.23166666666667,502.8672,1,1,1,1
24-May-2018 14:41:51,38.25,0.0908714285714286,-0.882571428571428,-0.389657142857143,0.57,-0.6255,0.275333333333333,0.201,0,0,0,0,0,0,0,-0.3061,-0.942233333333333,-0.134933333333333,-0.364,0.5285,-0.7525,2.121,0.97828,-0.33952,0.03358,-12.9676666666667,8.872,3.23166666666667,502.8672,1,1,1,1
24-May-2018 14:41:51,38.25,0.0908714285714286,-0.882571428571428,-0.389657142857143,0.57,-0.6255,0.275333333333333,0.201,0,0,0,0,0,0,0,-0.3061,-0.942233333333333,-0.134933333333333,-0.364,0.5285,-0.7525,2.121,0.97828,-0.33952,0.03358,-12.9676666666667,8.872,3.23166666666667,502.8672,1,1,1,1
24-May-2018 14:41:52,86.5555555555556,0.0908714285714286,-0.882571428571428,-0.389657142857143,0.57,-0.6255,0.275333333333333,0.201,0,0,0,0,0,0,0,-0.291466666666667,-0.946716666666667,-0.14025,-0.434166666666667,-1.50116666666667,-0.344,2.1165,0.948585714285714,-0.3875,0.127228571428571,-1.42283333333333,3.67883333333333,-0.630166666666667,526.648,1,1,1,1
24-May-2018 14:41:52,86.5555555555556,0.0908714285714286,-0.882571428571428,-0.389657142857143,0.57,-0.6255,0.275333333333333,0.201,0,0,0,0,0,0,0,-0.291466666666667,-0.946716666666667,-0.14025,-0.434166666666667,-1.50116666666667,-0.344,2.1165,0.948585714285714,-0.3875,0.127228571428571,-1.42283333333333,3.67883333333333,-0.630166666666667,526.648,1,1,1,1
24-May-2018 14:41:52,86.5555555555556,0.0908714285714286,-0.882571428571428,-0.389657142857143,0.57,-0.6255,0.275333333333333,0.201,0,0,0,0,0,0,0,-0.291466666666667,-0.946716666666667,-0.14025,-0.434166666666667,-1.50116666666667,-0.344,2.1165,0.948585714285714,-0.3875,0.127228571428571,-1.42283333333333,3.67883333333333,-0.630166666666667,526.648,1,1,1,1
24-May-2018 14:41:52,86.5555555555556,0.0908714285714286,-0.882571428571428,-0.389657142857143,0.57,-0.6255,0.275333333333333,0.201,0,0,0,0,0,0,0,-0.291466666666667,-0.946716666666667,-0.14025,-0.434166666666667,-1.50116666666667,-0.344,2.1165,0.948585714285714,-0.3875,0.127228571428571,-1.42283333333333,3.67883333333333,-0.630166666666667,526.648,1,1,1,1
24-May-2018 14:41:53,76.4,0.0908714285714286,-0.882571428571428,-0.389657142857143,0.57,-0.6255,0.275333333333333,0.201,0,0,0,0,0,0,0,-0.294866666666667,-0.948183333333333,-0.12665,-1.22785714285714,-4.63885714285714,-1.76414285714286,2.1174,0.962266666666667,-0.36035,0.134083333333333,0.518166666666667,0.437,-0.3965,554.7774,1,1,1,1
24-May-2018 14:41:53,76.4,0.0908714285714286,-0.882571428571428,-0.389657142857143,0.57,-0.6255,0.275333333333333,0.201,0,0,0,0,0,0,0,-0.294866666666667,-0.948183333333333,-0.12665,-1.22785714285714,-4.63885714285714,-1.76414285714286,2.1174,0.962266666666667,-0.36035,0.134083333333333,0.518166666666667,0.437,-0.3965,554.7774,1,1,1,1
24-May-2018 14:41:53,76.4,0.0908714285714286,-0.882571428571428,-0.389657142857143,0.57,-0.6255,0.275333333333333,0.201,0,0,0,0,0,0,0,-0.294866666666667,-0.948183333333333,-0.12665,-1.22785714285714,-4.63885714285714,-1.76414285714286,2.1174,0.962266666666667,-0.36035,0.134083333333333,0.518166666666667,0.437,-0.3965,554.7774,1,1,1,1
24-May-2018 14:41:53,76.4,0.0908714285714286,-0.882571428571428,-0.389657142857143,0.57,-0.6255,0.275333333333333,0.201,0,0,0,0,0,0,0,-0.294866666666667,-0.948183333333333,-0.12665,-1.22785714285714,-4.63885714285714,-1.76414285714286,2.1174,0.962266666666667,-0.36035,0.134083333333333,0.518166666666667,0.437,-0.3965,554.7774,1,1,1,1
24-May-2018 14:41:54,32,0.0908714285714286,-0.882571428571428,-0.389657142857143,0.57,-0.6255,0.275333333333333,0.201,0,0,0,0,0,0,0,-0.274725,-0.95975,-0.115825,6.7775,1.96266666666667,0.144333333333333,1.986,0.961728571428571,-0.359614285714286,0.124914285714286,1.0976,1.1952,-0.3414,543.125,1,1,1,1
24-May-2018 14:41:54,32,0.0908714285714286,-0.882571428571428,-0.389657142857143,0.57,-0.6255,0.275333333333333,0.201,0,0,0,0,0,0,0,-0.274725,-0.95975,-0.115825,6.7775,1.96266666666667,0.144333333333333,1.986,0.961728571428571,-0.359614285714286,0.124914285714286,1.0976,1.1952,-0.3414,543.125,1,1,1,1
24-May-2018 14:41:54,32,0.0908714285714286,-0.882571428571428,-0.389657142857143,0.57,-0.6255,0.275333333333333,0.201,0,0,0,0,0,0,0,-0.274725,-0.95975,-0.115825,6.7775,1.96266666666667,0.144333333333333,1.986,0.961728571428571,-0.359614285714286,0.124914285714286,1.0976,1.1952,-0.3414,543.125,1,1,1,1
24-May-2018 14:41:54,32,0.0908714285714286,-0.882571428571428,-0.389657142857143,0.57,-0.6255,0.275333333333333,0.201,0,0,0,0,0,0,0,-0.274725,-0.95975,-0.115825,6.7775,1.96266666666667,0.144333333333333,1.986,0.961728571428571,-0.359614285714286,0.124914285714286,1.0976,1.1952,-0.3414,543.125,1,1,1,1
24-May-2018 14:41:55,55.3,0.0908714285714286,-0.882571428571428,-0.389657142857143,0.57,-0.6255,0.275333333333333,0.201,0,0,0,0,0,0,0,-0.305014285714286,-0.964914285714286,0.0568,15.264,-0.0962500000000001,3.80375,2.056,0.9609,-0.353466666666667,0.1202,0.548857142857143,-0.0607142857142857,-1.12357142857143,543.9775,1,1,1,1
24-May-2018 14:41:55,55.3,0.0908714285714286,-0.882571428571428,-0.389657142857143,0.57,-0.6255,0.275333333333333,0.201,0,0,0,0,0,0,0,-0.305014285714286,-0.964914285714286,0.0568,15.264,-0.0962500000000001,3.80375,2.056,0.9609,-0.353466666666667,0.1202,0.548857142857143,-0.0607142857142857,-1.12357142857143,543.9775,1,1,1,1
24-May-2018 14:41:55,55.3,0.0908714285714286,-0.882571428571428,-0.389657142857143,0.57,-0.6255,0.275333333333333,0.201,0,0,0,0,0,0,0,-0.305014285714286,-0.964914285714286,0.0568,15.264,-0.0962500000000001,3.80375,2.056,0.9609,-0.353466666666667,0.1202,0.548857142857143,-0.0607142857142857,-1.12357142857143,543.9775,1,1,1,1
24-May-2018 14:41:55,55.3,0.0908714285714286,-0.882571428571428,-0.389657142857143,0.57,-0.6255,0.275333333333333,0.201,0,0,0,0,0,0,0,-0.305014285714286,-0.964914285714286,0.0568,15.264,-0.0962500000000001,3.80375,2.056,0.9609,-0.353466666666667,0.1202,0.548857142857143,-0.0607142857142857,-1.12357142857143,543.9775,1,1,1,1
24-May-2018 14:41:56,71.3333333333333,0.0908714285714286,-0.882571428571428,-0.389657142857143,0.57,-0.6255,0.275333333333333,0.201,0,0,0,0,0,0,0,-0.32702,-0.94964,0.21214,-1.2528,-2.252,-0.7658,2.6925,0.961728571428571,-0.354071428571429,0.136685714285714,2.6586,0.7196,0.4634,545.1685,0,1,1,1
24-May-2018 14:41:56,71.3333333333333,0.0908714285714286,-0.882571428571428,-0.389657142857143,0.57,-0.6255,0.275333333333333,0.201,0,0,0,0,0,0,0,-0.32702,-0.94964,0.21214,-1.2528,-2.252,-0.7658,2.6925,0.961728571428571,-0.354071428571429,0.136685714285714,2.6586,0.7196,0.4634,545.1685,0,1,1,1
24-May-2018 14:41:56,71.3333333333333,0.0908714285714286,-0.882571428571428,-0.389657142857143,0.57,-0.6255,0.275333333333333,0.201,0,0,0,0,0,0,0,-0.32702,-0.94964,0.21214,-1.2528,-2.252,-0.7658,2.6925,0.961728571428571,-0.354071428571429,0.136685714285714,2.6586,0.7196,0.4634,545.1685,0,1,1,1
24-May-2018 14:41:56,71.3333333333333,0.0908714285714286,-0.882571428571428,-0.389657142857143,0.57,-0.6255,0.275333333333333,0.201,0,0,0,0,0,0,0,-0.32702,-0.94964,0.21214,-1.2528,-2.252,-0.7658,2.6925,0.961728571428571,-0.354071428571429,0.136685714285714,2.6586,0.7196,0.4634,545.1685,0,1,1,1
24-May-2018 14:41:57,30.8,0.0908714285714286,-0.882571428571428,-0.389657142857143,0.57,-0.6255,0.275333333333333,0.201,0,0,0,0,0,0,0,-0.330042857142857,-0.950342857142857,0.2005,-0.7424,-0.9602,0.1122,2.776,0.965366666666667,-0.344866666666667,0.133766666666667,-0.0697142857142857,0.775285714285714,-0.226571428571429,540.1215,0,1,1,1
24-May-2018 14:41:57,30.8,0.0908714285714286,-0.882571428571428,-0.389657142857143,0.57,-0.6255,0.275333333333333,0.201,0,0,0,0,0,0,0,-0.330042857142857,-0.950342857142857,0.2005,-0.7424,-0.9602,0.1122,2.776,0.965366666666667,-0.344866666666667,0.133766666666667,-0.0697142857142857,0.775285714285714,-0.226571428571429,540.1215,0,1,1,1
24-May-2018 14:41:57,30.8,0.0908714285714286,-0.882571428571428,-0.389657142857143,0.57,-0.6255,0.275333333333333,0.201,0,0,0,0,0,0,0,-0.330042857142857,-0.950342857142857,0.2005,-0.7424,-0.9602,0.1122,2.776,0.965366666666667,-0.344866666666667,0.133766666666667,-0.0697142857142857,0.775285714285714,-0.226571428571429,540.1215,0,1,1,1
24-May-2018 14:41:57,30.8,0.0908714285714286,-0.882571428571428,-0.389657142857143,0.57,-0.6255,0.275333333333333,0.201,0,0,0,0,0,0,0,-0.330042857142857,-0.950342857142857,0.2005,-0.7424,-0.9602,0.1122,2.776,0.965366666666667,-0.344866666666667,0.133766666666667,-0.0697142857142857,0.775285714285714,-0.226571428571429,540.1215,0,1,1,1
24-May-2018 14:41:58,44.5,0.0908714285714286,-0.882571428571428,-0.389657142857143,0.57,-0.6255,0.275333333333333,0.201,0,0,0,0,0,0,0,-0.32892,-0.95076,0.19474,-0.465,-0.758833333333333,-0.0495,2.8104,0.973728571428571,-0.335757142857143,0.111342857142857,7.86585714285714,-2.91814285714286,0.653428571428572,528.902,0,1,1,1
24-May-2018 14:41:58,44.5,0.0908714285714286,-0.882571428571428,-0.389657142857143,0.57,-0.6255,0.275333333333333,0.201,0,0,0,0,0,0,0,-0.32892,-0.95076,0.19474,-0.465,-0.758833333333333,-0.0495,2.8104,0.973728571428571,-0.335757142857143,0.111342857142857,7.86585714285714,-2.91814285714286,0.653428571428572,528.902,0,1,1,1
24-May-2018 14:41:58,44.5,0.0908714285714286,-0.882571428571428,-0.389657142857143,0.57,-0.6255,0.275333333333333,0.201,0,0,0,0,0,0,0,-0.32892,-0.95076,0.19474,-0.465,-0.758833333333333,-0.0495,2.8104,0.973728571428571,-0.335757142857143,0.111342857142857,7.86585714285714,-2.91814285714286,0.653428571428572,528.902,0,1,1,1
24-May-2018 14:41:58,44.5,0.0908714285714286,-0.882571428571428,-0.389657142857143,0.57,-0.6255,0.275333333333333,0.201,0,0,0,0,0,0,0,-0.32892,-0.95076,0.19474,-0.465,-0.758833333333333,-0.0495,2.8104,0.973728571428571,-0.335757142857143,0.111342857142857,7.86585714285714,-2.91814285714286,0.653428571428572,528.902,0,1,1,1
24-May-2018 14:41:59,58.7142857142857,0.0908714285714286,-0.882571428571428,-0.389657142857143,0.57,-0.6255,0.275333333333333,0.201,0,0,0,0,0,0,0,-0.3341,-0.948583333333333,0.202866666666667,-0.0925714285714286,0.0452857142857143,-0.059,2.812,0.95248,-0.3647,0.14184,-4.87828571428571,3.83271428571429,-0.914714285714286,502.509,0,1,1,1
24-May-2018 14:41:59,58.7142857142857,0.0908714285714286,-0.882571428571428,-0.389657142857143,0.57,-0.6255,0.275333333333333,0.201,0,0,0,0,0,0,0,-0.3341,-0.948583333333333,0.202866666666667,-0.0925714285714286,0.0452857142857143,-0.059,2.812,0.95248,-0.3647,0.14184,-4.87828571428571,3.83271428571429,-0.914714285714286,502.509,0,1,1,1
24-May-2018 14:41:59,58.7142857142857,0.0908714285714286,-0.882571428571428,-0.389657142857143,0.57,-0.6255,0.275333333333333,0.201,0,0,0,0,0,0,0,-0.3341,-0.948583333333333,0.202866666666667,-0.0925714285714286,0.0452857142857143,-0.059,2.812,0.95248,-0.3647,0.14184,-4.87828571428571,3.83271428571429,-0.914714285714286,502.509,0,1,1,1
24-May-2018 14:41:59,58.7142857142857,0.0908714285714286,-0.882571428571428,-0.389657142857143,0.57,-0.6255,0.275333333333333,0.201,0,0,0,0,0,0,0,-0.3341,-0.948583333333333,0.202866666666667,-0.0925714285714286,0.0452857142857143,-0.059,2.812,0.95248,-0.3647,0.14184,-4.87828571428571,3.83271428571429,-0.914714285714286,502.509,0,1,1,1
24-May-2018 14:42:00,20.7,0.0908714285714286,-0.882571428571428,-0.389657142857143,0.57,-0.6255,0.275333333333333,0.201,0,0,0,0,0,0,0,-0.33766,-0.94742,0.19642,-0.565666666666667,-0.322166666666667,-0.00833333333333332,2.796,0.967085714285714,-0.3361,0.139071428571429,0.104285714285714,0.348428571428571,-0.322571428571429,551.502,0,1,1,1
24-May-2018 14:42:00,20.7,0.0908714285714286,-0.882571428571428,-0.389657142857143,0.57,-0.6255,0.275333333333333,0.201,0,0,0,0,0,0,0,-0.33766,-0.94742,0.19642,-0.565666666666667,-0.322166666666667,-0.00833333333333332,2.796,0.967085714285714,-0.3361,0.139071428571429,0.104285714285714,0.348428571428571,-0.322571428571429,551.502,0,1,1,1
24-May-2018 14:42:00,20.7,0.0908714285714286,-0.882571428571428,-0.389657142857143,0.57,-0.6255,0.275333333333333,0.201,0,0,0,0,0,0,0,-0.33766,-0.94742,0.19642,-0.565666666666667,-0.322166666666667,-0.00833333333333332,2.796,0.967085714285714,-0.3361,0.139071428571429,0.104285714285714,0.348428571428571,-0.322571428571429,551.502,0,1,1,1
24-May-2018 14:42:00,20.7,0.0908714285714286,-0.882571428571428,-0.389657142857143,0.57,-0.6255,0.275333333333333,0.201,0,0,0,0,0,0,0,-0.33766,-0.94742,0.19642,-0.565666666666667,-0.322166666666667,-0.00833333333333332,2.796,0.967085714285714,-0.3361,0.139071428571429,0.104285714285714,0.348428571428571,-0.322571428571429,551.502,0,1,1,1
24-May-2018 14:42:01,69.7,0.0908714285714286,-0.882571428571428,-0.389657142857143,0.57,-0.6255,0.275333333333333,0.201,0,0,0,0,0,0,0,-0.33274,-0.94912,0.19772,-0.425,-0.972166666666667,-0.553333333333333,2.82,0.954683333333333,-0.375866666666667,0.12905,-4.581,1.532,3.208875,547.172,1,1,1,1
24-May-2018 14:42:01,69.7,0.0908714285714286,-0.882571428571428,-0.389657142857143,0.57,-0.6255,0.275333333333333,0.201,0,0,0,0,0,0,0,-0.33274,-0.94912,0.19772,-0.425,-0.972166666666667,-0.553333333333333,2.82,0.954683333333333,-0.375866666666667,0.12905,-4.581,1.532,3.208875,547.172,1,1,1,1
24-May-2018 14:42:01,69.7,0.0908714285714286,-0.882571428571428,-0.389657142857143,0.57,-0.6255,0.275333333333333,0.201,0,0,0,0,0,0,0,-0.33274,-0.94912,0.19772,-0.425,-0.972166666666667,-0.553333333333333,2.82,0.954683333333333,-0.375866666666667,0.12905,-4.581,1.532,3.208875,547.172,1,1,1,1
24-May-2018 14:42:01,69.7,0.0908714285714286,-0.882571428571428,-0.389657142857143,0.57,-0.6255,0.275333333333333,0.201,0,0,0,0,0,0,0,-0.33274,-0.94912,0.19772,-0.425,-0.972166666666667,-0.553333333333333,2.82,0.954683333333333,-0.375866666666667,0.12905,-4.581,1.532,3.208875,547.172,1,1,1,1
24-May-2018 14:42:02,79.1,0.0908714285714286,-0.882571428571428,-0.389657142857143,0.57,-0.6255,0.275333333333333,0.201,0,0,0,0,0,0,0,-0.3332375,-0.9483625,0.201225,-0.821166666666667,-1.27666666666667,0.0826666666666667,2.82,0.941016666666667,-0.42125,0.0824,10.9451666666667,-6.372,0.640166666666667,543.988333333333,1,1,1,1
24-May-2018 14:42:02,79.1,0.0908714285714286,-0.882571428571428,-0.389657142857143,0.57,-0.6255,0.275333333333333,0.201,0,0,0,0,0,0,0,-0.3332375,-0.9483625,0.201225,-0.821166666666667,-1.27666666666667,0.0826666666666667,2.82,0.941016666666667,-0.42125,0.0824,10.9451666666667,-6.372,0.640166666666667,543.988333333333,1,1,1,1
24-May-2018 14:42:02,79.1,0.0908714285714286,-0.882571428571428,-0.389657142857143,0.57,-0.6255,0.275333333333333,0.201,0,0,0,0,0,0,0,-0.3332375,-0.9483625,0.201225,-0.821166666666667,-1.27666666666667,0.0826666666666667,2.82,0.941016666666667,-0.42125,0.0824,10.9451666666667,-6.372,0.640166666666667,543.988333333333,1,1,1,1
24-May-2018 14:42:02,79.1,0.0908714285714286,-0.882571428571428,-0.389657142857143,0.57,-0.6255,0.275333333333333,0.201,0,0,0,0,0,0,0,-0.3332375,-0.9483625,0.201225,-0.821166666666667,-1.27666666666667,0.0826666666666667,2.82,0.941016666666667,-0.42125,0.0824,10.9451666666667,-6.372,0.640166666666667,543.988333333333,1,1,1,1
24-May-2018 14:42:03,56.7777777777778,0.0908714285714286,-0.882571428571428,-0.389657142857143,0.57,-0.6255,0.275333333333333,0.201,0,0,0,0,0,0,0,-0.340475,-0.949575,0.1885,-1.2625,-0.972,0.03225,2.82,0.9488,-0.41285,0.057725,1.9005,-1.15866666666667,0.935166666666667,517.407,1,1,1,1
24-May-2018 14:42:03,56.7777777777778,0.0908714285714286,-0.882571428571428,-0.389657142857143,0.57,-0.6255,0.275333333333333,0.201,0,0,0,0,0,0,0,-0.340475,-0.949575,0.1885,-1.2625,-0.972,0.03225,2.82,0.9488,-0.41285,0.057725,1.9005,-1.15866666666667,0.935166666666667,517.407,1,1,1,1
24-May-2018 14:42:03,56.7777777777778,0.0908714285714286,-0.882571428571428,-0.389657142857143,0.57,-0.6255,0.275333333333333,0.201,0,0,0,0,0,0,0,-0.340475,-0.949575,0.1885,-1.2625,-0.972,0.03225,2.82,0.9488,-0.41285,0.057725,1.9005,-1.15866666666667,0.935166666666667,517.407,1,1,1,1
24-May-2018 14:42:03,56.7777777777778,0.0908714285714286,-0.882571428571428,-0.389657142857143,0.57,-0.6255,0.275333333333333,0.201,0,0,0,0,0,0,0,-0.340475,-0.949575,0.1885,-1.2625,-0.972,0.03225,2.82,0.9488,-0.41285,0.057725,1.9005,-1.15866666666667,0.935166666666667,517.407,1,1,1,1
24-May-2018 14:42:04,-108.571428571429,0.0908714285714286,-0.882571428571428,-0.389657142857143,0.57,-0.6255,0.275333333333333,0.201,0,0,0,0,0,0,0,-0.33725,-0.9505,0.1874,-1.0365,-1.585,-0.67,2.607,0.9423,-0.42132,0.02636,-1.41114285714286,1.028,-0.174,460.6135,1,1,1,1
24-May-2018 14:42:04,-108.571428571429,0.0908714285714286,-0.882571428571428,-0.389657142857143,0.57,-0.6255,0.275333333333333,0.201,0,0,0,0,0,0,0,-0.33725,-0.9505,0.1874,-1.0365,-1.585,-0.67,2.607,0.9423,-0.42132,0.02636,-1.41114285714286,1.028,-0.174,460.6135,1,1,1,1
24-May-2018 14:42:04,-108.571428571429,0.0908714285714286,-0.882571428571428,-0.389657142857143,0.57,-0.6255,0.275333333333333,0.201,0,0,0,0,0,0,0,-0.33725,-0.9505,0.1874,-1.0365,-1.585,-0.67,2.607,0.9423,-0.42132,0.02636,-1.41114285714286,1.028,-0.174,460.6135,1,1,1,1
24-May-2018 14:42:04,-108.571428571429,0.0908714285714286,-0.882571428571428,-0.389657142857143,0.57,-0.6255,0.275333333333333,0.201,0,0,0,0,0,0,0,-0.33725,-0.9505,0.1874,-1.0365,-1.585,-0.67,2.607,0.9423,-0.42132,0.02636,-1.41114285714286,1.028,-0.174,460.6135,1,1,1,1
24-May-2018 14:42:05,95,0.0908714285714286,-0.882571428571428,-0.389657142857143,0.57,-0.6255,0.275333333333333,0.201,0,0,0,0,0,0,0,-0.34475,-0.9476,0.19285,-2.59085714285714,0.334714285714286,-0.259714285714286,2.6462,0.945783333333333,-0.414866666666667,0.0371166666666667,2.39557142857143,-0.392142857142857,-1.07157142857143,461.547333333333,1,1,1,1
24-May-2018 14:42:05,95,0.0908714285714286,-0.882571428571428,-0.389657142857143,0.57,-0.6255,0.275333333333333,0.201,0,0,0,0,0,0,0,-0.34475,-0.9476,0.19285,-2.59085714285714,0.334714285714286,-0.259714285714286,2.6462,0.945783333333333,-0.414866666666667,0.0371166666666667,2.39557142857143,-0.392142857142857,-1.07157142857143,461.547333333333,1,1,1,1
24-May-2018 14:42:05,95,0.0908714285714286,-0.882571428571428,-0.389657142857143,0.57,-0.6255,0.275333333333333,0.201,0,0,0,0,0,0,0,-0.34475,-0.9476,0.19285,-2.59085714285714,0.334714285714286,-0.259714285714286,2.6462,0.945783333333333,-0.414866666666667,0.0371166666666667,2.39557142857143,-0.392142857142857,-1.07157142857143,461.547333333333,1,1,1,1
24-May-2018 14:42:05,95,0.0908714285714286,-0.882571428571428,-0.389657142857143,0.57,-0.6255,0.275333333333333,0.201,0,0,0,0,0,0,0,-0.34475,-0.9476,0.19285,-2.59085714285714,0.334714285714286,-0.259714285714286,2.6462,0.945783333333333,-0.414866666666667,0.0371166666666667,2.39557142857143,-0.392142857142857,-1.07157142857143,461.547333333333,1,1,1,1
24-May-2018 14:42:06,291.363636363636,0.0908714285714286,-0.882571428571428,-0.389657142857143,0.57,-0.6255,0.275333333333333,0.201,0,0,0,0,0,0,0,-0.344342857142857,-0.951942857142857,0.132614285714286,-1.899,-0.817,-0.1558,2.602,0.946542857142857,-0.410557142857143,0.0457571428571429,5.9985,-1.524375,-1.097625,463.761,0,1,1,1
24-May-2018 14:42:06,291.363636363636,0.0908714285714286,-0.882571428571428,-0.389657142857143,0.57,-0.6255,0.275333333333333,0.201,0,0,0,0,0,0,0,-0.344342857142857,-0.951942857142857,0.132614285714286,-1.899,-0.817,-0.1558,2.602,0.946542857142857,-0.410557142857143,0.0457571428571429,5.9985,-1.524375,-1.097625,463.761,0,1,1,1
24-May-2018 14:42:06,291.363636363636,0.0908714285714286,-0.882571428571428,-0.389657142857143,0.57,-0.6255,0.275333333333333,0.201,0,0,0,0,0,0,0,-0.344342857142857,-0.951942857142857,0.132614285714286,-1.899,-0.817,-0.1558,2.602,0.946542857142857,-0.410557142857143,0.0457571428571429,5.9985,-1.524375,-1.097625,463.761,0,1,1,1
24-May-2018 14:42:06,291.363636363636,0.0908714285714286,-0.882571428571428,-0.389657142857143,0.57,-0.6255,0.275333333333333,0.201,0,0,0,0,0,0,0,-0.344342857142857,-0.951942857142857,0.132614285714286,-1.899,-0.817,-0.1558,2.602,0.946542857142857,-0.410557142857143,0.0457571428571429,5.9985,-1.524375,-1.097625,463.761,0,1,1,1
24-May-2018 14:42:07,280,0.0908714285714286,-0.882571428571428,-0.389657142857143,0.57,-0.6255,0.275333333333333,0.201,0,0,0,0,0,0,0,-0.3335125,-0.9559,0.1169875,-0.737166666666667,-1.095,-1.4,2.5,0.955,-0.3968,0.0292166666666667,-2.988,0.8435,-1.14833333333333,448.385666666667,0,1,1,1
24-May-2018 14:42:07,280,0.0908714285714286,-0.882571428571428,-0.389657142857143,0.57,-0.6255,0.275333333333333,0.201,0,0,0,0,0,0,0,-0.3335125,-0.9559,0.1169875,-0.737166666666667,-1.095,-1.4,2.5,0.955,-0.3968,0.0292166666666667,-2.988,0.8435,-1.14833333333333,448.385666666667,0,1,1,1
24-May-2018 14:42:07,280,0.0908714285714286,-0.882571428571428,-0.389657142857143,0.57,-0.6255,0.275333333333333,0.201,0,0,0,0,0,0,0,-0.3335125,-0.9559,0.1169875,-0.737166666666667,-1.095,-1.4,2.5,0.955,-0.3968,0.0292166666666667,-2.988,0.8435,-1.14833333333333,448.385666666667,0,1,1,1
24-May-2018 14:42:07,280,0.0908714285714286,-0.882571428571428,-0.389657142857143,0.57,-0.6255,0.275333333333333,0.201,0,0,0,0,0,0,0,-0.3335125,-0.9559,0.1169875,-0.737166666666667,-1.095,-1.4,2.5,0.955,-0.3968,0.0292166666666667,-2.988,0.8435,-1.14833333333333,448.385666666667,0,1,1,1
24-May-2018 14:42:08,204.7,0.0908714285714286,-0.882571428571428,-0.389657142857143,0.57,-0.6255,0.275333333333333,0.201,0,0,0,0,0,0,0,-0.3208,-0.958566666666667,0.11695,1.08171428571429,-1.06785714285714,-0.024,2.512,0.955628571428571,-0.373014285714286,0.0787142857142857,-13.757625,9.756125,-2.92675,453.151333333333,0,1,1,1
24-May-2018 14:42:08,204.7,0.0908714285714286,-0.882571428571428,-0.389657142857143,0.57,-0.6255,0.275333333333333,0.201,0,0,0,0,0,0,0,-0.3208,-0.958566666666667,0.11695,1.08171428571429,-1.06785714285714,-0.024,2.512,0.955628571428571,-0.373014285714286,0.0787142857142857,-13.757625,9.756125,-2.92675,453.151333333333,0,1,1,1
24-May-2018 14:42:08,204.7,0.0908714285714286,-0.882571428571428,-0.389657142857143,0.57,-0.6255,0.275333333333333,0.201,0,0,0,0,0,0,0,-0.3208,-0.958566666666667,0.11695,1.08171428571429,-1.06785714285714,-0.024,2.512,0.955628571428571,-0.373014285714286,0.0787142857142857,-13.757625,9.756125,-2.92675,453.151333333333,0,1,1,1
24-May-2018 14:42:08,204.7,0.0908714285714286,-0.882571428571428,-0.389657142857143,0.57,-0.6255,0.275333333333333,0.201,0,0,0,0,0,0,0,-0.3208,-0.958566666666667,0.11695,1.08171428571429,-1.06785714285714,-0.024,2.512,0.955628571428571,-0.373014285714286,0.0787142857142857,-13.757625,9.756125,-2.92675,453.151333333333,0,1,1,1
24-May-2018 14:42:09,193.9,0.0908714285714286,-0.882571428571428,-0.389657142857143,0.57,-0.6255,0.275333333333333,0.201,0,0,0,0,0,0,0,-0.329883333333333,-0.95585,0.165983333333333,2.1462,-1.4218,0.0144,2.52383333333333,0.964228571428571,-0.3324,0.152957142857143,-0.8538,2.1098,-0.6706,534.387,0,1,1,1
24-May-2018 14:42:09,193.9,0.0908714285714286,-0.882571428571428,-0.389657142857143,0.57,-0.6255,0.275333333333333,0.201,0,0,0,0,0,0,0,-0.329883333333333,-0.95585,0.165983333333333,2.1462,-1.4218,0.0144,2.52383333333333,0.964228571428571,-0.3324,0.152957142857143,-0.8538,2.1098,-0.6706,534.387,0,1,1,1
24-May-2018 14:42:09,193.9,0.0908714285714286,-0.882571428571428,-0.389657142857143,0.57,-0.6255,0.275333333333333,0.201,0,0,0,0,0,0,0,-0.329883333333333,-0.95585,0.165983333333333,2.1462,-1.4218,0.0144,2.52383333333333,0.964228571428571,-0.3324,0.152957142857143,-0.8538,2.1098,-0.6706,534.387,0,1,1,1
24-May-2018 14:42:09,193.9,0.0908714285714286,-0.882571428571428,-0.389657142857143,0.57,-0.6255,0.275333333333333,0.201,0,0,0,0,0,0,0,-0.329883333333333,-0.95585,0.165983333333333,2.1462,-1.4218,0.0144,2.52383333333333,0.964228571428571,-0.3324,0.152957142857143,-0.8538,2.1098,-0.6706,534.387,0,1,1,1
24-May-2018 14:42:10,114.7,0.0908714285714286,-0.882571428571428,-0.389657142857143,0.57,-0.6255,0.275333333333333,0.201,0,0,0,0,0,0,0,-0.33085,-0.95065,0.175166666666667,-0.554833333333333,-1.39033333333333,0.5185,2.63175,0.965671428571429,-0.338514285714286,0.143642857142857,1.49828571428571,-0.0872857142857143,0.0871428571428572,567.3165,1,1,1,1
24-May-2018 14:42:10,114.7,0.0908714285714286,-0.882571428571428,-0.389657142857143,0.57,-0.6255,0.275333333333333,0.201,0,0,0,0,0,0,0,-0.33085,-0.95065,0.175166666666667,-0.554833333333333,-1.39033333333333,0.5185,2.63175,0.965671428571429,-0.338514285714286,0.143642857142857,1.49828571428571,-0.0872857142857143,0.0871428571428572,567.3165,1,1,1,1
24-May-2018 14:42:10,114.7,0.0908714285714286,-0.882571428571428,-0.389657142857143,0.57,-0.6255,0.275333333333333,0.201,0,0,0,0,0,0,0,-0.33085,-0.95065,0.175166666666667,-0.554833333333333,-1.39033333333333,0.5185,2.63175,0.965671428571429,-0.338514285714286,0.143642857142857,1.49828571428571,-0.0872857142857143,0.0871428571428572,567.3165,1,1,1,1
24-May-2018 14:42:10,114.7,0.0908714285714286,-0.882571428571428,-0.389657142857143,0.57,-0.6255,0.275333333333333,0.201,0,0,0,0,0,0,0,-0.33085,-0.95065,0.175166666666667,-0.554833333333333,-1.39033333333333,0.5185,2.63175,0.965671428571429,-0.338514285714286,0.143642857142857,1.49828571428571,-0.0872857142857143,0.0871428571428572,567.3165,1,1,1,1
24-May-2018 14:42:11,140.4,0.0908714285714286,-0.882571428571428,-0.389657142857143,0.57,-0.6255,0.275333333333333,0.201,0,0,0,0,0,0,0,-0.3448,-0.94645,0.174116666666667,-2.87142857142857,-5.50857142857143,0.0634285714285714,2.64975,0.969575,-0.3331,0.1368,2.03842857142857,-0.0522857142857143,0.270142857142857,559.25375,0,1,1,1
24-May-2018 14:42:11,140.4,0.0908714285714286,-0.882571428571428,-0.389657142857143,0.57,-0.6255,0.275333333333333,0.201,0,0,0,0,0,0,0,-0.3448,-0.94645,0.174116666666667,-2.87142857142857,-5.50857142857143,0.0634285714285714,2.64975,0.969575,-0.3331,0.1368,2.03842857142857,-0.0522857142857143,0.270142857142857,559.25375,0,1,1,1
24-May-2018 14:42:11,140.4,0.0908714285714286,-0.882571428571428,-0.389657142857143,0.57,-0.6255,0.275333333333333,0.201,0,0,0,0,0,0,0,-0.3448,-0.94645,0.174116666666667,-2.87142857142857,-5.50857142857143,0.0634285714285714,2.64975,0.969575,-0.3331,0.1368,2.03842857142857,-0.0522857142857143,0.270142857142857,559.25375,0,1,1,1
24-May-2018 14:42:11,140.4,0.0908714285714286,-0.882571428571428,-0.389657142857143,0.57,-0.6255,0.275333333333333,0.201,0,0,0,0,0,0,0,-0.3448,-0.94645,0.174116666666667,-2.87142857142857,-5.50857142857143,0.0634285714285714,2.64975,0.969575,-0.3331,0.1368,2.03842857142857,-0.0522857142857143,0.270142857142857,559.25375,0,1,1,1
24-May-2018 14:42:12,73,0.0908714285714286,-0.882571428571428,-0.389657142857143,0.57,-0.6255,0.275333333333333,0.201,0,0,0,0,0,0,0,-0.322716666666667,-0.960416666666667,0.1309,-6.366,-6.4418,-0.6558,2.4365,0.963716666666667,-0.339216666666667,0.14175,-0.522571428571429,0.949285714285714,0.121857142857143,559.861,0,1,1,1
24-May-2018 14:42:12,73,0.0908714285714286,-0.882571428571428,-0.389657142857143,0.57,-0.6255,0.275333333333333,0.201,0,0,0,0,0,0,0,-0.322716666666667,-0.960416666666667,0.1309,-6.366,-6.4418,-0.6558,2.4365,0.963716666666667,-0.339216666666667,0.14175,-0.522571428571429,0.949285714285714,0.121857142857143,559.861,0,1,1,1
24-May-2018 14:42:12,73,0.0908714285714286,-0.882571428571428,-0.389657142857143,0.57,-0.6255,0.275333333333333,0.201,0,0,0,0,0,0,0,-0.322716666666667,-0.960416666666667,0.1309,-6.366,-6.4418,-0.6558,2.4365,0.963716666666667,-0.339216666666667,0.14175,-0.522571428571429,0.949285714285714,0.121857142857143,559.861,0,1,1,1
24-May-2018 14:42:12,73,0.0908714285714286,-0.882571428571428,-0.389657142857143,0.57,-0.6255,0.275333333333333,0.201,0,0,0,0,0,0,0,-0.322716666666667,-0.960416666666667,0.1309,-6.366,-6.4418,-0.6558,2.4365,0.963716666666667,-0.339216666666667,0.14175,-0.522571428571429,0.949285714285714,0.121857142857143,559.861,0,1,1,1
24-May-2018 14:42:13,116.4,0.0908714285714286,-0.882571428571428,-0.389657142857143,0.57,-0.6255,0.275333333333333,0.201,0,0,0,0,0,0,0,-0.32662,-0.95616,0.15568,0.977285714285714,0.543,-0.544714285714286,2.2632,0.962966666666667,-0.352266666666667,0.138333333333333,-0.0611428571428572,0.313714285714286,-0.00871428571428571,560.436,0,1,1,1
24-May-2018 14:42:13,116.4,0.0908714285714286,-0.882571428571428,-0.389657142857143,0.57,-0.6255,0.275333333333333,0.201,0,0,0,0,0,0,0,-0.32662,-0.95616,0.15568,0.977285714285714,0.543,-0.544714285714286,2.2632,0.962966666666667,-0.352266666666667,0.138333333333333,-0.0611428571428572,0.313714285714286,-0.00871428571428571,560.436,0,1,1,1
24-May-2018 14:42:13,116.4,0.0908714285714286,-0.882571428571428,-0.389657142857143,0.57,-0.6255,0.275333333333333,0.201,0,0,0,0,0,0,0,-0.32662,-0.95616,0.15568,0.977285714285714,0.543,-0.544714285714286,2.2632,0.962966666666667,-0.352266666666667,0.138333333333333,-0.0611428571428572,0.313714285714286,-0.00871428571428571,560.436,0,1,1,1
24-May-2018 14:42:13,116.4,0.0908714285714286,-0.882571428571428,-0.389657142857143,0.57,-0.6255,0.275333333333333,0.201,0,0,0,0,0,0,0,-0.32662,-0.95616,0.15568,0.977285714285714,0.543,-0.544714285714286,2.2632,0.962966666666667,-0.352266666666667,0.138333333333333,-0.0611428571428572,0.313714285714286,-0.00871428571428571,560.436,0,1,1,1
24-May-2018 14:42:14,29.75,0.0908714285714286,-0.882571428571428,-0.389657142857143,0.57,-0.6255,0.275333333333333,0.201,0,0,0,0,0,0,0,-0.319185714285714,-0.957428571428571,0.161514285714286,0.646,-0.510571428571429,0.0527142857142857,2.326,0.965,-0.348933333333333,0.133566666666667,1.07157142857143,0.322428571428571,-0.488,555.245,0,1,1,1
24-May-2018 14:42:14,29.75,0.0908714285714286,-0.882571428571428,-0.389657142857143,0.57,-0.6255,0.275333333333333,0.201,0,0,0,0,0,0,0,-0.319185714285714,-0.957428571428571,0.161514285714286,0.646,-0.510571428571429,0.0527142857142857,2.326,0.965,-0.348933333333333,0.133566666666667,1.07157142857143,0.322428571428571,-0.488,555.245,0,1,1,1
24-May-2018 14:42:14,29.75,0.0908714285714286,-0.882571428571428,-0.389657142857143,0.57,-0.6255,0.275333333333333,0.201,0,0,0,0,0,0,0,-0.319185714285714,-0.957428571428571,0.161514285714286,0.646,-0.510571428571429,0.0527142857142857,2.326,0.965,-0.348933333333333,0.133566666666667,1.07157142857143,0.322428571428571,-0.488,555.245,0,1,1,1
24-May-2018 14:42:14,29.75,0.0908714285714286,-0.882571428571428,-0.389657142857143,0.57,-0.6255,0.275333333333333,0.201,0,0,0,0,0,0,0,-0.319185714285714,-0.957428571428571,0.161514285714286,0.646,-0.510571428571429,0.0527142857142857,2.326,0.965,-0.348933333333333,0.133566666666667,1.07157142857143,0.322428571428571,-0.488,555.245,0,1,1,1
24-May-2018 14:42:15,-22.7777777777778,0.0908714285714286,-0.882571428571428,-0.389657142857143,0.57,-0.6255,0.275333333333333,0.201,0,0,0,0,0,0,0,-0.3248,-0.954083333333333,0.175966666666667,-0.15775,-1.1175,-0.021,2.432,0.96405,-0.344316666666667,0.135816666666667,2.2155,0.416666666666667,0.0101666666666667,555.00225,1,1,1,1
24-May-2018 14:42:15,-22.7777777777778,0.0908714285714286,-0.882571428571428,-0.389657142857143,0.57,-0.6255,0.275333333333333,0.201,0,0,0,0,0,0,0,-0.3248,-0.954083333333333,0.175966666666667,-0.15775,-1.1175,-0.021,2.432,0.96405,-0.344316666666667,0.135816666666667,2.2155,0.416666666666667,0.0101666666666667,555.00225,1,1,1,1
24-May-2018 14:42:15,-22.7777777777778,0.0908714285714286,-0.882571428571428,-0.389657142857143,0.57,-0.6255,0.275333333333333,0.201,0,0,0,0,0,0,0,-0.3248,-0.954083333333333,0.175966666666667,-0.15775,-1.1175,-0.021,2.432,0.96405,-0.344316666666667,0.135816666666667,2.2155,0.416666666666667,0.0101666666666667,555.00225,1,1,1,1
24-May-2018 14:42:15,-22.7777777777778,0.0908714285714286,-0.882571428571428,-0.389657142857143,0.57,-0.6255,0.275333333333333,0.201,0,0,0,0,0,0,0,-0.3248,-0.954083333333333,0.175966666666667,-0.15775,-1.1175,-0.021,2.432,0.96405,-0.344316666666667,0.135816666666667,2.2155,0.416666666666667,0.0101666666666667,555.00225,1,1,1,1
24-May-2018 14:42:16,13.5,0.0908714285714286,-0.882571428571428,-0.389657142857143,0.57,-0.6255,0.275333333333333,0.201,0,0,0,0,0,0,0,-0.33035,-0.951783333333333,0.1837,0.834833333333333,1.852,-0.401666666666667,2.415,0.960242857142857,-0.355385714285714,0.135828571428571,1.24557142857143,0.0174285714285715,0.339857142857143,556.509,1,1,1,1
24-May-2018 14:42:16,13.5,0.0908714285714286,-0.882571428571428,-0.389657142857143,0.57,-0.6255,0.275333333333333,0.201,0,0,0,0,0,0,0,-0.33035,-0.951783333333333,0.1837,0.834833333333333,1.852,-0.401666666666667,2.415,0.960242857142857,-0.355385714285714,0.135828571428571,1.24557142857143,0.0174285714285715,0.339857142857143,556.509,1,1,1,1
24-May-2018 14:42:16,13.5,0.0908714285714286,-0.882571428571428,-0.389657142857143,0.57,-0.6255,0.275333333333333,0.201,0,0,0,0,0,0,0,-0.33035,-0.951783333333333,0.1837,0.834833333333333,1.852,-0.401666666666667,2.415,0.960242857142857,-0.355385714285714,0.135828571428571,1.24557142857143,0.0174285714285715,0.339857142857143,556.509,1,1,1,1
24-May-2018 14:42:16,13.5,0.0908714285714286,-0.882571428571428,-0.389657142857143,0.57,-0.6255,0.275333333333333,0.201,0,0,0,0,0,0,0,-0.33035,-0.951783333333333,0.1837,0.834833333333333,1.852,-0.401666666666667,2.415,0.960242857142857,-0.355385714285714,0.135828571428571,1.24557142857143,0.0174285714285715,0.339857142857143,556.509,1,1,1,1
24-May-2018 14:42:17,38.7777777777778,0.0908714285714286,-0.882571428571428,-0.389657142857143,0.57,-0.6255,0.275333333333333,0.201,0,0,0,0,0,0,0,-0.341433333333333,-0.948433333333333,0.200133333333333,2.59216666666667,0.514333333333334,1.34533333333333,2.5062,0.96235,-0.352983333333333,0.13355,2.09942857142857,-0.061,0.871142857142857,553.17325,1,1,1,1
24-May-2018 14:42:17,38.7777777777778,0.0908714285714286,-0.882571428571428,-0.389657142857143,0.57,-0.6255,0.275333333333333,0.201,0,0,0,0,0,0,0,-0.341433333333333,-0.948433333333333,0.200133333333333,2.59216666666667,0.514333333333334,1.34533333333333,2.5062,0.96235,-0.352983333333333,0.13355,2.09942857142857,-0.061,0.871142857142857,553.17325,1,1,1,1
24-May-2018 14:42:17,38.7777777777778,0.0908714285714286,-0.882571428571428,-0.389657142857143,0.57,-0.6255,0.275333333333333,0.201,0,0,0,0,0,0,0,-0.341433333333333,-0.948433333333333,0.200133333333333,2.59216666666667,0.514333333333334,1.34533333333333,2.5062,0.96235,-0.352983333333333,0.13355,2.09942857142857,-0.061,0.871142857142857,553.17325,1,1,1,1
24-May-2018 14:42:17,38.7777777777778,0.0908714285714286,-0.882571428571428,-0.389657142857143,0.57,-0.6255,0.275333333333333,0.201,0,0,0,0,0,0,0,-0.341433333333333,-0.948433333333333,0.200133333333333,2.59216666666667,0.514333333333334,1.34533333333333,2.5062,0.96235,-0.352983333333333,0.13355,2.09942857142857,-0.061,0.871142857142857,553.17325,1,1,1,1
24-May-2018 14:42:18,91.6666666666667,0.0908714285714286,-0.882571428571428,-0.389657142857143,0.57,-0.6255,0.275333333333333,0.201,0,0,0,0,0,0,0,-0.4085,-0.89528,0.13332,-26.2285,-31.8033333333333,9.087,2.417,0.955575,-0.3736,0.110875,3.25785714285714,-2.683,0.540142857142857,532.987,1,1,1,1
24-May-2018 14:42:18,91.6666666666667,0.0908714285714286,-0.882571428571428,-0.389657142857143,0.57,-0.6255,0.275333333333333,0.201,0,0,0,0,0,0,0,-0.4085,-0.89528,0.13332,-26.2285,-31.8033333333333,9.087,2.417,0.955575,-0.3736,0.110875,3.25785714285714,-2.683,0.540142857142857,532.987,1,1,1,1
24-May-2018 14:42:18,91.6666666666667,0.0908714285714286,-0.882571428571428,-0.389657142857143,0.57,-0.6255,0.275333333333333,0.201,0,0,0,0,0,0,0,-0.4085,-0.89528,0.13332,-26.2285,-31.8033333333333,9.087,2.417,0.955575,-0.3736,0.110875,3.25785714285714,-2.683,0.540142857142857,532.987,1,1,1,1
24-May-2018 14:42:18,91.6666666666667,0.0908714285714286,-0.882571428571428,-0.389657142857143,0.57,-0.6255,0.275333333333333,0.201,0,0,0,0,0,0,0,-0.4085,-0.89528,0.13332,-26.2285,-31.8033333333333,9.087,2.417,0.955575,-0.3736,0.110875,3.25785714285714,-2.683,0.540142857142857,532.987,1,1,1,1
24-May-2018 14:42:19,110,0.0908714285714286,-0.882571428571428,-0.389657142857143,0.57,-0.6255,0.275333333333333,0.201,0,0,0,0,0,0,0,-0.291585714285714,-0.956971428571428,-0.148157142857143,16.0148333333333,10.3716666666667,6.01616666666667,0.9098,0.961183333333333,-0.376033333333333,0.0923333333333333,-1.12371428571429,1.53314285714286,-0.304857142857143,514.853666666667,1,1,1,1
24-May-2018 14:42:19,110,0.0908714285714286,-0.882571428571428,-0.389657142857143,0.57,-0.6255,0.275333333333333,0.201,0,0,0,0,0,0,0,-0.291585714285714,-0.956971428571428,-0.148157142857143,16.0148333333333,10.3716666666667,6.01616666666667,0.9098,0.961183333333333,-0.376033333333333,0.0923333333333333,-1.12371428571429,1.53314285714286,-0.304857142857143,514.853666666667,1,1,1,1
24-May-2018 14:42:19,110,0.0908714285714286,-0.882571428571428,-0.389657142857143,0.57,-0.6255,0.275333333333333,0.201,0,0,0,0,0,0,0,-0.291585714285714,-0.956971428571428,-0.148157142857143,16.0148333333333,10.3716666666667,6.01616666666667,0.9098,0.961183333333333,-0.376033333333333,0.0923333333333333,-1.12371428571429,1.53314285714286,-0.304857142857143,514.853666666667,1,1,1,1
24-May-2018 14:42:19,110,0.0908714285714286,-0.882571428571428,-0.389657142857143,0.57,-0.6255,0.275333333333333,0.201,0,0,0,0,0,0,0,-0.291585714285714,-0.956971428571428,-0.148157142857143,16.0148333333333,10.3716666666667,6.01616666666667,0.9098,0.961183333333333,-0.376033333333333,0.0923333333333333,-1.12371428571429,1.53314285714286,-0.304857142857143,514.853666666667,1,1,1,1
24-May-2018 14:42:20,169.2,0.0908714285714286,-0.882571428571428,-0.389657142857143,0.57,-0.6255,0.275333333333333,0.201,0,0,0,0,0,0,0,-0.3676125,-0.892325,0.1581625,9.64975,3.855,-6.548,1.241,0.957957142857143,-0.370814285714286,0.0931857142857143,0.461571428571429,0.993142857142857,-0.0435714285714286,516.522,1,0,1,0
24-May-2018 14:42:20,169.2,0.0908714285714286,-0.882571428571428,-0.389657142857143,0.57,-0.6255,0.275333333333333,0.201,0,0,0,0,0,0,0,-0.3676125,-0.892325,0.1581625,9.64975,3.855,-6.548,1.241,0.957957142857143,-0.370814285714286,0.0931857142857143,0.461571428571429,0.993142857142857,-0.0435714285714286,516.522,1,0,1,0
24-May-2018 14:42:20,169.2,0.0908714285714286,-0.882571428571428,-0.389657142857143,0.57,-0.6255,0.275333333333333,0.201,0,0,0,0,0,0,0,-0.3676125,-0.892325,0.1581625,9.64975,3.855,-6.548,1.241,0.957957142857143,-0.370814285714286,0.0931857142857143,0.461571428571429,0.993142857142857,-0.0435714285714286,516.522,1,0,1,0
24-May-2018 14:42:20,169.2,0.0908714285714286,-0.882571428571428,-0.389657142857143,0.57,-0.6255,0.275333333333333,0.201,0,0,0,0,0,0,0,-0.3676125,-0.892325,0.1581625,9.64975,3.855,-6.548,1.241,0.957957142857143,-0.370814285714286,0.0931857142857143,0.461571428571429,0.993142857142857,-0.0435714285714286,516.522,1,0,1,0
24-May-2018 14:42:21,-3.77777777777778,0.0908714285714286,-0.882571428571428,-0.389657142857143,0.57,-0.6255,0.275333333333333,0.201,0,0,0,0,0,0,0,-0.3786,-0.936633333333333,-0.11575,-3.05433333333333,-21.15,1.62716666666667,0.982,0.95782,-0.37448,0.11234,-0.775142857142857,1.21957142857143,-0.740571428571429,524.274333333333,1,0,1,0
24-May-2018 14:42:21,-3.77777777777778,0.0908714285714286,-0.882571428571428,-0.389657142857143,0.57,-0.6255,0.275333333333333,0.201,0,0,0,0,0,0,0,-0.3786,-0.936633333333333,-0.11575,-3.05433333333333,-21.15,1.62716666666667,0.982,0.95782,-0.37448,0.11234,-0.775142857142857,1.21957142857143,-0.740571428571429,524.274333333333,1,0,1,0
24-May-2018 14:42:21,-3.77777777777778,0.0908714285714286,-0.882571428571428,-0.389657142857143,0.57,-0.6255,0.275333333333333,0.201,0,0,0,0,0,0,0,-0.3786,-0.936633333333333,-0.11575,-3.05433333333333,-21.15,1.62716666666667,0.982,0.95782,-0.37448,0.11234,-0.775142857142857,1.21957142857143,-0.740571428571429,524.274333333333,1,0,1,0
24-May-2018 14:42:21,-3.77777777777778,0.0908714285714286,-0.882571428571428,-0.389657142857143,0.57,-0.6255,0.275333333333333,0.201,0,0,0,0,0,0,0,-0.3786,-0.936633333333333,-0.11575,-3.05433333333333,-21.15,1.62716666666667,0.982,0.95782,-0.37448,0.11234,-0.775142857142857,1.21957142857143,-0.740571428571429,524.274333333333,1,0,1,0
24-May-2018 14:42:22,-155,0.0908714285714286,-0.882571428571428,-0.389657142857143,0.57,-0.6255,0.275333333333333,0.201,0,0,0,0,0,0,0,-0.367614285714286,-0.910228571428571,0.212385714285714,-1.834,-41.9,5.037,0.886666666666667,0.960385714285714,-0.360628571428571,0.120671428571429,1.06725,0.686,0.221125,543.191,1,1,1,1
24-May-2018 14:42:22,-155,0.0908714285714286,-0.882571428571428,-0.389657142857143,0.57,-0.6255,0.275333333333333,0.201,0,0,0,0,0,0,0,-0.367614285714286,-0.910228571428571,0.212385714285714,-1.834,-41.9,5.037,0.886666666666667,0.960385714285714,-0.360628571428571,0.120671428571429,1.06725,0.686,0.221125,543.191,1,1,1,1
24-May-2018 14:42:22,-155,0.0908714285714286,-0.882571428571428,-0.389657142857143,0.57,-0.6255,0.275333333333333,0.201,0,0,0,0,0,0,0,-0.367614285714286,-0.910228571428571,0.212385714285714,-1.834,-41.9,5.037,0.886666666666667,0.960385714285714,-0.360628571428571,0.120671428571429,1.06725,0.686,0.221125,543.191,1,1,1,1
24-May-2018 14:42:22,-155,0.0908714285714286,-0.882571428571428,-0.389657142857143,0.57,-0.6255,0.275333333333333,0.201,0,0,0,0,0,0,0,-0.367614285714286,-0.910228571428571,0.212385714285714,-1.834,-41.9,5.037,0.886666666666667,0.960385714285714,-0.360628571428571,0.120671428571429,1.06725,0.686,0.221125,543.191,1,1,1,1
24-May-2018 14:42:23,-144.777777777778,0.0908714285714286,-0.882571428571428,-0.389657142857143,0.57,-0.6255,0.275333333333333,0.201,0,0,0,0,0,0,0,-0.364483333333333,-0.91625,0.240733333333333,1.38233333333333,4.78616666666667,0.844333333333333,0.9628,0.95255,-0.376725,0.1398625,5.259,-0.7925,-0.01525,549.944,1,1,1,0
24-May-2018 14:42:23,-144.777777777778,0.0908714285714286,-0.882571428571428,-0.389657142857143,0.57,-0.6255,0.275333333333333,0.201,0,0,0,0,0,0,0,-0.364483333333333,-0.91625,0.240733333333333,1.38233333333333,4.78616666666667,0.844333333333333,0.9628,0.95255,-0.376725,0.1398625,5.259,-0.7925,-0.01525,549.944,1,1,1,0
24-May-2018 14:42:23,-144.777777777778,0.0908714285714286,-0.882571428571428,-0.389657142857143,0.57,-0.6255,0.275333333333333,0.201,0,0,0,0,0,0,0,-0.364483333333333,-0.91625,0.240733333333333,1.38233333333333,4.78616666666667,0.844333333333333,0.9628,0.95255,-0.376725,0.1398625,5.259,-0.7925,-0.01525,549.944,1,1,1,0
24-May-2018 14:42:23,-144.777777777778,0.0908714285714286,-0.882571428571428,-0.389657142857143,0.57,-0.6255,0.275333333333333,0.201,0,0,0,0,0,0,0,-0.364483333333333,-0.91625,0.240733333333333,1.38233333333333,4.78616666666667,0.844333333333333,0.9628,0.95255,-0.376725,0.1398625,5.259,-0.7925,-0.01525,549.944,1,1,1,0
24-May-2018 14:42:24,-52.6666666666667,0.0908714285714286,-0.882571428571428,-0.389657142857143,0.57,-0.6255,0.275333333333333,0.201,0,0,0,0,0,0,0,-0.365071428571429,-0.928871428571428,0.204385714285714,-5.69885714285714,14.2487142857143,-2.86442857142857,0.355,0.9638,-0.364916666666667,0.0987666666666667,13.408,-6.89022222222222,0.515,495.921,1,1,1,0
24-May-2018 14:42:24,-52.6666666666667,0.0908714285714286,-0.882571428571428,-0.389657142857143,0.57,-0.6255,0.275333333333333,0.201,0,0,0,0,0,0,0,-0.365071428571429,-0.928871428571428,0.204385714285714,-5.69885714285714,14.2487142857143,-2.86442857142857,0.355,0.9638,-0.364916666666667,0.0987666666666667,13.408,-6.89022222222222,0.515,495.921,1,1,1,0
24-May-2018 14:42:24,-52.6666666666667,0.0908714285714286,-0.882571428571428,-0.389657142857143,0.57,-0.6255,0.275333333333333,0.201,0,0,0,0,0,0,0,-0.365071428571429,-0.928871428571428,0.204385714285714,-5.69885714285714,14.2487142857143,-2.86442857142857,0.355,0.9638,-0.364916666666667,0.0987666666666667,13.408,-6.89022222222222,0.515,495.921,1,1,1,0
24-May-2018 14:42:24,-52.6666666666667,0.0908714285714286,-0.882571428571428,-0.389657142857143,0.57,-0.6255,0.275333333333333,0.201,0,0,0,0,0,0,0,-0.365071428571429,-0.928871428571428,0.204385714285714,-5.69885714285714,14.2487142857143,-2.86442857142857,0.355,0.9638,-0.364916666666667,0.0987666666666667,13.408,-6.89022222222222,0.515,495.921,1,1,1,0
24-May-2018 14:42:25,-103.555555555556,0.0908714285714286,-0.882571428571428,-0.389657142857143,0.57,-0.6255,0.275333333333333,0.201,0,0,0,0,0,0,0,-0.41434,-0.9055,-0.1564,-5.0918,6.3496,0.7834,0.5872,0.964725,-0.35655,0.094725,-2.98771428571429,2.39542857142857,-0.914857142857143,459.139666666667,1,1,1,0
24-May-2018 14:42:25,-103.555555555556,0.0908714285714286,-0.882571428571428,-0.389657142857143,0.57,-0.6255,0.275333333333333,0.201,0,0,0,0,0,0,0,-0.41434,-0.9055,-0.1564,-5.0918,6.3496,0.7834,0.5872,0.964725,-0.35655,0.094725,-2.98771428571429,2.39542857142857,-0.914857142857143,459.139666666667,1,1,1,0
24-May-2018 14:42:25,-103.555555555556,0.0908714285714286,-0.882571428571428,-0.389657142857143,0.57,-0.6255,0.275333333333333,0.201,0,0,0,0,0,0,0,-0.41434,-0.9055,-0.1564,-5.0918,6.3496,0.7834,0.5872,0.964725,-0.35655,0.094725,-2.98771428571429,2.39542857142857,-0.914857142857143,459.139666666667,1,1,1,0
24-May-2018 14:42:25,-103.555555555556,0.0908714285714286,-0.882571428571428,-0.389657142857143,0.57,-0.6255,0.275333333333333,0.201,0,0,0,0,0,0,0,-0.41434,-0.9055,-0.1564,-5.0918,6.3496,0.7834,0.5872,0.964725,-0.35655,0.094725,-2.98771428571429,2.39542857142857,-0.914857142857143,459.139666666667,1,1,1,0
24-May-2018 14:42:26,-168.454545454545,0.0908714285714286,-0.882571428571428,-0.389657142857143,0.57,-0.6255,0.275333333333333,0.201,0,0,0,0,0,0,0,-0.347971428571429,-0.940014285714286,0.0292,18.1828,-17.8018,4.6574,0.7344,0.9664,-0.34866,0.09372,-0.846,0.914625,-0.289625,476.568,1,1,1,1
24-May-2018 14:42:26,-168.454545454545,0.0908714285714286,-0.882571428571428,-0.389657142857143,0.57,-0.6255,0.275333333333333,0.201,0,0,0,0,0,0,0,-0.347971428571429,-0.940014285714286,0.0292,18.1828,-17.8018,4.6574,0.7344,0.9664,-0.34866,0.09372,-0.846,0.914625,-0.289625,476.568,1,1,1,1
24-May-2018 14:42:26,-168.454545454545,0.0908714285714286,-0.882571428571428,-0.389657142857143,0.57,-0.6255,0.275333333333333,0.201,0,0,0,0,0,0,0,-0.347971428571429,-0.940014285714286,0.0292,18.1828,-17.8018,4.6574,0.7344,0.9664,-0.34866,0.09372,-0.846,0.914625,-0.289625,476.568,1,1,1,1
24-May-2018 14:42:26,-168.454545454545,0.0908714285714286,-0.882571428571428,-0.389657142857143,0.57,-0.6255,0.275333333333333,0.201,0,0,0,0,0,0,0,-0.347971428571429,-0.940014285714286,0.0292,18.1828,-17.8018,4.6574,0.7344,0.9664,-0.34866,0.09372,-0.846,0.914625,-0.289625,476.568,1,1,1,1
24-May-2018 14:42:27,-210.3,0.0908714285714286,-0.882571428571428,-0.389657142857143,0.57,-0.6255,0.275333333333333,0.201,0,0,0,0,0,0,0,-0.34054,-0.95318,0.22848,0.246,-4.47675,-5.66,1.086,0.970214285714286,-0.348357142857143,0.0988,0.313571428571429,0.740428571428571,-0.278714285714286,481.243,1,1,1,1
24-May-2018 14:42:27,-210.3,0.0908714285714286,-0.882571428571428,-0.389657142857143,0.57,-0.6255,0.275333333333333,0.201,0,0,0,0,0,0,0,-0.34054,-0.95318,0.22848,0.246,-4.47675,-5.66,1.086,0.970214285714286,-0.348357142857143,0.0988,0.313571428571429,0.740428571428571,-0.278714285714286,481.243,1,1,1,1
24-May-2018 14:42:27,-210.3,0.0908714285714286,-0.882571428571428,-0.389657142857143,0.57,-0.6255,0.275333333333333,0.201,0,0,0,0,0,0,0,-0.34054,-0.95318,0.22848,0.246,-4.47675,-5.66,1.086,0.970214285714286,-0.348357142857143,0.0988,0.313571428571429,0.740428571428571,-0.278714285714286,481.243,1,1,1,1
24-May-2018 14:42:27,-210.3,0.0908714285714286,-0.882571428571428,-0.389657142857143,0.57,-0.6255,0.275333333333333,0.201,0,0,0,0,0,0,0,-0.34054,-0.95318,0.22848,0.246,-4.47675,-5.66,1.086,0.970214285714286,-0.348357142857143,0.0988,0.313571428571429,0.740428571428571,-0.278714285714286,481.243,1,1,1,1
24-May-2018 14:42:28,-199.6,0.0908714285714286,-0.882571428571428,-0.389657142857143,0.57,-0.6255,0.275333333333333,0.201,0,0,0,0,0,0,0,-0.3755,-0.9327,0.221866666666667,0.0363999999999999,3.366,0.295,1.083,0.968166666666667,-0.346416666666667,0.102666666666667,-3.15722222222222,1.89011111111111,-0.542,493.718,1,1,1,0
24-May-2018 14:42:28,-199.6,0.0908714285714286,-0.882571428571428,-0.389657142857143,0.57,-0.6255,0.275333333333333,0.201,0,0,0,0,0,0,0,-0.3755,-0.9327,0.221866666666667,0.0363999999999999,3.366,0.295,1.083,0.968166666666667,-0.346416666666667,0.102666666666667,-3.15722222222222,1.89011111111111,-0.542,493.718,1,1,1,0
24-May-2018 14:42:28,-199.6,0.0908714285714286,-0.882571428571428,-0.389657142857143,0.57,-0.6255,0.275333333333333,0.201,0,0,0,0,0,0,0,-0.3755,-0.9327,0.221866666666667,0.0363999999999999,3.366,0.295,1.083,0.968166666666667,-0.346416666666667,0.102666666666667,-3.15722222222222,1.89011111111111,-0.542,493.718,1,1,1,0
24-May-2018 14:42:28,-199.6,0.0908714285714286,-0.882571428571428,-0.389657142857143,0.57,-0.6255,0.275333333333333,0.201,0,0,0,0,0,0,0,-0.3755,-0.9327,0.221866666666667,0.0363999999999999,3.366,0.295,1.083,0.968166666666667,-0.346416666666667,0.102666666666667,-3.15722222222222,1.89011111111111,-0.542,493.718,1,1,1,0
24-May-2018 14:42:29,-147.555555555556,0.0908714285714286,-0.882571428571428,-0.389657142857143,0.57,-0.6255,0.275333333333333,0.201,0,0,0,0,0,0,0,-0.518828571428571,-0.9026,0.111028571428571,5.78366666666667,26.1338333333333,10.5968333333333,0.7605,0.971928571428571,-0.330157142857143,0.113857142857143,-3.33628571428571,1.68985714285714,-3.64114285714286,505.061333333333,1,1,1,0
24-May-2018 14:42:29,-147.555555555556,0.0908714285714286,-0.882571428571428,-0.389657142857143,0.57,-0.6255,0.275333333333333,0.201,0,0,0,0,0,0,0,-0.518828571428571,-0.9026,0.111028571428571,5.78366666666667,26.1338333333333,10.5968333333333,0.7605,0.971928571428571,-0.330157142857143,0.113857142857143,-3.33628571428571,1.68985714285714,-3.64114285714286,505.061333333333,1,1,1,0
24-May-2018 14:42:29,-147.555555555556,0.0908714285714286,-0.882571428571428,-0.389657142857143,0.57,-0.6255,0.275333333333333,0.201,0,0,0,0,0,0,0,-0.518828571428571,-0.9026,0.111028571428571,5.78366666666667,26.1338333333333,10.5968333333333,0.7605,0.971928571428571,-0.330157142857143,0.113857142857143,-3.33628571428571,1.68985714285714,-3.64114285714286,505.061333333333,1,1,1,0
24-May-2018 14:42:29,-147.555555555556,0.0908714285714286,-0.882571428571428,-0.389657142857143,0.57,-0.6255,0.275333333333333,0.201,0,0,0,0,0,0,0,-0.518828571428571,-0.9026,0.111028571428571,5.78366666666667,26.1338333333333,10.5968333333333,0.7605,0.971928571428571,-0.330157142857143,0.113857142857143,-3.33628571428571,1.68985714285714,-3.64114285714286,505.061333333333,1,1,1,0
24-May-2018 14:42:30,-150.2,0.0908714285714286,-0.882571428571428,-0.389657142857143,0.57,-0.6255,0.275333333333333,0.201,0,0,0,0,0,0,0,-0.61112,-0.78702,0.32388,16.06525,-14.253875,14.426125,0.242333333333333,0.959925,-0.3362625,0.17975,27.378,-7.218,10.8385,541.782,1,1,1,0
24-May-2018 14:42:30,-150.2,0.0908714285714286,-0.882571428571428,-0.389657142857143,0.57,-0.6255,0.275333333333333,0.201,0,0,0,0,0,0,0,-0.61112,-0.78702,0.32388,16.06525,-14.253875,14.426125,0.242333333333333,0.959925,-0.3362625,0.17975,27.378,-7.218,10.8385,541.782,1,1,1,0
24-May-2018 14:42:30,-150.2,0.0908714285714286,-0.882571428571428,-0.389657142857143,0.57,-0.6255,0.275333333333333,0.201,0,0,0,0,0,0,0,-0.61112,-0.78702,0.32388,16.06525,-14.253875,14.426125,0.242333333333333,0.959925,-0.3362625,0.17975,27.378,-7.218,10.8385,541.782,1,1,1,0
24-May-2018 14:42:30,-150.2,0.0908714285714286,-0.882571428571428,-0.389657142857143,0.57,-0.6255,0.275333333333333,0.201,0,0,0,0,0,0,0,-0.61112,-0.78702,0.32388,16.06525,-14.253875,14.426125,0.242333333333333,0.959925,-0.3362625,0.17975,27.378,-7.218,10.8385,541.782,1,1,1,0
24-May-2018 14:42:31,-94.9,0.0908714285714286,-0.882571428571428,-0.389657142857143,0.57,-0.6255,0.275333333333333,0.201,0,0,0,0,0,0,0,-0.63304,-0.807,0.19338,-9.62916666666667,12.0616666666667,-13.025,0.045,0.966325,-0.4217125,-0.0142375,32.1514285714286,-14.5382857142857,3.67585714285714,431.451,1,1,1,1
24-May-2018 14:42:31,-94.9,0.0908714285714286,-0.882571428571428,-0.389657142857143,0.57,-0.6255,0.275333333333333,0.201,0,0,0,0,0,0,0,-0.63304,-0.807,0.19338,-9.62916666666667,12.0616666666667,-13.025,0.045,0.966325,-0.4217125,-0.0142375,32.1514285714286,-14.5382857142857,3.67585714285714,431.451,1,1,1,1
24-May-2018 14:42:31,-94.9,0.0908714285714286,-0.882571428571428,-0.389657142857143,0.57,-0.6255,0.275333333333333,0.201,0,0,0,0,0,0,0,-0.63304,-0.807,0.19338,-9.62916666666667,12.0616666666667,-13.025,0.045,0.966325,-0.4217125,-0.0142375,32.1514285714286,-14.5382857142857,3.67585714285714,431.451,1,1,1,1
24-May-2018 14:42:31,-94.9,0.0908714285714286,-0.882571428571428,-0.389657142857143,0.57,-0.6255,0.275333333333333,0.201,0,0,0,0,0,0,0,-0.63304,-0.807,0.19338,-9.62916666666667,12.0616666666667,-13.025,0.045,0.966325,-0.4217125,-0.0142375,32.1514285714286,-14.5382857142857,3.67585714285714,431.451,1,1,1,1
24-May-2018 14:42:32,-10.4,0.0908714285714286,-0.882571428571428,-0.389657142857143,0.57,-0.6255,0.275333333333333,0.201,0,0,0,0,0,0,0,-0.504,-0.913525,0.147325,1.75783333333333,-14.465,-4.7925,0.781833333333333,0.941628571428571,-0.405671428571429,0.194528571428571,-59.1871666666667,28.1098333333333,-16.1078333333333,423.0825,1,1,1,1
24-May-2018 14:42:32,-10.4,0.0908714285714286,-0.882571428571428,-0.389657142857143,0.57,-0.6255,0.275333333333333,0.201,0,0,0,0,0,0,0,-0.504,-0.913525,0.147325,1.75783333333333,-14.465,-4.7925,0.781833333333333,0.941628571428571,-0.405671428571429,0.194528571428571,-59.1871666666667,28.1098333333333,-16.1078333333333,423.0825,1,1,1,1
24-May-2018 14:42:32,-10.4,0.0908714285714286,-0.882571428571428,-0.389657142857143,0.57,-0.6255,0.275333333333333,0.201,0,0,0,0,0,0,0,-0.504,-0.913525,0.147325,1.75783333333333,-14.465,-4.7925,0.781833333333333,0.941628571428571,-0.405671428571429,0.194528571428571,-59.1871666666667,28.1098333333333,-16.1078333333333,423.0825,1,1,1,1
24-May-2018 14:42:32,-10.4,0.0908714285714286,-0.882571428571428,-0.389657142857143,0.57,-0.6255,0.275333333333333,0.201,0,0,0,0,0,0,0,-0.504,-0.913525,0.147325,1.75783333333333,-14.465,-4.7925,0.781833333333333,0.941628571428571,-0.405671428571429,0.194528571428571,-59.1871666666667,28.1098333333333,-16.1078333333333,423.0825,1,1,1,1
24-May-2018 14:42:33,137.666666666667,0.0908714285714286,-0.882571428571428,-0.389657142857143,0.57,-0.6255,0.275333333333333,0.201,0,0,0,0,0,0,0,-0.427666666666667,-0.920144444444444,0.164444444444444,-4.52383333333333,2.24183333333333,-6.27983333333333,0.859,0.82284,-0.41624,0.45252,35.6464,7.0852,9.366,641.516,1,1,1,1
24-May-2018 14:42:33,137.666666666667,0.0908714285714286,-0.882571428571428,-0.389657142857143,0.57,-0.6255,0.275333333333333,0.201,0,0,0,0,0,0,0,-0.427666666666667,-0.920144444444444,0.164444444444444,-4.52383333333333,2.24183333333333,-6.27983333333333,0.859,0.82284,-0.41624,0.45252,35.6464,7.0852,9.366,641.516,1,1,1,1
24-May-2018 14:42:33,137.666666666667,0.0908714285714286,-0.882571428571428,-0.389657142857143,0.57,-0.6255,0.275333333333333,0.201,0,0,0,0,0,0,0,-0.427666666666667,-0.920144444444444,0.164444444444444,-4.52383333333333,2.24183333333333,-6.27983333333333,0.859,0.82284,-0.41624,0.45252,35.6464,7.0852,9.366,641.516,1,1,1,1
24-May-2018 14:42:33,137.666666666667,0.0908714285714286,-0.882571428571428,-0.389657142857143,0.57,-0.6255,0.275333333333333,0.201,0,0,0,0,0,0,0,-0.427666666666667,-0.920144444444444,0.164444444444444,-4.52383333333333,2.24183333333333,-6.27983333333333,0.859,0.82284,-0.41624,0.45252,35.6464,7.0852,9.366,641.516,1,1,1,1
24-May-2018 14:42:34,142,0.0908714285714286,-0.882571428571428,-0.389657142857143,0.57,-0.6255,0.275333333333333,0.201,0,0,0,0,0,0,0,-0.4417,-0.906016666666667,0.210983333333333,1.344,-1.09357142857143,1.16871428571429,0.7566,0.8441,-0.454166666666667,0.443233333333333,36.6191111111111,-27.3374444444444,30.8266666666667,663.07075,1,0,1,1
24-May-2018 14:42:34,142,0.0908714285714286,-0.882571428571428,-0.389657142857143,0.57,-0.6255,0.275333333333333,0.201,0,0,0,0,0,0,0,-0.4417,-0.906016666666667,0.210983333333333,1.344,-1.09357142857143,1.16871428571429,0.7566,0.8441,-0.454166666666667,0.443233333333333,36.6191111111111,-27.3374444444444,30.8266666666667,663.07075,1,0,1,1
24-May-2018 14:42:34,142,0.0908714285714286,-0.882571428571428,-0.389657142857143,0.57,-0.6255,0.275333333333333,0.201,0,0,0,0,0,0,0,-0.4417,-0.906016666666667,0.210983333333333,1.344,-1.09357142857143,1.16871428571429,0.7566,0.8441,-0.454166666666667,0.443233333333333,36.6191111111111,-27.3374444444444,30.8266666666667,663.07075,1,0,1,1
24-May-2018 14:42:34,142,0.0908714285714286,-0.882571428571428,-0.389657142857143,0.57,-0.6255,0.275333333333333,0.201,0,0,0,0,0,0,0,-0.4417,-0.906016666666667,0.210983333333333,1.344,-1.09357142857143,1.16871428571429,0.7566,0.8441,-0.454166666666667,0.443233333333333,36.6191111111111,-27.3374444444444,30.8266666666667,663.07075,1,0,1,1
24-May-2018 14:42:35,193.555555555556,0.0908714285714286,-0.882571428571428,-0.389657142857143,0.57,-0.6255,0.275333333333333,0.201,0,0,0,0,0,0,0,-0.438271428571429,-0.908942857142857,0.2059,0.271428571428571,0.289428571428571,0.48,0.414,0.89184,-0.4441,0.23338,0.670800000000001,-11.2196,-7.9146,561.180666666667,1,0,1,1
24-May-2018 14:42:35,193.555555555556,0.0908714285714286,-0.882571428571428,-0.389657142857143,0.57,-0.6255,0.275333333333333,0.201,0,0,0,0,0,0,0,-0.438271428571429,-0.908942857142857,0.2059,0.271428571428571,0.289428571428571,0.48,0.414,0.89184,-0.4441,0.23338,0.670800000000001,-11.2196,-7.9146,561.180666666667,1,0,1,1
24-May-2018 14:42:35,193.555555555556,0.0908714285714286,-0.882571428571428,-0.389657142857143,0.57,-0.6255,0.275333333333333,0.201,0,0,0,0,0,0,0,-0.438271428571429,-0.908942857142857,0.2059,0.271428571428571,0.289428571428571,0.48,0.414,0.89184,-0.4441,0.23338,0.670800000000001,-11.2196,-7.9146,561.180666666667,1,0,1,1
24-May-2018 14:42:35,193.555555555556,0.0908714285714286,-0.882571428571428,-0.389657142857143,0.57,-0.6255,0.275333333333333,0.201,0,0,0,0,0,0,0,-0.438271428571429,-0.908942857142857,0.2059,0.271428571428571,0.289428571428571,0.48,0.414,0.89184,-0.4441,0.23338,0.670800000000001,-11.2196,-7.9146,561.180666666667,1,0,1,1
24-May-2018 14:42:36,59.4444444444444,0.0908714285714286,-0.882571428571428,-0.389657142857143,0.57,-0.6255,0.275333333333333,0.201,0,0,0,0,0,0,0,-0.449066666666667,-0.904033333333333,0.2073,-1.6184,-1.825,-0.74,0.6206,1.00018571428571,-0.4092,0.0389285714285714,23.4388,-31.4138,-6.0976,459.0785,1,1,1,1
24-May-2018 14:42:36,59.4444444444444,0.0908714285714286,-0.882571428571428,-0.389657142857143,0.57,-0.6255,0.275333333333333,0.201,0,0,0,0,0,0,0,-0.449066666666667,-0.904033333333333,0.2073,-1.6184,-1.825,-0.74,0.6206,1.00018571428571,-0.4092,0.0389285714285714,23.4388,-31.4138,-6.0976,459.0785,1,1,1,1
24-May-2018 14:42:36,59.4444444444444,0.0908714285714286,-0.882571428571428,-0.389657142857143,0.57,-0.6255,0.275333333333333,0.201,0,0,0,0,0,0,0,-0.449066666666667,-0.904033333333333,0.2073,-1.6184,-1.825,-0.74,0.6206,1.00018571428571,-0.4092,0.0389285714285714,23.4388,-31.4138,-6.0976,459.0785,1,1,1,1
24-May-2018 14:42:36,59.4444444444444,0.0908714285714286,-0.882571428571428,-0.389657142857143,0.57,-0.6255,0.275333333333333,0.201,0,0,0,0,0,0,0,-0.449066666666667,-0.904033333333333,0.2073,-1.6184,-1.825,-0.74,0.6206,1.00018571428571,-0.4092,0.0389285714285714,23.4388,-31.4138,-6.0976,459.0785,1,1,1,1
24-May-2018 14:42:37,123,0.0908714285714286,-0.882571428571428,-0.389657142857143,0.57,-0.6255,0.275333333333333,0.201,0,0,0,0,0,0,0,-0.43515,-0.9075,0.21455,0.403,-0.292571428571429,-0.0768571428571429,0.742333333333333,0.917066666666667,-0.443233333333333,-0.0743666666666667,-6.7682,-10.7684,-5.5852,435.0338,1,0,1,1
24-May-2018 14:42:37,123,0.0908714285714286,-0.882571428571428,-0.389657142857143,0.57,-0.6255,0.275333333333333,0.201,0,0,0,0,0,0,0,-0.43515,-0.9075,0.21455,0.403,-0.292571428571429,-0.0768571428571429,0.742333333333333,0.917066666666667,-0.443233333333333,-0.0743666666666667,-6.7682,-10.7684,-5.5852,435.0338,1,0,1,1
24-May-2018 14:42:37,123,0.0908714285714286,-0.882571428571428,-0.389657142857143,0.57,-0.6255,0.275333333333333,0.201,0,0,0,0,0,0,0,-0.43515,-0.9075,0.21455,0.403,-0.292571428571429,-0.0768571428571429,0.742333333333333,0.917066666666667,-0.443233333333333,-0.0743666666666667,-6.7682,-10.7684,-5.5852,435.0338,1,0,1,1
24-May-2018 14:42:37,123,0.0908714285714286,-0.882571428571428,-0.389657142857143,0.57,-0.6255,0.275333333333333,0.201,0,0,0,0,0,0,0,-0.43515,-0.9075,0.21455,0.403,-0.292571428571429,-0.0768571428571429,0.742333333333333,0.917066666666667,-0.443233333333333,-0.0743666666666667,-6.7682,-10.7684,-5.5852,435.0338,1,0,1,1
