TIME,HELMET_RAW,BELT_ACC_X,BELT_ACC_Y,BELT_ACC_Z,BELT_ANG_X,BELT_ANG_Y,BELT_ANG_Z,BELT_LUMINOSITY,NECK_ACC_X,NECK_ACC_Y,NECK_ACC_Z,NECK_ANG_X,NECK_ANG_Y,NECK_ANG_Z,NECK_LUMINOSITY,PCKT_ACC_X,PCKT_ACC_Y,PCKT_ACC_Z,PCKT_ANG_X,PCKT_ANG_Y,PCKT_ANG_Z,PCKT_LUMINOSITY,WRST_ACC_X,WRST_ACC_Y,WRST_ACC_Z,WRST_ANG_X,WRST_ANG_Y,WRST_ANG_Z,WRST_LUMINOSITY,IR_1,IR_2,IR_3,IR_4
24-May-2018 12:24:38,140.142857142857,0.930433333333333,0.0103833333333333,-0.216133333333333,0.453714285714286,0.453285714285714,0.261428571428571,284.2875,-0.83846,0.06604,-0.6125,-1.03275,-0.408125,0.36,61.854,0.86748,-0.43912,0.17136,46.9625,-21.485,0.9315,3.298,-0.974166666666667,-0.160633333333333,0.00251666666666667,-76.72275,-20.747,20.015,602.4105,1,1,1,0
24-May-2018 12:24:38,140.142857142857,0.930433333333333,0.0103833333333333,-0.216133333333333,0.453714285714286,0.453285714285714,0.261428571428571,284.2875,-0.83846,0.06604,-0.6125,-1.03275,-0.408125,0.36,61.854,0.86748,-0.43912,0.17136,46.9625,-21.485,0.9315,3.298,-0.974166666666667,-0.160633333333333,0.00251666666666667,-76.72275,-20.747,20.015,602.4105,1,1,1,0
24-May-2018 12:24:38,140.142857142857,0.930433333333333,0.0103833333333333,-0.216133333333333,0.453714285714286,0.453285714285714,0.261428571428571,284.2875,-0.83846,0.06604,-0.6125,-1.03275,-0.408125,0.36,61.854,0.86748,-0.43912,0.17136,46.9625,-21.485,0.9315,3.298,-0.974166666666667,-0.160633333333333,0.00251666666666667,-76.72275,-20.747,20.015,602.4105,1,1,1,0
24-May-2018 12:24:38,140.142857142857,0.930433333333333,0.0103833333333333,-0.216133333333333,0.453714285714286,0.453285714285714,0.261428571428571,284.2875,-0.83846,0.06604,-0.6125,-1.03275,-0.408125,0.36,61.854,0.86748,-0.43912,0.17136,46.9625,-21.485,0.9315,3.298,-0.974166666666667,-0.160633333333333,0.00251666666666667,-76.72275,-20.747,20.015,602.4105,1,1,1,0
24-May-2018 12:24:39,-7,0.93228,0.01254,-0.20338,-0.2424,2.0612,0.3416,285.011,-0.844366666666667,0.0707333333333333,-0.608466666666667,-0.5104,-2.922,0.5368,61.593,0.8901,-0.31496,0.34872,98.2425,15.2125,29.3875,4.693,-0.937625,-0.196875,-0.1641,-73.9632,-12.4878,7.1342,611.703,1,1,1,1
24-May-2018 12:24:39,-7,0.93228,0.01254,-0.20338,-0.2424,2.0612,0.3416,285.011,-0.844366666666667,0.0707333333333333,-0.608466666666667,-0.5104,-2.922,0.5368,61.593,0.8901,-0.31496,0.34872,98.2425,15.2125,29.3875,4.693,-0.937625,-0.196875,-0.1641,-73.9632,-12.4878,7.1342,611.703,1,1,1,1
24-May-2018 12:24:39,-7,0.93228,0.01254,-0.20338,-0.2424,2.0612,0.3416,285.011,-0.844366666666667,0.0707333333333333,-0.608466666666667,-0.5104,-2.922,0.5368,61.593,0.8901,-0.31496,0.34872,98.2425,15.2125,29.3875,4.693,-0.937625,-0.196875,-0.1641,-73.9632,-12.4878,7.1342,611.703,1,1,1,1
24-May-2018 12:24:39,-7,0.93228,0.01254,-0.20338,-0.2424,2.0612,0.3416,285.011,-0.844366666666667,0.0707333333333333,-0.608466666666667,-0.5104,-2.922,0.5368,61.593,0.8901,-0.31496,0.34872,98.2425,15.2125,29.3875,4.693,-0.937625,-0.196875,-0.1641,-73.9632,-12.4878,7.1342,611.703,1,1,1,1
24-May-2018 12:24:40,62.375,0.92106,-0.04296,-0.25998,40.1775,-13.275,-1.5695,291.400666666667,-0.8473,0.07675,-0.604825,-0.466571428571429,-0.780857142857143,0.0288571428571429,61.593,0.930066666666667,-0.407733333333333,0.338233333333333,-10.826,-17.6925,18.84,7.73633333333333,-0.8552,-0.177125,-0.033175,51.317,17.4754,1.0122,398.121,1,1,1,1
24-May-2018 12:24:40,62.375,0.92106,-0.04296,-0.25998,40.1775,-13.275,-1.5695,291.400666666667,-0.8473,0.07675,-0.604825,-0.466571428571429,-0.780857142857143,0.0288571428571429,61.593,0.930066666666667,-0.407733333333333,0.338233333333333,-10.826,-17.6925,18.84,7.73633333333333,-0.8552,-0.177125,-0.033175,51.317,17.4754,1.0122,398.121,1,1,1,1
24-May-2018 12:24:40,62.375,0.92106,-0.04296,-0.25998,40.1775,-13.275,-1.5695,291.400666666667,-0.8473,0.07675,-0.604825,-0.466571428571429,-0.780857142857143,0.0288571428571429,61.593,0.930066666666667,-0.407733333333333,0.338233333333333,-10.826,-17.6925,18.84,7.73633333333333,-0.8552,-0.177125,-0.033175,51.317,17.4754,1.0122,398.121,1,1,1,1
24-May-2018 12:24:40,62.375,0.92106,-0.04296,-0.25998,40.1775,-13.275,-1.5695,291.400666666667,-0.8473,0.07675,-0.604825,-0.466571428571429,-0.780857142857143,0.0288571428571429,61.593,0.930066666666667,-0.407733333333333,0.338233333333333,-10.826,-17.6925,18.84,7.73633333333333,-0.8552,-0.177125,-0.033175,51.317,17.4754,1.0122,398.121,1,1,1,1
24-May-2018 12:24:41,50.2857142857143,0.924725,-0.096475,-0.29825,44.118,0.148,-24.16,308.287,-0.8506,0.0744,-0.598033333333333,0.5134,-1.3986,0.3906,60.9036666666667,0.9211,-0.25015,0.0126,-82.775,40.88,-10.8835,7.484,-0.897333333333333,-0.2194,-0.271233333333333,87.1098,4.5366,-5.0732,398.121,1,1,1,1
24-May-2018 12:24:41,50.2857142857143,0.924725,-0.096475,-0.29825,44.118,0.148,-24.16,308.287,-0.8506,0.0744,-0.598033333333333,0.5134,-1.3986,0.3906,60.9036666666667,0.9211,-0.25015,0.0126,-82.775,40.88,-10.8835,7.484,-0.897333333333333,-0.2194,-0.271233333333333,87.1098,4.5366,-5.0732,398.121,1,1,1,1
24-May-2018 12:24:41,50.2857142857143,0.924725,-0.096475,-0.29825,44.118,0.148,-24.16,308.287,-0.8506,0.0744,-0.598033333333333,0.5134,-1.3986,0.3906,60.9036666666667,0.9211,-0.25015,0.0126,-82.775,40.88,-10.8835,7.484,-0.897333333333333,-0.2194,-0.271233333333333,87.1098,4.5366,-5.0732,398.121,1,1,1,1
24-May-2018 12:24:41,50.2857142857143,0.924725,-0.096475,-0.29825,44.118,0.148,-24.16,308.287,-0.8506,0.0744,-0.598033333333333,0.5134,-1.3986,0.3906,60.9036666666667,0.9211,-0.25015,0.0126,-82.775,40.88,-10.8835,7.484,-0.897333333333333,-0.2194,-0.271233333333333,87.1098,4.5366,-5.0732,0,1,1,1,1
24-May-2018 12:24:42,53.375,0.95745,0.09625,-0.1281,58.764,7.588,-22.472,370.231,-0.849166666666667,0.0744,-0.597933333333333,1.0124,-1.044,0.4398,59.525,0.85676,-0.25588,0.42614,-95.3,35.8593333333333,-12.3433333333333,5.676,-0.915885714285714,-0.223357142857143,-0.178785714285714,100.284666666667,12.744,-9.10566666666667,589.84,1,1,1,1
24-May-2018 12:24:42,53.375,0.95745,0.09625,-0.1281,58.764,7.588,-22.472,370.231,-0.849166666666667,0.0744,-0.597933333333333,1.0124,-1.044,0.4398,59.525,0.85676,-0.25588,0.42614,-95.3,35.8593333333333,-12.3433333333333,5.676,-0.915885714285714,-0.223357142857143,-0.178785714285714,100.284666666667,12.744,-9.10566666666667,589.84,1,1,1,1
24-May-2018 12:24:42,53.375,0.95745,0.09625,-0.1281,58.764,7.588,-22.472,370.231,-0.849166666666667,0.0744,-0.597933333333333,1.0124,-1.044,0.4398,59.525,0.85676,-0.25588,0.42614,-95.3,35.8593333333333,-12.3433333333333,5.676,-0.915885714285714,-0.223357142857143,-0.178785714285714,100.284666666667,12.744,-9.10566666666667,589.84,1,1,1,1
24-May-2018 12:24:42,53.375,0.95745,0.09625,-0.1281,58.764,7.588,-22.472,370.231,-0.849166666666667,0.0744,-0.597933333333333,1.0124,-1.044,0.4398,59.525,0.85676,-0.25588,0.42614,-95.3,35.8593333333333,-12.3433333333333,5.676,-0.915885714285714,-0.223357142857143,-0.178785714285714,100.284666666667,12.744,-9.10566666666667,589.84,1,1,1,1
24-May-2018 12:24:43,73.6666666666667,0.896333333333333,-0.0147833333333333,-0.171116666666667,-14.262,4.11816666666667,8.45433333333333,370.231,-0.851433333333333,0.0742333333333333,-0.596333333333333,0.949428571428571,0.270714285714286,-0.0418571428571428,59.525,0.863028571428572,-0.543857142857143,0.0855285714285714,-34.7375,24.4405,-7.3505,3.792,-1.02176666666667,-0.200966666666667,-0.0669,5.69133333333334,7.41866666666667,-6.14833333333333,557.195333333333,1,1,1,1
24-May-2018 12:24:43,73.6666666666667,0.896333333333333,-0.0147833333333333,-0.171116666666667,-14.262,4.11816666666667,8.45433333333333,370.231,-0.851433333333333,0.0742333333333333,-0.596333333333333,0.949428571428571,0.270714285714286,-0.0418571428571428,59.525,0.863028571428572,-0.543857142857143,0.0855285714285714,-34.7375,24.4405,-7.3505,3.792,-1.02176666666667,-0.200966666666667,-0.0669,5.69133333333334,7.41866666666667,-6.14833333333333,557.195333333333,1,1,1,1
24-May-2018 12:24:43,73.6666666666667,0.896333333333333,-0.0147833333333333,-0.171116666666667,-14.262,4.11816666666667,8.45433333333333,370.231,-0.851433333333333,0.0742333333333333,-0.596333333333333,0.949428571428571,0.270714285714286,-0.0418571428571428,59.525,0.863028571428572,-0.543857142857143,0.0855285714285714,-34.7375,24.4405,-7.3505,3.792,-1.02176666666667,-0.200966666666667,-0.0669,5.69133333333334,7.41866666666667,-6.14833333333333,557.195333333333,1,1,1,1
24-May-2018 12:24:43,73.6666666666667,0.896333333333333,-0.0147833333333333,-0.171116666666667,-14.262,4.11816666666667,8.45433333333333,370.231,-0.851433333333333,0.0742333333333333,-0.596333333333333,0.949428571428571,0.270714285714286,-0.0418571428571428,59.525,0.863028571428572,-0.543857142857143,0.0855285714285714,-34.7375,24.4405,-7.3505,3.792,-1.02176666666667,-0.200966666666667,-0.0669,5.69133333333334,7.41866666666667,-6.14833333333333,557.195333333333,1,1,1,1
24-May-2018 12:24:44,156.2,0.9296625,0.104725,-0.2068875,-98.95,-3.9049,18.275,370.231,-0.85254,0.06978,-0.5931,0.731777777777778,-0.917777777777778,0.454111111111111,59.525,0.81646,-0.28258,0.33196,28.1985714285714,-25.9548571428571,16.2181428571429,3.8985,-0.904342857142857,-0.1852,-0.0685,-17.195,-7.4595,-6.13833333333333,570.696333333333,1,1,1,0
24-May-2018 12:24:44,156.2,0.9296625,0.104725,-0.2068875,-98.95,-3.9049,18.275,370.231,-0.85254,0.06978,-0.5931,0.731777777777778,-0.917777777777778,0.454111111111111,59.525,0.81646,-0.28258,0.33196,28.1985714285714,-25.9548571428571,16.2181428571429,3.8985,-0.904342857142857,-0.1852,-0.0685,-17.195,-7.4595,-6.13833333333333,570.696333333333,1,1,1,0
24-May-2018 12:24:44,156.2,0.9296625,0.104725,-0.2068875,-98.95,-3.9049,18.275,370.231,-0.85254,0.06978,-0.5931,0.731777777777778,-0.917777777777778,0.454111111111111,59.525,0.81646,-0.28258,0.33196,28.1985714285714,-25.9548571428571,16.2181428571429,3.8985,-0.904342857142857,-0.1852,-0.0685,-17.195,-7.4595,-6.13833333333333,570.696333333333,1,1,1,0
24-May-2018 12:24:44,156.2,0.9296625,0.104725,-0.2068875,-98.95,-3.9049,18.275,370.231,-0.85254,0.06978,-0.5931,0.731777777777778,-0.917777777777778,0.454111111111111,59.525,0.81646,-0.28258,0.33196,28.1985714285714,-25.9548571428571,16.2181428571429,3.8985,-0.904342857142857,-0.1852,-0.0685,-17.195,-7.4595,-6.13833333333333,570.696333333333,1,1,1,0
24-May-2018 12:24:45,92,0.944885714285714,0.0185428571428571,-0.137114285714286,-43,-5.9695,10.2101666666667,370.231,-0.8545,0.070775,-0.589125,-0.436777777777778,0.305777777777778,0.449111111111111,58.68125,0.875528571428571,-0.391114285714286,0.3053,-0.995142857142857,7.083,-0.966285714285714,3.555,-0.89905,-0.191025,-0.11215,35.1626666666667,8.51633333333333,11.809,607.689666666667,1,1,1,1
24-May-2018 12:24:45,92,0.944885714285714,0.0185428571428571,-0.137114285714286,-43,-5.9695,10.2101666666667,370.231,-0.8545,0.070775,-0.589125,-0.436777777777778,0.305777777777778,0.449111111111111,58.68125,0.875528571428571,-0.391114285714286,0.3053,-0.995142857142857,7.083,-0.966285714285714,3.555,-0.89905,-0.191025,-0.11215,35.1626666666667,8.51633333333333,11.809,607.689666666667,1,1,1,1
24-May-2018 12:24:45,92,0.944885714285714,0.0185428571428571,-0.137114285714286,-43,-5.9695,10.2101666666667,370.231,-0.8545,0.070775,-0.589125,-0.436777777777778,0.305777777777778,0.449111111111111,58.68125,0.875528571428571,-0.391114285714286,0.3053,-0.995142857142857,7.083,-0.966285714285714,3.555,-0.89905,-0.191025,-0.11215,35.1626666666667,8.51633333333333,11.809,607.689666666667,1,1,1,1
24-May-2018 12:24:45,92,0.944885714285714,0.0185428571428571,-0.137114285714286,-43,-5.9695,10.2101666666667,370.231,-0.8545,0.070775,-0.589125,-0.436777777777778,0.305777777777778,0.449111111111111,58.68125,0.875528571428571,-0.391114285714286,0.3053,-0.995142857142857,7.083,-0.966285714285714,3.555,-0.89905,-0.191025,-0.11215,35.1626666666667,8.51633333333333,11.809,607.689666666667,1,1,1,1
24-May-2018 12:24:46,97,0.93005,0.009925,-0.245525,26.5201666666667,-9.005,-5.63833333333333,225.822,-0.85352,0.07252,-0.59088,-0.7036,-0.1555,0.988,58.4,0.869422222222222,-0.434177777777778,0.0821777777777778,0.208375,-3.135125,2.264875,3.3,-0.955225,-0.192875,-0.0512,-16.79875,1.60825,3.986125,578.528,1,1,1,1
24-May-2018 12:24:46,97,0.93005,0.009925,-0.245525,26.5201666666667,-9.005,-5.63833333333333,225.822,-0.85352,0.07252,-0.59088,-0.7036,-0.1555,0.988,58.4,0.869422222222222,-0.434177777777778,0.0821777777777778,0.208375,-3.135125,2.264875,3.3,-0.955225,-0.192875,-0.0512,-16.79875,1.60825,3.986125,578.528,1,1,1,1
24-May-2018 12:24:46,97,0.93005,0.009925,-0.245525,26.5201666666667,-9.005,-5.63833333333333,225.822,-0.85352,0.07252,-0.59088,-0.7036,-0.1555,0.988,58.4,0.869422222222222,-0.434177777777778,0.0821777777777778,0.208375,-3.135125,2.264875,3.3,-0.955225,-0.192875,-0.0512,-16.79875,1.60825,3.986125,578.528,1,1,1,1
24-May-2018 12:24:46,97,0.93005,0.009925,-0.245525,26.5201666666667,-9.005,-5.63833333333333,225.822,-0.85352,0.07252,-0.59088,-0.7036,-0.1555,0.988,58.4,0.869422222222222,-0.434177777777778,0.0821777777777778,0.208375,-3.135125,2.264875,3.3,-0.955225,-0.192875,-0.0512,-16.79875,1.60825,3.986125,578.528,1,1,1,1
24-May-2018 12:24:47,7,1.00198,-0.01466,-0.26856,-1.44433333333333,-0.818166666666666,-3.1385,270.229333333333,-0.85578,0.08046,-0.58874,-0.903,-0.77475,0.5795,58.4,0.867066666666667,-0.441033333333333,0.111666666666667,-4.29,2.98785714285714,-0.0934285714285714,3.051,-0.903683333333333,-0.291566666666667,-0.10085,6.6098,5.2926,1.3414,638.5195,1,1,1,1
24-May-2018 12:24:47,7,1.00198,-0.01466,-0.26856,-1.44433333333333,-0.818166666666666,-3.1385,270.229333333333,-0.85578,0.08046,-0.58874,-0.903,-0.77475,0.5795,58.4,0.867066666666667,-0.441033333333333,0.111666666666667,-4.29,2.98785714285714,-0.0934285714285714,3.051,-0.903683333333333,-0.291566666666667,-0.10085,6.6098,5.2926,1.3414,638.5195,1,1,1,1
24-May-2018 12:24:47,7,1.00198,-0.01466,-0.26856,-1.44433333333333,-0.818166666666666,-3.1385,270.229333333333,-0.85578,0.08046,-0.58874,-0.903,-0.77475,0.5795,58.4,0.867066666666667,-0.441033333333333,0.111666666666667,-4.29,2.98785714285714,-0.0934285714285714,3.051,-0.903683333333333,-0.291566666666667,-0.10085,6.6098,5.2926,1.3414,638.5195,1,1,1,1
24-May-2018 12:24:47,7,1.00198,-0.01466,-0.26856,-1.44433333333333,-0.818166666666666,-3.1385,270.229333333333,-0.85578,0.08046,-0.58874,-0.903,-0.77475,0.5795,58.4,0.867066666666667,-0.441033333333333,0.111666666666667,-4.29,2.98785714285714,-0.0934285714285714,3.051,-0.903683333333333,-0.291566666666667,-0.10085,6.6098,5.2926,1.3414,638.5195,1,1,1,1
