TIME,HELMET_RAW,BELT_ACC_X,BELT_ACC_Y,BELT_ACC_Z,BELT_ANG_X,BELT_ANG_Y,BELT_ANG_Z,BELT_LUMINOSITY,NECK_ACC_X,NECK_ACC_Y,NECK_ACC_Z,NECK_ANG_X,NECK_ANG_Y,NECK_ANG_Z,NECK_LUMINOSITY,PCKT_ACC_X,PCKT_ACC_Y,PCKT_ACC_Z,PCKT_ANG_X,PCKT_ANG_Y,PCKT_ANG_Z,PCKT_LUMINOSITY,WRST_ACC_X,WRST_ACC_Y,WRST_ACC_Z,WRST_ANG_X,WRST_ANG_Y,WRST_ANG_Z,WRST_LUMINOSITY,IR_1,IR_2,IR_3,IR_4
24-May-2018 12:25:43,278.3,0.947857142857143,-0.0106857142857143,-0.132742857142857,0.07825,0.9,0.472875,288.056333333333,-0.8863,0.093575,-0.5343,0.09525,0.224125,0.83875,56.473,0.8749,-0.4274,0.0986714285714286,-0.493333333333333,-0.323666666666667,0.0615,3.57875,-0.91805,-0.27155,-0.0523166666666667,-0.1295,-0.121875,-0.686125,577.626,1,1,1,1
24-May-2018 12:25:43,278.3,0.947857142857143,-0.0106857142857143,-0.132742857142857,0.07825,0.9,0.472875,288.056333333333,-0.8863,0.093575,-0.5343,0.09525,0.224125,0.83875,56.473,0.8749,-0.4274,0.0986714285714286,-0.493333333333333,-0.323666666666667,0.0615,3.57875,-0.91805,-0.27155,-0.0523166666666667,-0.1295,-0.121875,-0.686125,577.626,1,1,1,1
24-May-2018 12:25:43,278.3,0.947857142857143,-0.0106857142857143,-0.132742857142857,0.07825,0.9,0.472875,288.056333333333,-0.8863,0.093575,-0.5343,0.09525,0.224125,0.83875,56.473,0.8749,-0.4274,0.0986714285714286,-0.493333333333333,-0.323666666666667,0.0615,3.57875,-0.91805,-0.27155,-0.0523166666666667,-0.1295,-0.121875,-0.686125,577.626,1,1,1,1
24-May-2018 12:25:43,278.3,0.947857142857143,-0.0106857142857143,-0.132742857142857,0.07825,0.9,0.472875,288.056333333333,-0.8863,0.093575,-0.5343,0.09525,0.224125,0.83875,56.473,0.8749,-0.4274,0.0986714285714286,-0.493333333333333,-0.323666666666667,0.0615,3.57875,-0.91805,-0.27155,-0.0523166666666667,-0.1295,-0.121875,-0.686125,577.626,1,1,1,1
24-May-2018 12:25:44,221.1,0.949328571428571,-0.0097,-0.1173,0.405625,0.147625,0.335625,289.351333333333,-0.886075,0.095325,-0.534625,-0.0856666666666667,0.244555555555556,0.684555555555555,56.473,0.872833333333333,-0.429416666666667,0.11035,-0.413,-0.6395,-0.34,3.5755,-0.919185714285714,-0.271171428571429,-0.0455142857142857,-22.7423333333333,-2.0935,-0.904333333333333,578.8434,1,1,1,1
24-May-2018 12:25:44,221.1,0.949328571428571,-0.0097,-0.1173,0.405625,0.147625,0.335625,289.351333333333,-0.886075,0.095325,-0.534625,-0.0856666666666667,0.244555555555556,0.684555555555555,56.473,0.872833333333333,-0.429416666666667,0.11035,-0.413,-0.6395,-0.34,3.5755,-0.919185714285714,-0.271171428571429,-0.0455142857142857,-22.7423333333333,-2.0935,-0.904333333333333,578.8434,1,1,1,1
24-May-2018 12:25:44,221.1,0.949328571428571,-0.0097,-0.1173,0.405625,0.147625,0.335625,289.351333333333,-0.886075,0.095325,-0.534625,-0.0856666666666667,0.244555555555556,0.684555555555555,56.473,0.872833333333333,-0.429416666666667,0.11035,-0.413,-0.6395,-0.34,3.5755,-0.919185714285714,-0.271171428571429,-0.0455142857142857,-22.7423333333333,-2.0935,-0.904333333333333,578.8434,1,1,1,1
24-May-2018 12:25:44,221.1,0.949328571428571,-0.0097,-0.1173,0.405625,0.147625,0.335625,289.351333333333,-0.886075,0.095325,-0.534625,-0.0856666666666667,0.244555555555556,0.684555555555555,56.473,0.872833333333333,-0.429416666666667,0.11035,-0.413,-0.6395,-0.34,3.5755,-0.919185714285714,-0.271171428571429,-0.0455142857142857,-22.7423333333333,-2.0935,-0.904333333333333,578.8434,1,1,1,1
24-May-2018 12:25:45,173.3,0.947883333333333,-0.0138666666666667,-0.129516666666667,8.73083333333333,0.7425,0.6215,291.963666666667,-0.88652,0.09782,-0.53518,-0.3451,0.3493,0.476,56.532,0.871385714285714,-0.431885714285714,0.104471428571429,-0.16525,-2.42625,0.20775,3.53733333333333,-0.931725,-0.1957875,-0.0569125,16.3902,-1.1098,-0.2318,600.176,1,1,1,1
24-May-2018 12:25:45,173.3,0.947883333333333,-0.0138666666666667,-0.129516666666667,8.73083333333333,0.7425,0.6215,291.963666666667,-0.88652,0.09782,-0.53518,-0.3451,0.3493,0.476,56.532,0.871385714285714,-0.431885714285714,0.104471428571429,-0.16525,-2.42625,0.20775,3.53733333333333,-0.931725,-0.1957875,-0.0569125,16.3902,-1.1098,-0.2318,600.176,1,1,1,1
24-May-2018 12:25:45,173.3,0.947883333333333,-0.0138666666666667,-0.129516666666667,8.73083333333333,0.7425,0.6215,291.963666666667,-0.88652,0.09782,-0.53518,-0.3451,0.3493,0.476,56.532,0.871385714285714,-0.431885714285714,0.104471428571429,-0.16525,-2.42625,0.20775,3.53733333333333,-0.931725,-0.1957875,-0.0569125,16.3902,-1.1098,-0.2318,600.176,1,1,1,1
24-May-2018 12:25:45,173.3,0.947883333333333,-0.0138666666666667,-0.129516666666667,8.73083333333333,0.7425,0.6215,291.963666666667,-0.88652,0.09782,-0.53518,-0.3451,0.3493,0.476,56.532,0.871385714285714,-0.431885714285714,0.104471428571429,-0.16525,-2.42625,0.20775,3.53733333333333,-0.931725,-0.1957875,-0.0569125,16.3902,-1.1098,-0.2318,600.176,1,1,1,1
24-May-2018 12:25:46,-20.1,0.944133333333333,-0.0594333333333333,-0.165566666666667,31.6862857142857,-8.44014285714286,-6.03785714285714,325.155,-0.88488,0.10314,-0.53502,0.244888888888889,-0.134,0.217,56.65,0.8642,-0.44665,0.0880666666666667,21.8202222222222,-7.89388888888889,-0.066777777777778,3.401,-0.94788,-0.11168,0.00036,-28.094375,0.587,-4.664625,677.85,1,1,1,1
24-May-2018 12:25:46,-20.1,0.944133333333333,-0.0594333333333333,-0.165566666666667,31.6862857142857,-8.44014285714286,-6.03785714285714,325.155,-0.88488,0.10314,-0.53502,0.244888888888889,-0.134,0.217,56.65,0.8642,-0.44665,0.0880666666666667,21.8202222222222,-7.89388888888889,-0.066777777777778,3.401,-0.94788,-0.11168,0.00036,-28.094375,0.587,-4.664625,677.85,1,1,1,1
24-May-2018 12:25:46,-20.1,0.944133333333333,-0.0594333333333333,-0.165566666666667,31.6862857142857,-8.44014285714286,-6.03785714285714,325.155,-0.88488,0.10314,-0.53502,0.244888888888889,-0.134,0.217,56.65,0.8642,-0.44665,0.0880666666666667,21.8202222222222,-7.89388888888889,-0.066777777777778,3.401,-0.94788,-0.11168,0.00036,-28.094375,0.587,-4.664625,677.85,1,1,1,1
24-May-2018 12:25:46,-20.1,0.944133333333333,-0.0594333333333333,-0.165566666666667,31.6862857142857,-8.44014285714286,-6.03785714285714,325.155,-0.88488,0.10314,-0.53502,0.244888888888889,-0.134,0.217,56.65,0.8642,-0.44665,0.0880666666666667,21.8202222222222,-7.89388888888889,-0.066777777777778,3.401,-0.94788,-0.11168,0.00036,-28.094375,0.587,-4.664625,677.85,1,1,1,1
24-May-2018 12:25:47,-8.375,0.928014285714286,-0.0233857142857143,-0.178514285714286,58.3383333333333,5.14266666666667,-21,410.618,-0.8879,0.1035,-0.5339,1.64633333333333,0.00811111111111111,0.143,56.65,0.878014285714286,-0.397828571428571,0.2155,80.105,-8.14,3.79066666666667,4.19666666666667,-0.90612,-0.25784,-0.15338,-45.7196,-12.5,3.8534,677.85,1,1,1,1
24-May-2018 12:25:47,-8.375,0.928014285714286,-0.0233857142857143,-0.178514285714286,58.3383333333333,5.14266666666667,-21,410.618,-0.8879,0.1035,-0.5339,1.64633333333333,0.00811111111111111,0.143,56.65,0.878014285714286,-0.397828571428571,0.2155,80.105,-8.14,3.79066666666667,4.19666666666667,-0.90612,-0.25784,-0.15338,-45.7196,-12.5,3.8534,677.85,1,1,1,1
24-May-2018 12:25:47,-8.375,0.928014285714286,-0.0233857142857143,-0.178514285714286,58.3383333333333,5.14266666666667,-21,410.618,-0.8879,0.1035,-0.5339,1.64633333333333,0.00811111111111111,0.143,56.65,0.878014285714286,-0.397828571428571,0.2155,80.105,-8.14,3.79066666666667,4.19666666666667,-0.90612,-0.25784,-0.15338,-45.7196,-12.5,3.8534,677.85,1,1,1,1
24-May-2018 12:25:47,-8.375,0.928014285714286,-0.0233857142857143,-0.178514285714286,58.3383333333333,5.14266666666667,-21,410.618,-0.8879,0.1035,-0.5339,1.64633333333333,0.00811111111111111,0.143,56.65,0.878014285714286,-0.397828571428571,0.2155,80.105,-8.14,3.79066666666667,4.19666666666667,-0.90612,-0.25784,-0.15338,-45.7196,-12.5,3.8534,0,1,1,1,1
24-May-2018 12:25:48,106.4,0.935371428571428,-0.00845714285714285,-0.162985714285714,24.681,4.67416666666667,-0.0799999999999998,482.364333333333,-0.88698,0.09608,-0.5317,1.72766666666667,0.0417777777777778,-0.705555555555555,56.4085,0.858542857142857,-0.4233,0.2672,4.46428571428572,-29.9071428571429,12.316,8.118,-0.8927,0.031,0.11525,-69.4384,-19.2562,-19.073,627.867,1,1,1,1
24-May-2018 12:25:48,106.4,0.935371428571428,-0.00845714285714285,-0.162985714285714,24.681,4.67416666666667,-0.0799999999999998,482.364333333333,-0.88698,0.09608,-0.5317,1.72766666666667,0.0417777777777778,-0.705555555555555,56.4085,0.858542857142857,-0.4233,0.2672,4.46428571428572,-29.9071428571429,12.316,8.118,-0.8927,0.031,0.11525,-69.4384,-19.2562,-19.073,627.867,1,1,1,1
24-May-2018 12:25:48,106.4,0.935371428571428,-0.00845714285714285,-0.162985714285714,24.681,4.67416666666667,-0.0799999999999998,482.364333333333,-0.88698,0.09608,-0.5317,1.72766666666667,0.0417777777777778,-0.705555555555555,56.4085,0.858542857142857,-0.4233,0.2672,4.46428571428572,-29.9071428571429,12.316,8.118,-0.8927,0.031,0.11525,-69.4384,-19.2562,-19.073,627.867,1,1,1,1
24-May-2018 12:25:48,106.4,0.935371428571428,-0.00845714285714285,-0.162985714285714,24.681,4.67416666666667,-0.0799999999999998,482.364333333333,-0.88698,0.09608,-0.5317,1.72766666666667,0.0417777777777778,-0.705555555555555,56.4085,0.858542857142857,-0.4233,0.2672,4.46428571428572,-29.9071428571429,12.316,8.118,-0.8927,0.031,0.11525,-69.4384,-19.2562,-19.073,627.867,1,1,1,1
24-May-2018 12:25:49,48.3333333333333,0.939444444444444,-0.00946666666666667,-0.218166666666667,3.25333333333333,-7.414,-0.0571666666666667,365.6425,-0.887625,0.091175,-0.532075,2.31033333333333,0.773888888888889,0.136888888888889,56.167,0.7713,-0.34344,0.28834,38.954,9.752,-7.204,7.187,-0.93315,-0.2824,-0.105516666666667,25.0203333333333,16.9818333333333,-8.66866666666667,421.257333333333,1,1,1,1
24-May-2018 12:25:49,48.3333333333333,0.939444444444444,-0.00946666666666667,-0.218166666666667,3.25333333333333,-7.414,-0.0571666666666667,365.6425,-0.887625,0.091175,-0.532075,2.31033333333333,0.773888888888889,0.136888888888889,56.167,0.7713,-0.34344,0.28834,38.954,9.752,-7.204,7.187,-0.93315,-0.2824,-0.105516666666667,25.0203333333333,16.9818333333333,-8.66866666666667,421.257333333333,1,1,1,1
24-May-2018 12:25:49,48.3333333333333,0.939444444444444,-0.00946666666666667,-0.218166666666667,3.25333333333333,-7.414,-0.0571666666666667,365.6425,-0.887625,0.091175,-0.532075,2.31033333333333,0.773888888888889,0.136888888888889,56.167,0.7713,-0.34344,0.28834,38.954,9.752,-7.204,7.187,-0.93315,-0.2824,-0.105516666666667,25.0203333333333,16.9818333333333,-8.66866666666667,421.257333333333,1,1,1,1
24-May-2018 12:25:49,48.3333333333333,0.939444444444444,-0.00946666666666667,-0.218166666666667,3.25333333333333,-7.414,-0.0571666666666667,365.6425,-0.887625,0.091175,-0.532075,2.31033333333333,0.773888888888889,0.136888888888889,56.167,0.7713,-0.34344,0.28834,38.954,9.752,-7.204,7.187,-0.93315,-0.2824,-0.105516666666667,25.0203333333333,16.9818333333333,-8.66866666666667,421.257333333333,1,1,1,1
24-May-2018 12:25:50,171.1,0.8859,0.08232,-0.44284,-123.9875,-6.904625,43.02875,418.321,-0.8871,0.08628,-0.5315,2.53411111111111,0.285666666666667,0.143,56.167,0.870475,-0.4777,0.23845,-34.2816666666667,1.99483333333333,0.926166666666667,4.013,-0.93315,-0.1889,-0.1778,89.3902,6.4024,22.2562,415.746333333333,1,1,1,1
24-May-2018 12:25:50,171.1,0.8859,0.08232,-0.44284,-123.9875,-6.904625,43.02875,418.321,-0.8871,0.08628,-0.5315,2.53411111111111,0.285666666666667,0.143,56.167,0.870475,-0.4777,0.23845,-34.2816666666667,1.99483333333333,0.926166666666667,4.013,-0.93315,-0.1889,-0.1778,89.3902,6.4024,22.2562,415.746333333333,1,1,1,1
24-May-2018 12:25:50,171.1,0.8859,0.08232,-0.44284,-123.9875,-6.904625,43.02875,418.321,-0.8871,0.08628,-0.5315,2.53411111111111,0.285666666666667,0.143,56.167,0.870475,-0.4777,0.23845,-34.2816666666667,1.99483333333333,0.926166666666667,4.013,-0.93315,-0.1889,-0.1778,89.3902,6.4024,22.2562,415.746333333333,1,1,1,1
24-May-2018 12:25:50,171.1,0.8859,0.08232,-0.44284,-123.9875,-6.904625,43.02875,418.321,-0.8871,0.08628,-0.5315,2.53411111111111,0.285666666666667,0.143,56.167,0.870475,-0.4777,0.23845,-34.2816666666667,1.99483333333333,0.926166666666667,4.013,-0.93315,-0.1889,-0.1778,89.3902,6.4024,22.2562,415.746333333333,1,1,1,1
24-May-2018 12:25:51,201.444444444444,0.930877777777778,0.00107777777777778,-0.304866666666667,-68.4,10.760875,23.335375,418.321,-0.88842,0.0837,-0.53244,0.0493333333333334,0.00866666666666666,-0.368888888888889,56.0205,0.9511,-0.3855,0.233125,-105.3,25.4008571428571,-14.8805714285714,4.14925,-0.916066666666667,-0.174466666666667,-0.21905,89.6515714285714,4.83428571428571,-6.28928571428571,415.746333333333,1,1,1,1
24-May-2018 12:25:51,201.444444444444,0.930877777777778,0.00107777777777778,-0.304866666666667,-68.4,10.760875,23.335375,418.321,-0.88842,0.0837,-0.53244,0.0493333333333334,0.00866666666666666,-0.368888888888889,56.0205,0.9511,-0.3855,0.233125,-105.3,25.4008571428571,-14.8805714285714,4.14925,-0.916066666666667,-0.174466666666667,-0.21905,89.6515714285714,4.83428571428571,-6.28928571428571,415.746333333333,1,1,1,1
24-May-2018 12:25:51,201.444444444444,0.930877777777778,0.00107777777777778,-0.304866666666667,-68.4,10.760875,23.335375,418.321,-0.88842,0.0837,-0.53244,0.0493333333333334,0.00866666666666666,-0.368888888888889,56.0205,0.9511,-0.3855,0.233125,-105.3,25.4008571428571,-14.8805714285714,4.14925,-0.916066666666667,-0.174466666666667,-0.21905,89.6515714285714,4.83428571428571,-6.28928571428571,415.746333333333,1,1,1,1
24-May-2018 12:25:51,201.444444444444,0.930877777777778,0.00107777777777778,-0.304866666666667,-68.4,10.760875,23.335375,418.321,-0.88842,0.0837,-0.53244,0.0493333333333334,0.00866666666666666,-0.368888888888889,56.0205,0.9511,-0.3855,0.233125,-105.3,25.4008571428571,-14.8805714285714,4.14925,-0.916066666666667,-0.174466666666667,-0.21905,89.6515714285714,4.83428571428571,-6.28928571428571,0,1,1,1,1
24-May-2018 12:25:52,132.2,0.900975,0.000812500000000001,-0.2984375,27.8833333333333,-9.33822222222222,-1.95111111111111,418.321,-0.8873,0.0828,-0.5318,1.05677777777778,0.644222222222222,0.102555555555556,55.874,0.97418,-0.27044,0.309,4.77142857142857,-8.67871428571429,6.54071428571429,2.9475,-1.01326,-0.25212,-0.13458,4.98983333333333,-1.372,-14.4308333333333,521.759,1,1,1,1
24-May-2018 12:25:52,132.2,0.900975,0.000812500000000001,-0.2984375,27.8833333333333,-9.33822222222222,-1.95111111111111,418.321,-0.8873,0.0828,-0.5318,1.05677777777778,0.644222222222222,0.102555555555556,55.874,0.97418,-0.27044,0.309,4.77142857142857,-8.67871428571429,6.54071428571429,2.9475,-1.01326,-0.25212,-0.13458,4.98983333333333,-1.372,-14.4308333333333,521.759,1,1,1,1
24-May-2018 12:25:52,132.2,0.900975,0.000812500000000001,-0.2984375,27.8833333333333,-9.33822222222222,-1.95111111111111,418.321,-0.8873,0.0828,-0.5318,1.05677777777778,0.644222222222222,0.102555555555556,55.874,0.97418,-0.27044,0.309,4.77142857142857,-8.67871428571429,6.54071428571429,2.9475,-1.01326,-0.25212,-0.13458,4.98983333333333,-1.372,-14.4308333333333,521.759,1,1,1,1
24-May-2018 12:25:52,132.2,0.900975,0.000812500000000001,-0.2984375,27.8833333333333,-9.33822222222222,-1.95111111111111,418.321,-0.8873,0.0828,-0.5318,1.05677777777778,0.644222222222222,0.102555555555556,55.874,0.97418,-0.27044,0.309,4.77142857142857,-8.67871428571429,6.54071428571429,2.9475,-1.01326,-0.25212,-0.13458,4.98983333333333,-1.372,-14.4308333333333,521.759,1,1,1,1
