TIME,HELMET_RAW,BELT_ACC_X,BELT_ACC_Y,BELT_ACC_Z,BELT_ANG_X,BELT_ANG_Y,BELT_ANG_Z,BELT_LUMINOSITY,NECK_ACC_X,NECK_ACC_Y,NECK_ACC_Z,NECK_ANG_X,NECK_ANG_Y,NECK_ANG_Z,NECK_LUMINOSITY,PCKT_ACC_X,PCKT_ACC_Y,PCKT_ACC_Z,PCKT_ANG_X,PCKT_ANG_Y,PCKT_ANG_Z,PCKT_LUMINOSITY,WRST_ACC_X,WRST_ACC_Y,WRST_ACC_Z,WRST_ANG_X,WRST_ANG_Y,WRST_ANG_Z,WRST_LUMINOSITY,IR_1,IR_2,IR_3,IR_4
24-May-2018 14:42:40,476.9,0.0908714285714286,-0.882571428571428,-0.389657142857143,0.57,-0.6255,0.275333333333333,0.201,0,0,0,0,0,0,0,-0.405275,-0.922425,0.232225,-0.6375,-5.82166666666667,1.45333333333333,0.799,0.9666,-0.4256,0.121133333333333,6.47214285714286,4.42514285714286,0.888428571428571,451.063,1,1,1,1
24-May-2018 14:42:40,476.9,0.0908714285714286,-0.882571428571428,-0.389657142857143,0.57,-0.6255,0.275333333333333,0.201,0,0,0,0,0,0,0,-0.405275,-0.922425,0.232225,-0.6375,-5.82166666666667,1.45333333333333,0.799,0.9666,-0.4256,0.121133333333333,6.47214285714286,4.42514285714286,0.888428571428571,451.063,1,1,1,1
24-May-2018 14:42:40,476.9,0.0908714285714286,-0.882571428571428,-0.389657142857143,0.57,-0.6255,0.275333333333333,0.201,0,0,0,0,0,0,0,-0.405275,-0.922425,0.232225,-0.6375,-5.82166666666667,1.45333333333333,0.799,0.9666,-0.4256,0.121133333333333,6.47214285714286,4.42514285714286,0.888428571428571,451.063,1,1,1,1
24-May-2018 14:42:40,476.9,0.0908714285714286,-0.882571428571428,-0.389657142857143,0.57,-0.6255,0.275333333333333,0.201,0,0,0,0,0,0,0,-0.405275,-0.922425,0.232225,-0.6375,-5.82166666666667,1.45333333333333,0.799,0.9666,-0.4256,0.121133333333333,6.47214285714286,4.42514285714286,0.888428571428571,451.063,1,1,1,1
24-May-2018 14:42:41,484.555555555556,0.0908714285714286,-0.882571428571428,-0.389657142857143,0.57,-0.6255,0.275333333333333,0.201,0,0,0,0,0,0,0,-0.508257142857143,-0.870371428571429,0.204228571428571,12.2776,20.9476,3.3962,0.81875,0.7843,-0.455971428571429,0.160257142857143,-16.8801666666667,-2.92683333333333,-1.95133333333333,489.8805,1,1,1,1
24-May-2018 14:42:41,484.555555555556,0.0908714285714286,-0.882571428571428,-0.389657142857143,0.57,-0.6255,0.275333333333333,0.201,0,0,0,0,0,0,0,-0.508257142857143,-0.870371428571429,0.204228571428571,12.2776,20.9476,3.3962,0.81875,0.7843,-0.455971428571429,0.160257142857143,-16.8801666666667,-2.92683333333333,-1.95133333333333,489.8805,1,1,1,1
24-May-2018 14:42:41,484.555555555556,0.0908714285714286,-0.882571428571428,-0.389657142857143,0.57,-0.6255,0.275333333333333,0.201,0,0,0,0,0,0,0,-0.508257142857143,-0.870371428571429,0.204228571428571,12.2776,20.9476,3.3962,0.81875,0.7843,-0.455971428571429,0.160257142857143,-16.8801666666667,-2.92683333333333,-1.95133333333333,489.8805,1,1,1,1
24-May-2018 14:42:41,484.555555555556,0.0908714285714286,-0.882571428571428,-0.389657142857143,0.57,-0.6255,0.275333333333333,0.201,0,0,0,0,0,0,0,-0.508257142857143,-0.870371428571429,0.204228571428571,12.2776,20.9476,3.3962,0.81875,0.7843,-0.455971428571429,0.160257142857143,-16.8801666666667,-2.92683333333333,-1.95133333333333,489.8805,1,1,1,1
24-May-2018 14:42:42,270.142857142857,0.0908714285714286,-0.882571428571428,-0.389657142857143,0.57,-0.6255,0.275333333333333,0.201,0,0,0,0,0,0,0,-0.500357142857143,-0.887614285714286,0.188928571428571,-3.48675,8.825375,-11.9875,0.761,1.11944285714286,-0.388242857142857,-0.0559857142857143,4.7155,-11.5243333333333,-0.792666666666667,399.01475,1,1,1,1
24-May-2018 14:42:42,270.142857142857,0.0908714285714286,-0.882571428571428,-0.389657142857143,0.57,-0.6255,0.275333333333333,0.201,0,0,0,0,0,0,0,-0.500357142857143,-0.887614285714286,0.188928571428571,-3.48675,8.825375,-11.9875,0.761,1.11944285714286,-0.388242857142857,-0.0559857142857143,4.7155,-11.5243333333333,-0.792666666666667,399.01475,1,1,1,1
24-May-2018 14:42:42,270.142857142857,0.0908714285714286,-0.882571428571428,-0.389657142857143,0.57,-0.6255,0.275333333333333,0.201,0,0,0,0,0,0,0,-0.500357142857143,-0.887614285714286,0.188928571428571,-3.48675,8.825375,-11.9875,0.761,1.11944285714286,-0.388242857142857,-0.0559857142857143,4.7155,-11.5243333333333,-0.792666666666667,399.01475,1,1,1,1
24-May-2018 14:42:42,270.142857142857,0.0908714285714286,-0.882571428571428,-0.389657142857143,0.57,-0.6255,0.275333333333333,0.201,0,0,0,0,0,0,0,-0.500357142857143,-0.887614285714286,0.188928571428571,-3.48675,8.825375,-11.9875,0.761,1.11944285714286,-0.388242857142857,-0.0559857142857143,4.7155,-11.5243333333333,-0.792666666666667,399.01475,1,1,1,1
24-May-2018 14:42:43,336,0.0908714285714286,-0.882571428571428,-0.389657142857143,0.57,-0.6255,0.275333333333333,0.201,0,0,0,0,0,0,0,-0.321542857142857,-0.933428571428571,-0.0711142857142857,-11.7854,-4.8506,-6.412,0.8318,0.7499,-0.5774,-0.127975,-42.2253333333333,55.6405,48.445,353.4695,1,1,1,1
24-May-2018 14:42:43,336,0.0908714285714286,-0.882571428571428,-0.389657142857143,0.57,-0.6255,0.275333333333333,0.201,0,0,0,0,0,0,0,-0.321542857142857,-0.933428571428571,-0.0711142857142857,-11.7854,-4.8506,-6.412,0.8318,0.7499,-0.5774,-0.127975,-42.2253333333333,55.6405,48.445,353.4695,1,1,1,1
24-May-2018 14:42:43,336,0.0908714285714286,-0.882571428571428,-0.389657142857143,0.57,-0.6255,0.275333333333333,0.201,0,0,0,0,0,0,0,-0.321542857142857,-0.933428571428571,-0.0711142857142857,-11.7854,-4.8506,-6.412,0.8318,0.7499,-0.5774,-0.127975,-42.2253333333333,55.6405,48.445,353.4695,1,1,1,1
24-May-2018 14:42:43,336,0.0908714285714286,-0.882571428571428,-0.389657142857143,0.57,-0.6255,0.275333333333333,0.201,0,0,0,0,0,0,0,-0.321542857142857,-0.933428571428571,-0.0711142857142857,-11.7854,-4.8506,-6.412,0.8318,0.7499,-0.5774,-0.127975,-42.2253333333333,55.6405,48.445,353.4695,1,1,1,1
24-May-2018 14:42:44,242.2,0.0908714285714286,-0.882571428571428,-0.389657142857143,0.57,-0.6255,0.275333333333333,0.201,0,0,0,0,0,0,0,-0.345283333333333,-0.9062,0.0111333333333333,7.14283333333333,-4.6815,5.16283333333333,0.767,0.62302,-0.83322,-0.22568,-18.2198333333333,6.382,-21.4226666666667,351.6055,1,0,1,0
24-May-2018 14:42:44,242.2,0.0908714285714286,-0.882571428571428,-0.389657142857143,0.57,-0.6255,0.275333333333333,0.201,0,0,0,0,0,0,0,-0.345283333333333,-0.9062,0.0111333333333333,7.14283333333333,-4.6815,5.16283333333333,0.767,0.62302,-0.83322,-0.22568,-18.2198333333333,6.382,-21.4226666666667,351.6055,1,0,1,0
24-May-2018 14:42:44,242.2,0.0908714285714286,-0.882571428571428,-0.389657142857143,0.57,-0.6255,0.275333333333333,0.201,0,0,0,0,0,0,0,-0.345283333333333,-0.9062,0.0111333333333333,7.14283333333333,-4.6815,5.16283333333333,0.767,0.62302,-0.83322,-0.22568,-18.2198333333333,6.382,-21.4226666666667,351.6055,1,0,1,0
24-May-2018 14:42:44,242.2,0.0908714285714286,-0.882571428571428,-0.389657142857143,0.57,-0.6255,0.275333333333333,0.201,0,0,0,0,0,0,0,-0.345283333333333,-0.9062,0.0111333333333333,7.14283333333333,-4.6815,5.16283333333333,0.767,0.62302,-0.83322,-0.22568,-18.2198333333333,6.382,-21.4226666666667,351.6055,1,0,1,0
24-May-2018 14:42:45,282.444444444444,0.0908714285714286,-0.882571428571428,-0.389657142857143,0.57,-0.6255,0.275333333333333,0.201,0,0,0,0,0,0,0,-0.653414285714286,-0.837057142857143,0.217414285714286,7.784,-18.07,8.53566666666667,0.28275,0.8188,-0.6174,0.0975,5.21028571428571,10.993,-14.9564285714286,337.744,1,1,1,0
24-May-2018 14:42:45,282.444444444444,0.0908714285714286,-0.882571428571428,-0.389657142857143,0.57,-0.6255,0.275333333333333,0.201,0,0,0,0,0,0,0,-0.653414285714286,-0.837057142857143,0.217414285714286,7.784,-18.07,8.53566666666667,0.28275,0.8188,-0.6174,0.0975,5.21028571428571,10.993,-14.9564285714286,337.744,1,1,1,0
24-May-2018 14:42:45,282.444444444444,0.0908714285714286,-0.882571428571428,-0.389657142857143,0.57,-0.6255,0.275333333333333,0.201,0,0,0,0,0,0,0,-0.653414285714286,-0.837057142857143,0.217414285714286,7.784,-18.07,8.53566666666667,0.28275,0.8188,-0.6174,0.0975,5.21028571428571,10.993,-14.9564285714286,337.744,1,1,1,0
24-May-2018 14:42:45,282.444444444444,0.0908714285714286,-0.882571428571428,-0.389657142857143,0.57,-0.6255,0.275333333333333,0.201,0,0,0,0,0,0,0,-0.653414285714286,-0.837057142857143,0.217414285714286,7.784,-18.07,8.53566666666667,0.28275,0.8188,-0.6174,0.0975,5.21028571428571,10.993,-14.9564285714286,337.744,1,1,1,0
24-May-2018 14:42:46,185.4,0.0908714285714286,-0.882571428571428,-0.389657142857143,0.57,-0.6255,0.275333333333333,0.201,0,0,0,0,0,0,0,-0.625316666666667,-0.773983333333333,0.2842,-6.5684,15.6314,-5.944,0.28275,0.90798,-0.43296,0.23378,6.76828571428571,1.99471428571429,-0.984285714285714,475.762,1,1,1,0
24-May-2018 14:42:46,185.4,0.0908714285714286,-0.882571428571428,-0.389657142857143,0.57,-0.6255,0.275333333333333,0.201,0,0,0,0,0,0,0,-0.625316666666667,-0.773983333333333,0.2842,-6.5684,15.6314,-5.944,0.28275,0.90798,-0.43296,0.23378,6.76828571428571,1.99471428571429,-0.984285714285714,475.762,1,1,1,0
24-May-2018 14:42:46,185.4,0.0908714285714286,-0.882571428571428,-0.389657142857143,0.57,-0.6255,0.275333333333333,0.201,0,0,0,0,0,0,0,-0.625316666666667,-0.773983333333333,0.2842,-6.5684,15.6314,-5.944,0.28275,0.90798,-0.43296,0.23378,6.76828571428571,1.99471428571429,-0.984285714285714,475.762,1,1,1,0
24-May-2018 14:42:46,185.4,0.0908714285714286,-0.882571428571428,-0.389657142857143,0.57,-0.6255,0.275333333333333,0.201,0,0,0,0,0,0,0,-0.625316666666667,-0.773983333333333,0.2842,-6.5684,15.6314,-5.944,0,0.90798,-0.43296,0.23378,6.76828571428571,1.99471428571429,-0.984285714285714,475.762,1,1,1,0
24-May-2018 14:42:47,-53.7777777777778,0.0908714285714286,-0.882571428571428,-0.389657142857143,0.57,-0.6255,0.275333333333333,0.201,0,0,0,0,0,0,0,-0.508766666666667,-0.87715,0.202916666666667,1.98342857142857,-6.55971428571429,-5.76657142857143,0.4762,0.88964,-0.40444,0.31416,0.95275,4.009,-4.32925,505.6952,1,1,1,0
24-May-2018 14:42:47,-53.7777777777778,0.0908714285714286,-0.882571428571428,-0.389657142857143,0.57,-0.6255,0.275333333333333,0.201,0,0,0,0,0,0,0,-0.508766666666667,-0.87715,0.202916666666667,1.98342857142857,-6.55971428571429,-5.76657142857143,0.4762,0.88964,-0.40444,0.31416,0.95275,4.009,-4.32925,505.6952,1,1,1,0
24-May-2018 14:42:47,-53.7777777777778,0.0908714285714286,-0.882571428571428,-0.389657142857143,0.57,-0.6255,0.275333333333333,0.201,0,0,0,0,0,0,0,-0.508766666666667,-0.87715,0.202916666666667,1.98342857142857,-6.55971428571429,-5.76657142857143,0.4762,0.88964,-0.40444,0.31416,0.95275,4.009,-4.32925,505.6952,1,1,1,0
24-May-2018 14:42:47,-53.7777777777778,0.0908714285714286,-0.882571428571428,-0.389657142857143,0.57,-0.6255,0.275333333333333,0.201,0,0,0,0,0,0,0,-0.508766666666667,-0.87715,0.202916666666667,1.98342857142857,-6.55971428571429,-5.76657142857143,0.4762,0.88964,-0.40444,0.31416,0.95275,4.009,-4.32925,505.6952,1,1,1,0
24-May-2018 14:42:48,-184.9,0.0908714285714286,-0.882571428571428,-0.389657142857143,0.57,-0.6255,0.275333333333333,0.201,0,0,0,0,0,0,0,-0.402057142857143,-0.939642857142857,0.0685,-21.4133333333333,12.7733333333333,-10.87,0.892333333333333,0.918471428571429,-0.363957142857143,0.316071428571429,5.14233333333333,-4.89833333333333,2.77433333333333,540.0855,1,1,1,1
24-May-2018 14:42:48,-184.9,0.0908714285714286,-0.882571428571428,-0.389657142857143,0.57,-0.6255,0.275333333333333,0.201,0,0,0,0,0,0,0,-0.402057142857143,-0.939642857142857,0.0685,-21.4133333333333,12.7733333333333,-10.87,0.892333333333333,0.918471428571429,-0.363957142857143,0.316071428571429,5.14233333333333,-4.89833333333333,2.77433333333333,540.0855,1,1,1,1
24-May-2018 14:42:48,-184.9,0.0908714285714286,-0.882571428571428,-0.389657142857143,0.57,-0.6255,0.275333333333333,0.201,0,0,0,0,0,0,0,-0.402057142857143,-0.939642857142857,0.0685,-21.4133333333333,12.7733333333333,-10.87,0.892333333333333,0.918471428571429,-0.363957142857143,0.316071428571429,5.14233333333333,-4.89833333333333,2.77433333333333,540.0855,1,1,1,1
24-May-2018 14:42:48,-184.9,0.0908714285714286,-0.882571428571428,-0.389657142857143,0.57,-0.6255,0.275333333333333,0.201,0,0,0,0,0,0,0,-0.402057142857143,-0.939642857142857,0.0685,-21.4133333333333,12.7733333333333,-10.87,0.892333333333333,0.918471428571429,-0.363957142857143,0.316071428571429,5.14233333333333,-4.89833333333333,2.77433333333333,540.0855,1,1,1,1
24-May-2018 14:42:49,-253.4,0.0908714285714286,-0.882571428571428,-0.389657142857143,0.57,-0.6255,0.275333333333333,0.201,0,0,0,0,0,0,0,-0.371483333333333,-0.940016666666667,-0.0572333333333333,13.3251428571429,-3.61642857142857,2.30885714285714,0.706666666666667,0.93704,-0.34562,0.26674,0.479,-3.15342857142857,1.41114285714286,506.779333333333,1,1,1,1
24-May-2018 14:42:49,-253.4,0.0908714285714286,-0.882571428571428,-0.389657142857143,0.57,-0.6255,0.275333333333333,0.201,0,0,0,0,0,0,0,-0.371483333333333,-0.940016666666667,-0.0572333333333333,13.3251428571429,-3.61642857142857,2.30885714285714,0.706666666666667,0.93704,-0.34562,0.26674,0.479,-3.15342857142857,1.41114285714286,506.779333333333,1,1,1,1
24-May-2018 14:42:49,-253.4,0.0908714285714286,-0.882571428571428,-0.389657142857143,0.57,-0.6255,0.275333333333333,0.201,0,0,0,0,0,0,0,-0.371483333333333,-0.940016666666667,-0.0572333333333333,13.3251428571429,-3.61642857142857,2.30885714285714,0.706666666666667,0.93704,-0.34562,0.26674,0.479,-3.15342857142857,1.41114285714286,506.779333333333,1,1,1,1
24-May-2018 14:42:49,-253.4,0.0908714285714286,-0.882571428571428,-0.389657142857143,0.57,-0.6255,0.275333333333333,0.201,0,0,0,0,0,0,0,-0.371483333333333,-0.940016666666667,-0.0572333333333333,13.3251428571429,-3.61642857142857,2.30885714285714,0.706666666666667,0.93704,-0.34562,0.26674,0.479,-3.15342857142857,1.41114285714286,506.779333333333,1,1,1,1
