TIME,HELMET_RAW,BELT_ACC_X,BELT_ACC_Y,BELT_ACC_Z,BELT_ANG_X,BELT_ANG_Y,BELT_ANG_Z,BELT_LUMINOSITY,NECK_ACC_X,NECK_ACC_Y,NECK_ACC_Z,NECK_ANG_X,NECK_ANG_Y,NECK_ANG_Z,NECK_LUMINOSITY,PCKT_ACC_X,PCKT_ACC_Y,PCKT_ACC_Z,PCKT_ANG_X,PCKT_ANG_Y,PCKT_ANG_Z,PCKT_LUMINOSITY,WRST_ACC_X,WRST_ACC_Y,WRST_ACC_Z,WRST_ANG_X,WRST_ANG_Y,WRST_ANG_Z,WRST_LUMINOSITY,IR_1,IR_2,IR_3,IR_4
24-May-2018 14:42:56,-75.9090909090909,0.0908714285714286,-0.882571428571428,-0.389657142857143,0.57,-0.6255,0.275333333333333,0.201,0,0,0,0,0,0,0,-0.561833333333333,-0.700233333333333,0.163566666666667,38.8883333333333,-19.1436666666667,40.5016666666667,0.88675,0.904525,-0.386625,0.097525,31.3414285714286,-32.9878571428571,-7.204,457.32,0,0,1,0
24-May-2018 14:42:56,-75.9090909090909,0.0908714285714286,-0.882571428571428,-0.389657142857143,0.57,-0.6255,0.275333333333333,0.201,0,0,0,0,0,0,0,-0.561833333333333,-0.700233333333333,0.163566666666667,38.8883333333333,-19.1436666666667,40.5016666666667,0.88675,0.904525,-0.386625,0.097525,31.3414285714286,-32.9878571428571,-7.204,457.32,0,0,1,0
24-May-2018 14:42:56,-75.9090909090909,0.0908714285714286,-0.882571428571428,-0.389657142857143,0.57,-0.6255,0.275333333333333,0.201,0,0,0,0,0,0,0,-0.561833333333333,-0.700233333333333,0.163566666666667,38.8883333333333,-19.1436666666667,40.5016666666667,0.88675,0.904525,-0.386625,0.097525,31.3414285714286,-32.9878571428571,-7.204,457.32,0,0,1,0
24-May-2018 14:42:56,-75.9090909090909,0.0908714285714286,-0.882571428571428,-0.389657142857143,0.57,-0.6255,0.275333333333333,0.201,0,0,0,0,0,0,0,-0.561833333333333,-0.700233333333333,0.163566666666667,38.8883333333333,-19.1436666666667,40.5016666666667,0.88675,0.904525,-0.386625,0.097525,31.3414285714286,-32.9878571428571,-7.204,457.32,0,0,1,0
24-May-2018 14:42:57,61.2222222222222,0.0908714285714286,-0.882571428571428,-0.389657142857143,0.57,-0.6255,0.275333333333333,0.201,0,0,0,0,0,0,0,-0.713285714285714,-0.336485714285714,0.762414285714286,-10.4381428571429,6.55428571428571,-15.4097142857143,0.03075,1.06295714285714,-0.2792,0.0310285714285714,10.244,-5.2745,-5.47766666666667,372.1805,1,1,1,0
24-May-2018 14:42:57,61.2222222222222,0.0908714285714286,-0.882571428571428,-0.389657142857143,0.57,-0.6255,0.275333333333333,0.201,0,0,0,0,0,0,0,-0.713285714285714,-0.336485714285714,0.762414285714286,-10.4381428571429,6.55428571428571,-15.4097142857143,0.03075,1.06295714285714,-0.2792,0.0310285714285714,10.244,-5.2745,-5.47766666666667,372.1805,1,1,1,0
24-May-2018 14:42:57,61.2222222222222,0.0908714285714286,-0.882571428571428,-0.389657142857143,0.57,-0.6255,0.275333333333333,0.201,0,0,0,0,0,0,0,-0.713285714285714,-0.336485714285714,0.762414285714286,-10.4381428571429,6.55428571428571,-15.4097142857143,0.03075,1.06295714285714,-0.2792,0.0310285714285714,10.244,-5.2745,-5.47766666666667,372.1805,1,1,1,0
24-May-2018 14:42:57,61.2222222222222,0.0908714285714286,-0.882571428571428,-0.389657142857143,0.57,-0.6255,0.275333333333333,0.201,0,0,0,0,0,0,0,-0.713285714285714,-0.336485714285714,0.762414285714286,-10.4381428571429,6.55428571428571,-15.4097142857143,0.03075,1.06295714285714,-0.2792,0.0310285714285714,10.244,-5.2745,-5.47766666666667,372.1805,1,1,1,0
24-May-2018 14:42:58,189.1,0.0908714285714286,-0.882571428571428,-0.389657142857143,0.57,-0.6255,0.275333333333333,0.201,0,0,0,0,0,0,0,-0.461285714285714,-0.801657142857143,0.262142857142857,-19.318,-8.3738,-23.4926,0.629,1.07571666666667,-0.293383333333333,-0.0963833333333333,-24.2455,-16.074875,10.579375,351.343333333333,1,1,1,0.5
24-May-2018 14:42:58,189.1,0.0908714285714286,-0.882571428571428,-0.389657142857143,0.57,-0.6255,0.275333333333333,0.201,0,0,0,0,0,0,0,-0.461285714285714,-0.801657142857143,0.262142857142857,-19.318,-8.3738,-23.4926,0.629,1.07571666666667,-0.293383333333333,-0.0963833333333333,-24.2455,-16.074875,10.579375,351.343333333333,1,1,1,0.5
24-May-2018 14:42:58,189.1,0.0908714285714286,-0.882571428571428,-0.389657142857143,0.57,-0.6255,0.275333333333333,0.201,0,0,0,0,0,0,0,-0.461285714285714,-0.801657142857143,0.262142857142857,-19.318,-8.3738,-23.4926,0.629,1.07571666666667,-0.293383333333333,-0.0963833333333333,-24.2455,-16.074875,10.579375,351.343333333333,1,1,1,0.5
24-May-2018 14:42:58,189.1,0.0908714285714286,-0.882571428571428,-0.389657142857143,0.57,-0.6255,0.275333333333333,0.201,0,0,0,0,0,0,0,-0.461285714285714,-0.801657142857143,0.262142857142857,-19.318,-8.3738,-23.4926,0.629,1.07571666666667,-0.293383333333333,-0.0963833333333333,-24.2455,-16.074875,10.579375,351.343333333333,1,1,1,0.5
24-May-2018 14:42:59,209.7,0.0908714285714286,-0.882571428571428,-0.389657142857143,0.57,-0.6255,0.275333333333333,0.201,0,0,0,0,0,0,0,-0.373614285714286,-0.931757142857143,-0.0760285714285714,-4.43728571428572,6.68042857142857,-4.73414285714286,0.924,0.47935,-0.717566666666667,0.1378,26.2562,45.9634,48.8902,406.07825,1,1,1,1
24-May-2018 14:42:59,209.7,0.0908714285714286,-0.882571428571428,-0.389657142857143,0.57,-0.6255,0.275333333333333,0.201,0,0,0,0,0,0,0,-0.373614285714286,-0.931757142857143,-0.0760285714285714,-4.43728571428572,6.68042857142857,-4.73414285714286,0.924,0.47935,-0.717566666666667,0.1378,26.2562,45.9634,48.8902,406.07825,1,1,1,1
24-May-2018 14:42:59,209.7,0.0908714285714286,-0.882571428571428,-0.389657142857143,0.57,-0.6255,0.275333333333333,0.201,0,0,0,0,0,0,0,-0.373614285714286,-0.931757142857143,-0.0760285714285714,-4.43728571428572,6.68042857142857,-4.73414285714286,0.924,0.47935,-0.717566666666667,0.1378,26.2562,45.9634,48.8902,406.07825,1,1,1,1
24-May-2018 14:42:59,209.7,0.0908714285714286,-0.882571428571428,-0.389657142857143,0.57,-0.6255,0.275333333333333,0.201,0,0,0,0,0,0,0,-0.373614285714286,-0.931757142857143,-0.0760285714285714,-4.43728571428572,6.68042857142857,-4.73414285714286,0.924,0.47935,-0.717566666666667,0.1378,26.2562,45.9634,48.8902,406.07825,1,1,1,1
24-May-2018 14:43:00,201.4,0.0908714285714286,-0.882571428571428,-0.389657142857143,0.57,-0.6255,0.275333333333333,0.201,0,0,0,0,0,0,0,-0.3589,-0.933877777777778,0.0835,8.3896,2.2806,1.1992,0.798,0.132514285714286,-0.620957142857143,-0.795142857142857,-58.307625,20.60975,-28.269375,481.150666666667,1,1,1,1
24-May-2018 14:43:00,201.4,0.0908714285714286,-0.882571428571428,-0.389657142857143,0.57,-0.6255,0.275333333333333,0.201,0,0,0,0,0,0,0,-0.3589,-0.933877777777778,0.0835,8.3896,2.2806,1.1992,0.798,0.132514285714286,-0.620957142857143,-0.795142857142857,-58.307625,20.60975,-28.269375,481.150666666667,1,1,1,1
24-May-2018 14:43:00,201.4,0.0908714285714286,-0.882571428571428,-0.389657142857143,0.57,-0.6255,0.275333333333333,0.201,0,0,0,0,0,0,0,-0.3589,-0.933877777777778,0.0835,8.3896,2.2806,1.1992,0.798,0.132514285714286,-0.620957142857143,-0.795142857142857,-58.307625,20.60975,-28.269375,481.150666666667,1,1,1,1
24-May-2018 14:43:00,201.4,0.0908714285714286,-0.882571428571428,-0.389657142857143,0.57,-0.6255,0.275333333333333,0.201,0,0,0,0,0,0,0,-0.3589,-0.933877777777778,0.0835,8.3896,2.2806,1.1992,0.798,0.132514285714286,-0.620957142857143,-0.795142857142857,-58.307625,20.60975,-28.269375,481.150666666667,1,1,1,1
24-May-2018 14:43:01,195.444444444444,0.0908714285714286,-0.882571428571428,-0.389657142857143,0.57,-0.6255,0.275333333333333,0.201,0,0,0,0,0,0,0,-0.40088,-0.92264,0.15268,1.08085714285714,-1.10271428571429,0.741142857142857,0.89575,0.0443666666666666,-0.499033333333333,-0.869616666666667,-5.51833333333333,-22.1646666666667,27.0835,152.24125,1,1,0,1
24-May-2018 14:43:01,195.444444444444,0.0908714285714286,-0.882571428571428,-0.389657142857143,0.57,-0.6255,0.275333333333333,0.201,0,0,0,0,0,0,0,-0.40088,-0.92264,0.15268,1.08085714285714,-1.10271428571429,0.741142857142857,0.89575,0.0443666666666666,-0.499033333333333,-0.869616666666667,-5.51833333333333,-22.1646666666667,27.0835,152.24125,1,1,0,1
24-May-2018 14:43:01,195.444444444444,0.0908714285714286,-0.882571428571428,-0.389657142857143,0.57,-0.6255,0.275333333333333,0.201,0,0,0,0,0,0,0,-0.40088,-0.92264,0.15268,1.08085714285714,-1.10271428571429,0.741142857142857,0.89575,0.0443666666666666,-0.499033333333333,-0.869616666666667,-5.51833333333333,-22.1646666666667,27.0835,152.24125,1,1,0,1
24-May-2018 14:43:01,195.444444444444,0.0908714285714286,-0.882571428571428,-0.389657142857143,0.57,-0.6255,0.275333333333333,0.201,0,0,0,0,0,0,0,-0.40088,-0.92264,0.15268,1.08085714285714,-1.10271428571429,0.741142857142857,0.89575,0.0443666666666666,-0.499033333333333,-0.869616666666667,-5.51833333333333,-22.1646666666667,27.0835,152.24125,1,1,0,1
24-May-2018 14:43:02,167.4,0.0908714285714286,-0.882571428571428,-0.389657142857143,0.57,-0.6255,0.275333333333333,0.201,0,0,0,0,0,0,0,-0.398957142857143,-0.928514285714286,0.169828571428571,0.0628333333333334,-0.951666666666667,0.153666666666667,0.89125,0.168666666666667,-0.639333333333333,-0.478166666666667,78.0945,-1.9055,-61.797125,259.994,1,1,0,1
24-May-2018 14:43:02,167.4,0.0908714285714286,-0.882571428571428,-0.389657142857143,0.57,-0.6255,0.275333333333333,0.201,0,0,0,0,0,0,0,-0.398957142857143,-0.928514285714286,0.169828571428571,0.0628333333333334,-0.951666666666667,0.153666666666667,0.89125,0.168666666666667,-0.639333333333333,-0.478166666666667,78.0945,-1.9055,-61.797125,259.994,1,1,0,1
24-May-2018 14:43:02,167.4,0.0908714285714286,-0.882571428571428,-0.389657142857143,0.57,-0.6255,0.275333333333333,0.201,0,0,0,0,0,0,0,-0.398957142857143,-0.928514285714286,0.169828571428571,0.0628333333333334,-0.951666666666667,0.153666666666667,0.89125,0.168666666666667,-0.639333333333333,-0.478166666666667,78.0945,-1.9055,-61.797125,259.994,1,1,0,1
24-May-2018 14:43:02,167.4,0.0908714285714286,-0.882571428571428,-0.389657142857143,0.57,-0.6255,0.275333333333333,0.201,0,0,0,0,0,0,0,-0.398957142857143,-0.928514285714286,0.169828571428571,0.0628333333333334,-0.951666666666667,0.153666666666667,0.89125,0.168666666666667,-0.639333333333333,-0.478166666666667,78.0945,-1.9055,-61.797125,259.994,1,1,0,1
24-May-2018 14:43:03,195.3,0.0908714285714286,-0.882571428571428,-0.389657142857143,0.57,-0.6255,0.275333333333333,0.201,0,0,0,0,0,0,0,-0.428728571428571,-0.917328571428571,0.168171428571429,-0.940666666666667,-1.135,1.616,0.89125,0.963833333333333,-0.356483333333333,0.140616666666667,-3.4145,-2.56083333333333,-2.87583333333333,426.999333333333,1,1,1,1
24-May-2018 14:43:03,195.3,0.0908714285714286,-0.882571428571428,-0.389657142857143,0.57,-0.6255,0.275333333333333,0.201,0,0,0,0,0,0,0,-0.428728571428571,-0.917328571428571,0.168171428571429,-0.940666666666667,-1.135,1.616,0.89125,0.963833333333333,-0.356483333333333,0.140616666666667,-3.4145,-2.56083333333333,-2.87583333333333,426.999333333333,1,1,1,1
24-May-2018 14:43:03,195.3,0.0908714285714286,-0.882571428571428,-0.389657142857143,0.57,-0.6255,0.275333333333333,0.201,0,0,0,0,0,0,0,-0.428728571428571,-0.917328571428571,0.168171428571429,-0.940666666666667,-1.135,1.616,0.89125,0.963833333333333,-0.356483333333333,0.140616666666667,-3.4145,-2.56083333333333,-2.87583333333333,426.999333333333,1,1,1,1
24-May-2018 14:43:03,195.3,0.0908714285714286,-0.882571428571428,-0.389657142857143,0.57,-0.6255,0.275333333333333,0.201,0,0,0,0,0,0,0,-0.428728571428571,-0.917328571428571,0.168171428571429,-0.940666666666667,-1.135,1.616,0.89125,0.963833333333333,-0.356483333333333,0.140616666666667,-3.4145,-2.56083333333333,-2.87583333333333,426.999333333333,1,1,1,1
24-May-2018 14:43:04,189.2,0.0908714285714286,-0.882571428571428,-0.389657142857143,0.57,-0.6255,0.275333333333333,0.201,0,0,0,0,0,0,0,-0.432616666666667,-0.914983333333333,0.166683333333333,-0.686666666666667,-0.93,-0.788333333333333,0.865,0.82634,-0.58972,-0.2211,-79.6793333333333,11.2668888888889,23.347,382.802333333333,1,1,1,1
24-May-2018 14:43:04,189.2,0.0908714285714286,-0.882571428571428,-0.389657142857143,0.57,-0.6255,0.275333333333333,0.201,0,0,0,0,0,0,0,-0.432616666666667,-0.914983333333333,0.166683333333333,-0.686666666666667,-0.93,-0.788333333333333,0.865,0.82634,-0.58972,-0.2211,-79.6793333333333,11.2668888888889,23.347,382.802333333333,1,1,1,1
24-May-2018 14:43:04,189.2,0.0908714285714286,-0.882571428571428,-0.389657142857143,0.57,-0.6255,0.275333333333333,0.201,0,0,0,0,0,0,0,-0.432616666666667,-0.914983333333333,0.166683333333333,-0.686666666666667,-0.93,-0.788333333333333,0.865,0.82634,-0.58972,-0.2211,-79.6793333333333,11.2668888888889,23.347,382.802333333333,1,1,1,1
24-May-2018 14:43:04,189.2,0.0908714285714286,-0.882571428571428,-0.389657142857143,0.57,-0.6255,0.275333333333333,0.201,0,0,0,0,0,0,0,-0.432616666666667,-0.914983333333333,0.166683333333333,-0.686666666666667,-0.93,-0.788333333333333,0.865,0.82634,-0.58972,-0.2211,-79.6793333333333,11.2668888888889,23.347,382.802333333333,1,1,1,1
24-May-2018 14:43:05,116.2,0.0908714285714286,-0.882571428571428,-0.389657142857143,0.57,-0.6255,0.275333333333333,0.201,0,0,0,0,0,0,0,-0.440657142857143,-0.913171428571429,0.164085714285714,1.2448,3.916,4.5726,0.726333333333333,0.7841,-0.566616666666667,-0.347933333333333,5.59966666666667,-0.274166666666667,-1.85983333333333,246.3748,1,0,1,0
24-May-2018 14:43:05,116.2,0.0908714285714286,-0.882571428571428,-0.389657142857143,0.57,-0.6255,0.275333333333333,0.201,0,0,0,0,0,0,0,-0.440657142857143,-0.913171428571429,0.164085714285714,1.2448,3.916,4.5726,0.726333333333333,0.7841,-0.566616666666667,-0.347933333333333,5.59966666666667,-0.274166666666667,-1.85983333333333,246.3748,1,0,1,0
24-May-2018 14:43:05,116.2,0.0908714285714286,-0.882571428571428,-0.389657142857143,0.57,-0.6255,0.275333333333333,0.201,0,0,0,0,0,0,0,-0.440657142857143,-0.913171428571429,0.164085714285714,1.2448,3.916,4.5726,0.726333333333333,0.7841,-0.566616666666667,-0.347933333333333,5.59966666666667,-0.274166666666667,-1.85983333333333,246.3748,1,0,1,0
24-May-2018 14:43:05,116.2,0.0908714285714286,-0.882571428571428,-0.389657142857143,0.57,-0.6255,0.275333333333333,0.201,0,0,0,0,0,0,0,-0.440657142857143,-0.913171428571429,0.164085714285714,1.2448,3.916,4.5726,0.726333333333333,0.7841,-0.566616666666667,-0.347933333333333,5.59966666666667,-0.274166666666667,-1.85983333333333,246.3748,1,0,1,0
