TIME,HELMET_RAW,BELT_ACC_X,BELT_ACC_Y,BELT_ACC_Z,BELT_ANG_X,BELT_ANG_Y,BELT_ANG_Z,BELT_LUMINOSITY,NECK_ACC_X,NECK_ACC_Y,NECK_ACC_Z,NECK_ANG_X,NECK_ANG_Y,NECK_ANG_Z,NECK_LUMINOSITY,PCKT_ACC_X,PCKT_ACC_Y,PCKT_ACC_Z,PCKT_ANG_X,PCKT_ANG_Y,PCKT_ANG_Z,PCKT_LUMINOSITY,WRST_ACC_X,WRST_ACC_Y,WRST_ACC_Z,WRST_ANG_X,WRST_ANG_Y,WRST_ANG_Z,WRST_LUMINOSITY,IR_1,IR_2,IR_3,IR_4
24-May-2018 14:29:16,-221.222222222222,-1.0285125,0.07255,-0.184725,-6.27666666666667,0.164,0.295666666666667,0.373,0,0,0,0,0,0,0,0.47345,-0.432025,-0.675475,2.08516666666667,5.39616666666667,-2.333,0.2374,0.607566666666667,-0.30665,1.28691666666667,-39.0848571428571,-58.7182857142857,4.103,500.79,1,1,1,1
24-May-2018 14:29:16,-221.222222222222,-1.0285125,0.07255,-0.184725,-6.27666666666667,0.164,0.295666666666667,0.373,0,0,0,0,0,0,0,0.47345,-0.432025,-0.675475,2.08516666666667,5.39616666666667,-2.333,0.2374,0.607566666666667,-0.30665,1.28691666666667,-39.0848571428571,-58.7182857142857,4.103,500.79,1,1,1,1
24-May-2018 14:29:16,-221.222222222222,-1.0285125,0.07255,-0.184725,-6.27666666666667,0.164,0.295666666666667,0.373,0,0,0,0,0,0,0,0.47345,-0.432025,-0.675475,2.08516666666667,5.39616666666667,-2.333,0.2374,0.607566666666667,-0.30665,1.28691666666667,-39.0848571428571,-58.7182857142857,4.103,500.79,1,1,1,1
24-May-2018 14:29:16,-221.222222222222,-1.0285125,0.07255,-0.184725,-6.27666666666667,0.164,0.295666666666667,0.373,0,0,0,0,0,0,0,0.47345,-0.432025,-0.675475,2.08516666666667,5.39616666666667,-2.333,0.2374,0.607566666666667,-0.30665,1.28691666666667,-39.0848571428571,-58.7182857142857,4.103,500.79,1,1,1,1
24-May-2018 14:29:17,-221.222222222222,-1.03045,0.120833333333333,-0.113216666666667,1.00566666666667,-6.765,0.689333333333334,0.397,0,0,0,0,0,0,0,0.47956,-0.4122,-0.69242,-1.285375,-1.792375,-0.905125,0.283,0.811871428571428,-0.365328571428571,0.495514285714286,27.523125,-8.055,-30.875625,607.937666666667,1,1,1,1
24-May-2018 14:29:17,-221.222222222222,-1.03045,0.120833333333333,-0.113216666666667,1.00566666666667,-6.765,0.689333333333334,0.397,0,0,0,0,0,0,0,0.47956,-0.4122,-0.69242,-1.285375,-1.792375,-0.905125,0.283,0.811871428571428,-0.365328571428571,0.495514285714286,27.523125,-8.055,-30.875625,607.937666666667,1,1,1,1
24-May-2018 14:29:17,-221.222222222222,-1.03045,0.120833333333333,-0.113216666666667,1.00566666666667,-6.765,0.689333333333334,0.397,0,0,0,0,0,0,0,0.47956,-0.4122,-0.69242,-1.285375,-1.792375,-0.905125,0.283,0.811871428571428,-0.365328571428571,0.495514285714286,27.523125,-8.055,-30.875625,607.937666666667,1,1,1,1
24-May-2018 14:29:17,-221.222222222222,-1.03045,0.120833333333333,-0.113216666666667,1.00566666666667,-6.765,0.689333333333334,0.397,0,0,0,0,0,0,0,0.47956,-0.4122,-0.69242,-1.285375,-1.792375,-0.905125,0.283,0.811871428571428,-0.365328571428571,0.495514285714286,27.523125,-8.055,-30.875625,607.937666666667,1,1,1,1
24-May-2018 14:29:18,-221.222222222222,-0.92002,-0.036,0.08126,4.06975,-68.25,-3.749,0.153555555555556,0,0,0,0,0,0,0,0.465128571428571,-0.402285714285714,-0.7015,-0.711285714285714,-0.892857142857143,-0.317142857142857,0.222,0.948811111111111,-0.355322222222222,0.0386555555555556,-24.6775714285714,-47.1424285714286,39.8954285714286,519.375,1,1,0,0
24-May-2018 14:29:18,-221.222222222222,-0.92002,-0.036,0.08126,4.06975,-68.25,-3.749,0.153555555555556,0,0,0,0,0,0,0,0.465128571428571,-0.402285714285714,-0.7015,-0.711285714285714,-0.892857142857143,-0.317142857142857,0.222,0.948811111111111,-0.355322222222222,0.0386555555555556,-24.6775714285714,-47.1424285714286,39.8954285714286,519.375,1,1,0,0
24-May-2018 14:29:18,-221.222222222222,-0.92002,-0.036,0.08126,4.06975,-68.25,-3.749,0.153555555555556,0,0,0,0,0,0,0,0.465128571428571,-0.402285714285714,-0.7015,-0.711285714285714,-0.892857142857143,-0.317142857142857,0.222,0.948811111111111,-0.355322222222222,0.0386555555555556,-24.6775714285714,-47.1424285714286,39.8954285714286,519.375,1,1,0,0
24-May-2018 14:29:18,-221.222222222222,-0.92002,-0.036,0.08126,4.06975,-68.25,-3.749,0.153555555555556,0,0,0,0,0,0,0,0.465128571428571,-0.402285714285714,-0.7015,-0.711285714285714,-0.892857142857143,-0.317142857142857,0.222,0.948811111111111,-0.355322222222222,0.0386555555555556,-24.6775714285714,-47.1424285714286,39.8954285714286,519.375,1,1,0,0
24-May-2018 14:29:19,-221.222222222222,0.15386,-0.17068,1.442,5.01057142857143,24.95,3.97828571428571,0.171,0,0,0,0,0,0,0,0.4647,-0.3996,-0.700271428571429,-0.778,-0.922,-0.434,0.1464,0.610425,-0.51875,-0.29485,-24.1584,5.45120000000001,-21.5364,393.4064,1,1,0,0
24-May-2018 14:29:19,-221.222222222222,0.15386,-0.17068,1.442,5.01057142857143,24.95,3.97828571428571,0.171,0,0,0,0,0,0,0,0.4647,-0.3996,-0.700271428571429,-0.778,-0.922,-0.434,0.1464,0.610425,-0.51875,-0.29485,-24.1584,5.45120000000001,-21.5364,393.4064,1,1,0,0
24-May-2018 14:29:19,-221.222222222222,0.15386,-0.17068,1.442,5.01057142857143,24.95,3.97828571428571,0.171,0,0,0,0,0,0,0,0.4647,-0.3996,-0.700271428571429,-0.778,-0.922,-0.434,0.1464,0.610425,-0.51875,-0.29485,-24.1584,5.45120000000001,-21.5364,393.4064,1,1,0,0
24-May-2018 14:29:19,-221.222222222222,0.15386,-0.17068,1.442,5.01057142857143,24.95,3.97828571428571,0.171,0,0,0,0,0,0,0,0.4647,-0.3996,-0.700271428571429,-0.778,-0.922,-0.434,0.1464,0.610425,-0.51875,-0.29485,-24.1584,5.45120000000001,-21.5364,393.4064,1,1,0,0
24-May-2018 14:29:20,-221.222222222222,-0.160275,-0.162675,1.135625,-2.59983333333333,-1.208,1.19016666666667,0.171,0,0,0,0,0,0,0,0.465575,-0.401925,-0.700875,-0.1668,-0.1438,-0.482,0.207,0.677575,-0.4032,-0.79225,15.9373333333333,79.0853333333333,-61.91,297.699,1,1,1,0
24-May-2018 14:29:20,-221.222222222222,-0.160275,-0.162675,1.135625,-2.59983333333333,-1.208,1.19016666666667,0.171,0,0,0,0,0,0,0,0.465575,-0.401925,-0.700875,-0.1668,-0.1438,-0.482,0.207,0.677575,-0.4032,-0.79225,15.9373333333333,79.0853333333333,-61.91,297.699,1,1,1,0
24-May-2018 14:29:20,-221.222222222222,-0.160275,-0.162675,1.135625,-2.59983333333333,-1.208,1.19016666666667,0.171,0,0,0,0,0,0,0,0.465575,-0.401925,-0.700875,-0.1668,-0.1438,-0.482,0.207,0.677575,-0.4032,-0.79225,15.9373333333333,79.0853333333333,-61.91,297.699,1,1,1,0
24-May-2018 14:29:20,-221.222222222222,-0.160275,-0.162675,1.135625,-2.59983333333333,-1.208,1.19016666666667,0.171,0,0,0,0,0,0,0,0.465575,-0.401925,-0.700875,-0.1668,-0.1438,-0.482,0.207,0.677575,-0.4032,-0.79225,15.9373333333333,79.0853333333333,-61.91,297.699,1,1,1,0
24-May-2018 14:29:21,-221.222222222222,-0.1387,-0.134983333333333,1.02168333333333,1.47457142857143,0.305571428571429,0.270714285714286,0.171,0,0,0,0,0,0,0,0.40014,-0.50896,-0.63402,41.0687777777778,-0.0474444444444452,30.6232222222222,0.204,0.7552875,-0.4664125,-0.355875,63.972,21.167,-2.12414285714286,324.58,1,1,1,0
24-May-2018 14:29:21,-221.222222222222,-0.1387,-0.134983333333333,1.02168333333333,1.47457142857143,0.305571428571429,0.270714285714286,0.171,0,0,0,0,0,0,0,0.40014,-0.50896,-0.63402,41.0687777777778,-0.0474444444444452,30.6232222222222,0.204,0.7552875,-0.4664125,-0.355875,63.972,21.167,-2.12414285714286,324.58,1,1,1,0
24-May-2018 14:29:21,-221.222222222222,-0.1387,-0.134983333333333,1.02168333333333,1.47457142857143,0.305571428571429,0.270714285714286,0.171,0,0,0,0,0,0,0,0.40014,-0.50896,-0.63402,41.0687777777778,-0.0474444444444452,30.6232222222222,0.204,0.7552875,-0.4664125,-0.355875,63.972,21.167,-2.12414285714286,324.58,1,1,1,0
24-May-2018 14:29:21,-221.222222222222,-0.1387,-0.134983333333333,1.02168333333333,1.47457142857143,0.305571428571429,0.270714285714286,0.171,0,0,0,0,0,0,0,0.40014,-0.50896,-0.63402,41.0687777777778,-0.0474444444444452,30.6232222222222,0.204,0.7552875,-0.4664125,-0.355875,63.972,21.167,-2.12414285714286,324.58,1,1,1,0
24-May-2018 14:29:22,-221.222222222222,-0.144966666666667,-0.1173,1.02196666666667,0.7945,0.305625,0.3965,0.171,0,0,0,0,0,0,0,-0.465614285714286,-0.8418,0.1263,21.805,-30.3333333333333,37.9333333333333,0.938,0.95866,-0.38484,-0.01952,-25.9268,11.5,4.0854,434.165285714286,1,1,1,1
24-May-2018 14:29:22,-221.222222222222,-0.144966666666667,-0.1173,1.02196666666667,0.7945,0.305625,0.3965,0.171,0,0,0,0,0,0,0,-0.465614285714286,-0.8418,0.1263,21.805,-30.3333333333333,37.9333333333333,0.938,0.95866,-0.38484,-0.01952,-25.9268,11.5,4.0854,434.165285714286,1,1,1,1
24-May-2018 14:29:22,-221.222222222222,-0.144966666666667,-0.1173,1.02196666666667,0.7945,0.305625,0.3965,0.171,0,0,0,0,0,0,0,-0.465614285714286,-0.8418,0.1263,21.805,-30.3333333333333,37.9333333333333,0.938,0.95866,-0.38484,-0.01952,-25.9268,11.5,4.0854,434.165285714286,1,1,1,1
24-May-2018 14:29:22,-221.222222222222,-0.144966666666667,-0.1173,1.02196666666667,0.7945,0.305625,0.3965,0.171,0,0,0,0,0,0,0,-0.465614285714286,-0.8418,0.1263,21.805,-30.3333333333333,37.9333333333333,0.938,0.95866,-0.38484,-0.01952,-25.9268,11.5,4.0854,434.165285714286,1,1,1,1
24-May-2018 14:29:23,-221.222222222222,-0.148642857142857,-0.114442857142857,1.02092857142857,0.975714285714286,0.514,0.453142857142857,0.171,0,0,0,0,0,0,0,-0.831933333333333,-0.387183333333333,0.50575,18.0634285714286,-11.9371428571429,36.5128571428571,1.06175,0.983142857142857,-0.371585714285714,0.0993142857142857,-7.449,-10.305,-9.1665,464.105333333333,0,1,1,1
24-May-2018 14:29:23,-221.222222222222,-0.148642857142857,-0.114442857142857,1.02092857142857,0.975714285714286,0.514,0.453142857142857,0.171,0,0,0,0,0,0,0,-0.831933333333333,-0.387183333333333,0.50575,18.0634285714286,-11.9371428571429,36.5128571428571,1.06175,0.983142857142857,-0.371585714285714,0.0993142857142857,-7.449,-10.305,-9.1665,464.105333333333,0,1,1,1
24-May-2018 14:29:23,-221.222222222222,-0.148642857142857,-0.114442857142857,1.02092857142857,0.975714285714286,0.514,0.453142857142857,0.171,0,0,0,0,0,0,0,-0.831933333333333,-0.387183333333333,0.50575,18.0634285714286,-11.9371428571429,36.5128571428571,1.06175,0.983142857142857,-0.371585714285714,0.0993142857142857,-7.449,-10.305,-9.1665,464.105333333333,0,1,1,1
24-May-2018 14:29:23,-221.222222222222,-0.148642857142857,-0.114442857142857,1.02092857142857,0.975714285714286,0.514,0.453142857142857,0.171,0,0,0,0,0,0,0,-0.831933333333333,-0.387183333333333,0.50575,18.0634285714286,-11.9371428571429,36.5128571428571,1.06175,0.983142857142857,-0.371585714285714,0.0993142857142857,-7.449,-10.305,-9.1665,464.105333333333,0,1,1,1
24-May-2018 14:29:24,-221.222222222222,-0.1731,-0.117577777777778,1.02662222222222,0.935888888888889,1.01944444444444,-0.106111111111111,0.171,0,0,0,0,0,0,0,-0.881342857142857,-0.340557142857143,0.2664,-14.6753333333333,16.9716666666667,-45.4666666666667,1.13,0.822225,-0.4382,-0.30545,-9.98983333333333,1.6565,16.3211666666667,390.625714285714,1,1,1,1
24-May-2018 14:29:24,-221.222222222222,-0.1731,-0.117577777777778,1.02662222222222,0.935888888888889,1.01944444444444,-0.106111111111111,0.171,0,0,0,0,0,0,0,-0.881342857142857,-0.340557142857143,0.2664,-14.6753333333333,16.9716666666667,-45.4666666666667,1.13,0.822225,-0.4382,-0.30545,-9.98983333333333,1.6565,16.3211666666667,390.625714285714,1,1,1,1
24-May-2018 14:29:24,-221.222222222222,-0.1731,-0.117577777777778,1.02662222222222,0.935888888888889,1.01944444444444,-0.106111111111111,0.171,0,0,0,0,0,0,0,-0.881342857142857,-0.340557142857143,0.2664,-14.6753333333333,16.9716666666667,-45.4666666666667,1.13,0.822225,-0.4382,-0.30545,-9.98983333333333,1.6565,16.3211666666667,390.625714285714,1,1,1,1
24-May-2018 14:29:24,-221.222222222222,-0.1731,-0.117577777777778,1.02662222222222,0.935888888888889,1.01944444444444,-0.106111111111111,0.171,0,0,0,0,0,0,0,-0.881342857142857,-0.340557142857143,0.2664,-14.6753333333333,16.9716666666667,-45.4666666666667,1.13,0.822225,-0.4382,-0.30545,-9.98983333333333,1.6565,16.3211666666667,390.625714285714,1,1,1,1
24-May-2018 14:29:25,-221.222222222222,-0.1734625,-0.127075,1.0178,-0.418888888888889,0.0491111111111111,0.197111111111111,0.171,0,0,0,0,0,0,0,-0.771725,-0.6956,0.210125,15.085,-17.0675,21.0225,0.942,0.9178625,-0.4545125,-0.0284,36.199,32.1951666666667,-14.3903333333333,338.517333333333,0.5,1,1,1
24-May-2018 14:29:25,-221.222222222222,-0.1734625,-0.127075,1.0178,-0.418888888888889,0.0491111111111111,0.197111111111111,0.171,0,0,0,0,0,0,0,-0.771725,-0.6956,0.210125,15.085,-17.0675,21.0225,0.942,0.9178625,-0.4545125,-0.0284,36.199,32.1951666666667,-14.3903333333333,338.517333333333,0.5,1,1,1
24-May-2018 14:29:25,-221.222222222222,-0.1734625,-0.127075,1.0178,-0.418888888888889,0.0491111111111111,0.197111111111111,0.171,0,0,0,0,0,0,0,-0.771725,-0.6956,0.210125,15.085,-17.0675,21.0225,0.942,0.9178625,-0.4545125,-0.0284,36.199,32.1951666666667,-14.3903333333333,338.517333333333,0.5,1,1,1
24-May-2018 14:29:25,-221.222222222222,-0.1734625,-0.127075,1.0178,-0.418888888888889,0.0491111111111111,0.197111111111111,0.171,0,0,0,0,0,0,0,-0.771725,-0.6956,0.210125,15.085,-17.0675,21.0225,0.942,0.9178625,-0.4545125,-0.0284,36.199,32.1951666666667,-14.3903333333333,338.517333333333,0.5,1,1,1
