TIME,HELMET_RAW,BELT_ACC_X,BELT_ACC_Y,BELT_ACC_Z,BELT_ANG_X,BELT_ANG_Y,BELT_ANG_Z,BELT_LUMINOSITY,NECK_ACC_X,NECK_ACC_Y,NECK_ACC_Z,NECK_ANG_X,NECK_ANG_Y,NECK_ANG_Z,NECK_LUMINOSITY,PCKT_ACC_X,PCKT_ACC_Y,PCKT_ACC_Z,PCKT_ANG_X,PCKT_ANG_Y,PCKT_ANG_Z,PCKT_LUMINOSITY,WRST_ACC_X,WRST_ACC_Y,WRST_ACC_Z,WRST_ANG_X,WRST_ANG_Y,WRST_ANG_Z,WRST_LUMINOSITY,IR_1,IR_2,IR_3,IR_4
24-May-2018 14:29:44,-221.222222222222,-0.211833333333333,-0.0479333333333333,1.0606,-1.8372,0.8418,0.1602,0.00783333333333333,0,0,0,0,0,0,0,0.358725,-0.430925,-0.7458875,-0.776666666666667,-0.918333333333333,-0.331666666666667,0.213,0.9153,-0.29776,0.02444,-32.5601428571429,10.4528571428571,-3.223,510.518666666667,1,1,1,1
24-May-2018 14:29:44,-221.222222222222,-0.211833333333333,-0.0479333333333333,1.0606,-1.8372,0.8418,0.1602,0.00783333333333333,0,0,0,0,0,0,0,0.358725,-0.430925,-0.7458875,-0.776666666666667,-0.918333333333333,-0.331666666666667,0.213,0.9153,-0.29776,0.02444,-32.5601428571429,10.4528571428571,-3.223,510.518666666667,1,1,1,1
24-May-2018 14:29:44,-221.222222222222,-0.211833333333333,-0.0479333333333333,1.0606,-1.8372,0.8418,0.1602,0.00783333333333333,0,0,0,0,0,0,0,0.358725,-0.430925,-0.7458875,-0.776666666666667,-0.918333333333333,-0.331666666666667,0.213,0.9153,-0.29776,0.02444,-32.5601428571429,10.4528571428571,-3.223,510.518666666667,1,1,1,1
24-May-2018 14:29:44,-221.222222222222,-0.211833333333333,-0.0479333333333333,1.0606,-1.8372,0.8418,0.1602,0.00783333333333333,0,0,0,0,0,0,0,0.358725,-0.430925,-0.7458875,-0.776666666666667,-0.918333333333333,-0.331666666666667,0.213,0.9153,-0.29776,0.02444,-32.5601428571429,10.4528571428571,-3.223,510.518666666667,1,1,1,1
24-May-2018 14:29:45,-221.222222222222,-0.211128571428571,-0.0624428571428571,1.0246,0.619142857142857,0.976857142857143,0.444428571428571,0.00783333333333333,0,0,0,0,0,0,0,0.355416666666667,-0.431466666666667,-0.7452,-0.622857142857143,-1.15571428571429,-0.137142857142857,0.213,1.05128571428571,-0.309671428571429,-0.0665142857142857,-11.1075,-4.61383333333333,16.2398333333333,341.7902,1,1,1,1
24-May-2018 14:29:45,-221.222222222222,-0.211128571428571,-0.0624428571428571,1.0246,0.619142857142857,0.976857142857143,0.444428571428571,0.00783333333333333,0,0,0,0,0,0,0,0.355416666666667,-0.431466666666667,-0.7452,-0.622857142857143,-1.15571428571429,-0.137142857142857,0.213,1.05128571428571,-0.309671428571429,-0.0665142857142857,-11.1075,-4.61383333333333,16.2398333333333,341.7902,1,1,1,1
24-May-2018 14:29:45,-221.222222222222,-0.211128571428571,-0.0624428571428571,1.0246,0.619142857142857,0.976857142857143,0.444428571428571,0.00783333333333333,0,0,0,0,0,0,0,0.355416666666667,-0.431466666666667,-0.7452,-0.622857142857143,-1.15571428571429,-0.137142857142857,0.213,1.05128571428571,-0.309671428571429,-0.0665142857142857,-11.1075,-4.61383333333333,16.2398333333333,341.7902,1,1,1,1
24-May-2018 14:29:45,-221.222222222222,-0.211128571428571,-0.0624428571428571,1.0246,0.619142857142857,0.976857142857143,0.444428571428571,0.00783333333333333,0,0,0,0,0,0,0,0.355416666666667,-0.431466666666667,-0.7452,-0.622857142857143,-1.15571428571429,-0.137142857142857,0.213,1.05128571428571,-0.309671428571429,-0.0665142857142857,-11.1075,-4.61383333333333,16.2398333333333,341.7902,1,1,1,1
24-May-2018 14:29:46,-221.222222222222,-0.209114285714286,-0.0621714285714286,1.01965714285714,0.392142857142857,-0.275,0.278857142857143,0.00783333333333333,0,0,0,0,0,0,0,0.374985714285714,-0.431071428571429,-0.753428571428571,-0.566666666666667,0.844333333333333,-1.35666666666667,0.213,0.984457142857143,-0.0240857142857143,-0.0426,80.7405714285714,-4.582,-16.054,97.7826666666667,1,1,1,0
24-May-2018 14:29:46,-221.222222222222,-0.209114285714286,-0.0621714285714286,1.01965714285714,0.392142857142857,-0.275,0.278857142857143,0.00783333333333333,0,0,0,0,0,0,0,0.374985714285714,-0.431071428571429,-0.753428571428571,-0.566666666666667,0.844333333333333,-1.35666666666667,0.213,0.984457142857143,-0.0240857142857143,-0.0426,80.7405714285714,-4.582,-16.054,97.7826666666667,1,1,1,0
24-May-2018 14:29:46,-221.222222222222,-0.209114285714286,-0.0621714285714286,1.01965714285714,0.392142857142857,-0.275,0.278857142857143,0.00783333333333333,0,0,0,0,0,0,0,0.374985714285714,-0.431071428571429,-0.753428571428571,-0.566666666666667,0.844333333333333,-1.35666666666667,0.213,0.984457142857143,-0.0240857142857143,-0.0426,80.7405714285714,-4.582,-16.054,97.7826666666667,1,1,1,0
24-May-2018 14:29:46,-221.222222222222,-0.209114285714286,-0.0621714285714286,1.01965714285714,0.392142857142857,-0.275,0.278857142857143,0.00783333333333333,0,0,0,0,0,0,0,0.374985714285714,-0.431071428571429,-0.753428571428571,-0.566666666666667,0.844333333333333,-1.35666666666667,0.213,0.984457142857143,-0.0240857142857143,-0.0426,80.7405714285714,-4.582,-16.054,97.7826666666667,1,1,1,0
24-May-2018 14:29:47,-221.222222222222,-0.204957142857143,-0.0642,1.0216,0.453142857142857,0.193,0.331142857142857,0.00783333333333333,0,0,0,0,0,0,0,0.3493375,-0.5135875,-0.6633125,24.1968333333333,-15.8516666666667,29.3158333333333,0.183,0.99962,-0.32358,-0.0268,9.89557142857143,-2.02085714285714,0.958285714285714,367.5478,1,1,1,1
24-May-2018 14:29:47,-221.222222222222,-0.204957142857143,-0.0642,1.0216,0.453142857142857,0.193,0.331142857142857,0.00783333333333333,0,0,0,0,0,0,0,0.3493375,-0.5135875,-0.6633125,24.1968333333333,-15.8516666666667,29.3158333333333,0.183,0.99962,-0.32358,-0.0268,9.89557142857143,-2.02085714285714,0.958285714285714,367.5478,1,1,1,1
24-May-2018 14:29:47,-221.222222222222,-0.204957142857143,-0.0642,1.0216,0.453142857142857,0.193,0.331142857142857,0.00783333333333333,0,0,0,0,0,0,0,0.3493375,-0.5135875,-0.6633125,24.1968333333333,-15.8516666666667,29.3158333333333,0.183,0.99962,-0.32358,-0.0268,9.89557142857143,-2.02085714285714,0.958285714285714,367.5478,1,1,1,1
24-May-2018 14:29:47,-221.222222222222,-0.204957142857143,-0.0642,1.0216,0.453142857142857,0.193,0.331142857142857,0.00783333333333333,0,0,0,0,0,0,0,0.3493375,-0.5135875,-0.6633125,24.1968333333333,-15.8516666666667,29.3158333333333,0.183,0.99962,-0.32358,-0.0268,9.89557142857143,-2.02085714285714,0.958285714285714,367.5478,1,1,1,1
24-May-2018 14:29:48,-221.222222222222,-0.208257142857143,-0.0627857142857143,1.0242,0.627428571428571,-0.0412857142857143,0.357285714285714,0.00783333333333333,0,0,0,0,0,0,0,-0.584628571428571,-0.8207,0.0459714285714286,23.755,-14.608,42.5583333333333,0.779,1.00253333333333,-0.216083333333333,0.0280166666666667,-24.431,-3.0285,2.36783333333333,418.4122,0,1,1,1
24-May-2018 14:29:48,-221.222222222222,-0.208257142857143,-0.0627857142857143,1.0242,0.627428571428571,-0.0412857142857143,0.357285714285714,0.00783333333333333,0,0,0,0,0,0,0,-0.584628571428571,-0.8207,0.0459714285714286,23.755,-14.608,42.5583333333333,0.779,1.00253333333333,-0.216083333333333,0.0280166666666667,-24.431,-3.0285,2.36783333333333,418.4122,0,1,1,1
24-May-2018 14:29:48,-221.222222222222,-0.208257142857143,-0.0627857142857143,1.0242,0.627428571428571,-0.0412857142857143,0.357285714285714,0.00783333333333333,0,0,0,0,0,0,0,-0.584628571428571,-0.8207,0.0459714285714286,23.755,-14.608,42.5583333333333,0.779,1.00253333333333,-0.216083333333333,0.0280166666666667,-24.431,-3.0285,2.36783333333333,418.4122,0,1,1,1
24-May-2018 14:29:48,-221.222222222222,-0.208257142857143,-0.0627857142857143,1.0242,0.627428571428571,-0.0412857142857143,0.357285714285714,0.00783333333333333,0,0,0,0,0,0,0,-0.584628571428571,-0.8207,0.0459714285714286,23.755,-14.608,42.5583333333333,0.779,1.00253333333333,-0.216083333333333,0.0280166666666667,-24.431,-3.0285,2.36783333333333,418.4122,0,1,1,1
24-May-2018 14:29:49,-221.222222222222,-0.203633333333333,-0.0650666666666667,1.02298333333333,0.566428571428571,0.001,0.322428571428571,0.00783333333333333,0,0,0,0,0,0,0,-0.810766666666667,-0.4981,0.394033333333333,25.4836666666667,-20.63,35.2116666666667,1.001,1.00318333333333,-0.256133333333333,-0.1264,8.70588888888889,-4.22755555555556,3.06233333333333,413.609,0,1,1,1
24-May-2018 14:29:49,-221.222222222222,-0.203633333333333,-0.0650666666666667,1.02298333333333,0.566428571428571,0.001,0.322428571428571,0.00783333333333333,0,0,0,0,0,0,0,-0.810766666666667,-0.4981,0.394033333333333,25.4836666666667,-20.63,35.2116666666667,1.001,1.00318333333333,-0.256133333333333,-0.1264,8.70588888888889,-4.22755555555556,3.06233333333333,413.609,0,1,1,1
24-May-2018 14:29:49,-221.222222222222,-0.203633333333333,-0.0650666666666667,1.02298333333333,0.566428571428571,0.001,0.322428571428571,0.00783333333333333,0,0,0,0,0,0,0,-0.810766666666667,-0.4981,0.394033333333333,25.4836666666667,-20.63,35.2116666666667,1.001,1.00318333333333,-0.256133333333333,-0.1264,8.70588888888889,-4.22755555555556,3.06233333333333,413.609,0,1,1,1
24-May-2018 14:29:49,-221.222222222222,-0.203633333333333,-0.0650666666666667,1.02298333333333,0.566428571428571,0.001,0.322428571428571,0.00783333333333333,0,0,0,0,0,0,0,-0.810766666666667,-0.4981,0.394033333333333,25.4836666666667,-20.63,35.2116666666667,1.001,1.00318333333333,-0.256133333333333,-0.1264,8.70588888888889,-4.22755555555556,3.06233333333333,413.609,0,1,1,1
24-May-2018 14:29:50,-221.222222222222,-0.195042857142857,-0.0786,1.03467142857143,0.499714285714286,-0.982142857142857,0.209571428571429,0.00783333333333333,0,0,0,0,0,0,0,-0.873175,-0.2966875,0.3410375,-32.185,19.39,-37.1825,1.007,0.321766666666667,-0.6137,0.2756,28.2196,38.634,192.0732,580.829,1,1,1,1
24-May-2018 14:29:50,-221.222222222222,-0.195042857142857,-0.0786,1.03467142857143,0.499714285714286,-0.982142857142857,0.209571428571429,0.00783333333333333,0,0,0,0,0,0,0,-0.873175,-0.2966875,0.3410375,-32.185,19.39,-37.1825,1.007,0.321766666666667,-0.6137,0.2756,28.2196,38.634,192.0732,580.829,1,1,1,1
24-May-2018 14:29:50,-221.222222222222,-0.195042857142857,-0.0786,1.03467142857143,0.499714285714286,-0.982142857142857,0.209571428571429,0.00783333333333333,0,0,0,0,0,0,0,-0.873175,-0.2966875,0.3410375,-32.185,19.39,-37.1825,1.007,0.321766666666667,-0.6137,0.2756,28.2196,38.634,192.0732,580.829,1,1,1,1
24-May-2018 14:29:50,-221.222222222222,-0.195042857142857,-0.0786,1.03467142857143,0.499714285714286,-0.982142857142857,0.209571428571429,0.00783333333333333,0,0,0,0,0,0,0,-0.873175,-0.2966875,0.3410375,-32.185,19.39,-37.1825,1.007,0.321766666666667,-0.6137,0.2756,28.2196,38.634,192.0732,580.829,1,1,1,1
24-May-2018 14:29:51,-221.222222222222,-0.358244444444444,-0.1216,1.02021111111111,-2.61133333333333,12.4766666666667,2.26888888888889,0.00783333333333333,0,0,0,0,0,0,0,-0.7114,-0.699316666666667,0.18005,23.9557142857143,0.875714285714289,4.32928571428571,1.077,-0.853257142857143,-0.285885714285714,0.323428571428571,-6.661625,1.227125,1.257625,726.309666666667,1,1,1,1
24-May-2018 14:29:51,-221.222222222222,-0.358244444444444,-0.1216,1.02021111111111,-2.61133333333333,12.4766666666667,2.26888888888889,0.00783333333333333,0,0,0,0,0,0,0,-0.7114,-0.699316666666667,0.18005,23.9557142857143,0.875714285714289,4.32928571428571,1.077,-0.853257142857143,-0.285885714285714,0.323428571428571,-6.661625,1.227125,1.257625,726.309666666667,1,1,1,1
24-May-2018 14:29:51,-221.222222222222,-0.358244444444444,-0.1216,1.02021111111111,-2.61133333333333,12.4766666666667,2.26888888888889,0.00783333333333333,0,0,0,0,0,0,0,-0.7114,-0.699316666666667,0.18005,23.9557142857143,0.875714285714289,4.32928571428571,1.077,-0.853257142857143,-0.285885714285714,0.323428571428571,-6.661625,1.227125,1.257625,726.309666666667,1,1,1,1
24-May-2018 14:29:51,-221.222222222222,-0.358244444444444,-0.1216,1.02021111111111,-2.61133333333333,12.4766666666667,2.26888888888889,0.00783333333333333,0,0,0,0,0,0,0,-0.7114,-0.699316666666667,0.18005,23.9557142857143,0.875714285714289,4.32928571428571,1.077,-0.853257142857143,-0.285885714285714,0.323428571428571,-6.661625,1.227125,1.257625,726.309666666667,1,1,1,1
24-May-2018 14:29:52,-221.222222222222,-0.862433333333333,-0.0443666666666667,0.355833333333333,1.78214285714286,27.4275714285714,-0.803571428571428,0.00783333333333333,0,0,0,0,0,0,0,-0.679183333333333,-0.752,-0.151716666666667,-5.18483333333333,-13.0816666666667,-3.55166666666667,0.8525,0.619083333333333,-0.457316666666667,0.0283833333333333,-39.4488,-36.1586,-137.0934,528.523,1,1,1,0
24-May-2018 14:29:52,-221.222222222222,-0.862433333333333,-0.0443666666666667,0.355833333333333,1.78214285714286,27.4275714285714,-0.803571428571428,0.00783333333333333,0,0,0,0,0,0,0,-0.679183333333333,-0.752,-0.151716666666667,-5.18483333333333,-13.0816666666667,-3.55166666666667,0.8525,0.619083333333333,-0.457316666666667,0.0283833333333333,-39.4488,-36.1586,-137.0934,528.523,1,1,1,0
24-May-2018 14:29:52,-221.222222222222,-0.862433333333333,-0.0443666666666667,0.355833333333333,1.78214285714286,27.4275714285714,-0.803571428571428,0.00783333333333333,0,0,0,0,0,0,0,-0.679183333333333,-0.752,-0.151716666666667,-5.18483333333333,-13.0816666666667,-3.55166666666667,0.8525,0.619083333333333,-0.457316666666667,0.0283833333333333,-39.4488,-36.1586,-137.0934,528.523,1,1,1,0
24-May-2018 14:29:52,-221.222222222222,-0.862433333333333,-0.0443666666666667,0.355833333333333,1.78214285714286,27.4275714285714,-0.803571428571428,0.00783333333333333,0,0,0,0,0,0,0,-0.679183333333333,-0.752,-0.151716666666667,-5.18483333333333,-13.0816666666667,-3.55166666666667,0.8525,0.619083333333333,-0.457316666666667,0.0283833333333333,-39.4488,-36.1586,-137.0934,528.523,1,1,1,0
24-May-2018 14:29:53,-221.222222222222,-0.985316666666667,0.0679666666666667,-0.0473166666666667,9.53,5.67,4.89133333333333,0.2155,0,0,0,0,0,0,0,-0.616442857142857,-0.792871428571429,0.213657142857143,3.46342857142857,-1.49785714285714,4.974,0.951666666666667,0.87685,-0.342483333333333,0.0766833333333333,16.4547142857143,27.9357142857143,1.59428571428571,374.28975,1,1,1,0
24-May-2018 14:29:53,-221.222222222222,-0.985316666666667,0.0679666666666667,-0.0473166666666667,9.53,5.67,4.89133333333333,0.2155,0,0,0,0,0,0,0,-0.616442857142857,-0.792871428571429,0.213657142857143,3.46342857142857,-1.49785714285714,4.974,0.951666666666667,0.87685,-0.342483333333333,0.0766833333333333,16.4547142857143,27.9357142857143,1.59428571428571,374.28975,1,1,1,0
24-May-2018 14:29:53,-221.222222222222,-0.985316666666667,0.0679666666666667,-0.0473166666666667,9.53,5.67,4.89133333333333,0.2155,0,0,0,0,0,0,0,-0.616442857142857,-0.792871428571429,0.213657142857143,3.46342857142857,-1.49785714285714,4.974,0.951666666666667,0.87685,-0.342483333333333,0.0766833333333333,16.4547142857143,27.9357142857143,1.59428571428571,374.28975,1,1,1,0
24-May-2018 14:29:53,-221.222222222222,-0.985316666666667,0.0679666666666667,-0.0473166666666667,9.53,5.67,4.89133333333333,0.2155,0,0,0,0,0,0,0,-0.616442857142857,-0.792871428571429,0.213657142857143,3.46342857142857,-1.49785714285714,4.974,0.951666666666667,0.87685,-0.342483333333333,0.0766833333333333,16.4547142857143,27.9357142857143,1.59428571428571,374.28975,1,1,1,0
