TIME,HELMET_RAW,BELT_ACC_X,BELT_ACC_Y,BELT_ACC_Z,BELT_ANG_X,BELT_ANG_Y,BELT_ANG_Z,BELT_LUMINOSITY,NECK_ACC_X,NECK_ACC_Y,NECK_ACC_Z,NECK_ANG_X,NECK_ANG_Y,NECK_ANG_Z,NECK_LUMINOSITY,PCKT_ACC_X,PCKT_ACC_Y,PCKT_ACC_Z,PCKT_ANG_X,PCKT_ANG_Y,PCKT_ANG_Z,PCKT_LUMINOSITY,WRST_ACC_X,WRST_ACC_Y,WRST_ACC_Z,WRST_ANG_X,WRST_ANG_Y,WRST_ANG_Z,WRST_LUMINOSITY,IR_1,IR_2,IR_3,IR_4
24-May-2018 12:59:31,893.7,0.539914285714286,0.472371428571428,-0.665685714285714,-0.816142857142857,0.246142857142857,0.392714285714286,94.815,-0.87906,0.06974,-0.82604,1.63725,20.302,-24.2225,161.595,0.0837,-0.75935,0.735725,1.378,-0.875,0.8784,3.4824,0.4296,-0.04715,0.925625,-1.561,-0.0242,-2.0612,792.9642,0,1,1,1
24-May-2018 12:59:31,893.7,0.539914285714286,0.472371428571428,-0.665685714285714,-0.816142857142857,0.246142857142857,0.392714285714286,94.815,-0.87906,0.06974,-0.82604,1.63725,20.302,-24.2225,161.595,0.0837,-0.75935,0.735725,1.378,-0.875,0.8784,3.4824,0.4296,-0.04715,0.925625,-1.561,-0.0242,-2.0612,792.9642,0,1,1,1
24-May-2018 12:59:31,893.7,0.539914285714286,0.472371428571428,-0.665685714285714,-0.816142857142857,0.246142857142857,0.392714285714286,94.815,-0.87906,0.06974,-0.82604,1.63725,20.302,-24.2225,161.595,0.0837,-0.75935,0.735725,1.378,-0.875,0.8784,3.4824,0.4296,-0.04715,0.925625,-1.561,-0.0242,-2.0612,792.9642,0,1,1,1
24-May-2018 12:59:31,893.7,0.539914285714286,0.472371428571428,-0.665685714285714,-0.816142857142857,0.246142857142857,0.392714285714286,94.815,-0.87906,0.06974,-0.82604,1.63725,20.302,-24.2225,161.595,0.0837,-0.75935,0.735725,1.378,-0.875,0.8784,3.4824,0.4296,-0.04715,0.925625,-1.561,-0.0242,-2.0612,792.9642,0,1,1,1
24-May-2018 12:59:32,896.75,0.5021,0.454183333333333,-0.6971,2.4268,0.2932,0.5382,97.3295,-0.7741,-0.06186,-0.56372,9.01811111111111,8.95055555555556,-5.87833333333333,152.013,0.0670714285714286,-0.748057142857143,0.753828571428571,-1.4978,-0.07,-0.4844,3.39225,0.431133333333333,-0.0446,0.934933333333333,3.122,0.9268,1.2562,793.2835,1,1,1,1
24-May-2018 12:59:32,896.75,0.5021,0.454183333333333,-0.6971,2.4268,0.2932,0.5382,97.3295,-0.7741,-0.06186,-0.56372,9.01811111111111,8.95055555555556,-5.87833333333333,152.013,0.0670714285714286,-0.748057142857143,0.753828571428571,-1.4978,-0.07,-0.4844,3.39225,0.431133333333333,-0.0446,0.934933333333333,3.122,0.9268,1.2562,793.2835,1,1,1,1
24-May-2018 12:59:32,896.75,0.5021,0.454183333333333,-0.6971,2.4268,0.2932,0.5382,97.3295,-0.7741,-0.06186,-0.56372,9.01811111111111,8.95055555555556,-5.87833333333333,152.013,0.0670714285714286,-0.748057142857143,0.753828571428571,-1.4978,-0.07,-0.4844,3.39225,0.431133333333333,-0.0446,0.934933333333333,3.122,0.9268,1.2562,793.2835,1,1,1,1
24-May-2018 12:59:32,896.75,0.5021,0.454183333333333,-0.6971,2.4268,0.2932,0.5382,97.3295,-0.7741,-0.06186,-0.56372,9.01811111111111,8.95055555555556,-5.87833333333333,152.013,0.0670714285714286,-0.748057142857143,0.753828571428571,-1.4978,-0.07,-0.4844,3.39225,0.431133333333333,-0.0446,0.934933333333333,3.122,0.9268,1.2562,793.2835,1,1,1,1
24-May-2018 12:59:33,634.5,0.515533333333333,0.440066666666667,-0.702733333333333,-0.283857142857143,-0.396285714285714,0.0547142857142857,103.227,-0.792883333333333,-0.0375333333333333,-0.677716666666667,7.401,-7.620875,6.82625,152.013,0.07434,-0.76084,0.74238,-2.17,0.4885,-1.66166666666667,3.1725,0.409725,-0.0598,0.938075,1.95125,4.28375,0.25925,805.94525,0,1,1,1
24-May-2018 12:59:33,634.5,0.515533333333333,0.440066666666667,-0.702733333333333,-0.283857142857143,-0.396285714285714,0.0547142857142857,103.227,-0.792883333333333,-0.0375333333333333,-0.677716666666667,7.401,-7.620875,6.82625,152.013,0.07434,-0.76084,0.74238,-2.17,0.4885,-1.66166666666667,3.1725,0.409725,-0.0598,0.938075,1.95125,4.28375,0.25925,805.94525,0,1,1,1
24-May-2018 12:59:33,634.5,0.515533333333333,0.440066666666667,-0.702733333333333,-0.283857142857143,-0.396285714285714,0.0547142857142857,103.227,-0.792883333333333,-0.0375333333333333,-0.677716666666667,7.401,-7.620875,6.82625,152.013,0.07434,-0.76084,0.74238,-2.17,0.4885,-1.66166666666667,3.1725,0.409725,-0.0598,0.938075,1.95125,4.28375,0.25925,805.94525,0,1,1,1
24-May-2018 12:59:33,634.5,0.515533333333333,0.440066666666667,-0.702733333333333,-0.283857142857143,-0.396285714285714,0.0547142857142857,103.227,-0.792883333333333,-0.0375333333333333,-0.677716666666667,7.401,-7.620875,6.82625,152.013,0.07434,-0.76084,0.74238,-2.17,0.4885,-1.66166666666667,3.1725,0.409725,-0.0598,0.938075,1.95125,4.28375,0.25925,805.94525,0,1,1,1
24-May-2018 12:59:34,-298.222222222222,0.502166666666667,0.470333333333333,-0.687366666666667,-0.165,0.087,0.17,97.408,-0.80965,-0.148083333333333,-0.72705,69.4285714285714,21.0757142857143,28.8014285714286,159.146,0.10952,-0.78568,0.70122,-3.74,-3.422,-2.008,3.23333333333333,0.39154,-0.10754,0.94834,-1.99725,0.7165,0.38125,805.1915,0,1,1,1
24-May-2018 12:59:34,-298.222222222222,0.502166666666667,0.470333333333333,-0.687366666666667,-0.165,0.087,0.17,97.408,-0.80965,-0.148083333333333,-0.72705,69.4285714285714,21.0757142857143,28.8014285714286,159.146,0.10952,-0.78568,0.70122,-3.74,-3.422,-2.008,3.23333333333333,0.39154,-0.10754,0.94834,-1.99725,0.7165,0.38125,805.1915,0,1,1,1
24-May-2018 12:59:34,-298.222222222222,0.502166666666667,0.470333333333333,-0.687366666666667,-0.165,0.087,0.17,97.408,-0.80965,-0.148083333333333,-0.72705,69.4285714285714,21.0757142857143,28.8014285714286,159.146,0.10952,-0.78568,0.70122,-3.74,-3.422,-2.008,3.23333333333333,0.39154,-0.10754,0.94834,-1.99725,0.7165,0.38125,805.1915,0,1,1,1
24-May-2018 12:59:34,-298.222222222222,0.502166666666667,0.470333333333333,-0.687366666666667,-0.165,0.087,0.17,97.408,-0.80965,-0.148083333333333,-0.72705,69.4285714285714,21.0757142857143,28.8014285714286,159.146,0.10952,-0.78568,0.70122,-3.74,-3.422,-2.008,3.23333333333333,0.39154,-0.10754,0.94834,-1.99725,0.7165,0.38125,805.1915,0,1,1,1
24-May-2018 12:59:35,-836.5,0.512066666666667,0.4506,-0.696133333333333,1.51583333333333,0.012,0.904833333333333,100.469,-0.798475,-0.12235,-0.6229,66.1211111111111,30.6522222222222,36.7833333333333,162.975333333333,0.124325,-0.7949,0.6816,0.9755,1.311,0.854,3.37333333333333,0.39075,-0.14685,0.95125,0.142333333333333,0.894333333333333,-0.0406666666666667,805.611,0,1,1,1
24-May-2018 12:59:35,-836.5,0.512066666666667,0.4506,-0.696133333333333,1.51583333333333,0.012,0.904833333333333,100.469,-0.798475,-0.12235,-0.6229,66.1211111111111,30.6522222222222,36.7833333333333,162.975333333333,0.124325,-0.7949,0.6816,0.9755,1.311,0.854,3.37333333333333,0.39075,-0.14685,0.95125,0.142333333333333,0.894333333333333,-0.0406666666666667,805.611,0,1,1,1
24-May-2018 12:59:35,-836.5,0.512066666666667,0.4506,-0.696133333333333,1.51583333333333,0.012,0.904833333333333,100.469,-0.798475,-0.12235,-0.6229,66.1211111111111,30.6522222222222,36.7833333333333,162.975333333333,0.124325,-0.7949,0.6816,0.9755,1.311,0.854,3.37333333333333,0.39075,-0.14685,0.95125,0.142333333333333,0.894333333333333,-0.0406666666666667,805.611,0,1,1,1
24-May-2018 12:59:35,-836.5,0.512066666666667,0.4506,-0.696133333333333,1.51583333333333,0.012,0.904833333333333,100.469,-0.798475,-0.12235,-0.6229,66.1211111111111,30.6522222222222,36.7833333333333,162.975333333333,0.124325,-0.7949,0.6816,0.9755,1.311,0.854,3.37333333333333,0.39075,-0.14685,0.95125,0.142333333333333,0.894333333333333,-0.0406666666666667,805.611,0,1,1,1
24-May-2018 12:59:36,-867.666666666667,0.514125,0.44645,-0.7020375,1.068,2.851,0.292,103.112666666667,-0.787425,-0.183225,-0.65145,63.2622222222222,24.6977777777778,43.7955555555556,170.634,0.11324,-0.78232,0.70238,0.77,-0.4838,0.744,3.4435,0.383266666666667,-0.14575,0.94515,1.08225,0.549,0.07625,806.2235,0,1,1,1
24-May-2018 12:59:36,-867.666666666667,0.514125,0.44645,-0.7020375,1.068,2.851,0.292,103.112666666667,-0.787425,-0.183225,-0.65145,63.2622222222222,24.6977777777778,43.7955555555556,170.634,0.11324,-0.78232,0.70238,0.77,-0.4838,0.744,3.4435,0.383266666666667,-0.14575,0.94515,1.08225,0.549,0.07625,806.2235,0,1,1,1
24-May-2018 12:59:36,-867.666666666667,0.514125,0.44645,-0.7020375,1.068,2.851,0.292,103.112666666667,-0.787425,-0.183225,-0.65145,63.2622222222222,24.6977777777778,43.7955555555556,170.634,0.11324,-0.78232,0.70238,0.77,-0.4838,0.744,3.4435,0.383266666666667,-0.14575,0.94515,1.08225,0.549,0.07625,806.2235,0,1,1,1
24-May-2018 12:59:36,-867.666666666667,0.514125,0.44645,-0.7020375,1.068,2.851,0.292,103.112666666667,-0.787425,-0.183225,-0.65145,63.2622222222222,24.6977777777778,43.7955555555556,170.634,0.11324,-0.78232,0.70238,0.77,-0.4838,0.744,3.4435,0.383266666666667,-0.14575,0.94515,1.08225,0.549,0.07625,806.2235,0,1,1,1
24-May-2018 12:59:37,-667.125,0.50895,0.46045,-0.695625,-2.374,-1.9224,-0.35,103.301666666667,-0.77822,-0.15346,-0.64486,69.935,21.36,79.86,170.634,0.0955666666666667,-0.7635,0.730066666666667,1.48085714285714,-0.911142857142857,0.801714285714286,3.54125,0.383,-0.130033333333333,0.9475,0.549,0.8845,0.2135,807.03725,0,1,1,1
24-May-2018 12:59:37,-667.125,0.50895,0.46045,-0.695625,-2.374,-1.9224,-0.35,103.301666666667,-0.77822,-0.15346,-0.64486,69.935,21.36,79.86,170.634,0.0955666666666667,-0.7635,0.730066666666667,1.48085714285714,-0.911142857142857,0.801714285714286,3.54125,0.383,-0.130033333333333,0.9475,0.549,0.8845,0.2135,807.03725,0,1,1,1
24-May-2018 12:59:37,-667.125,0.50895,0.46045,-0.695625,-2.374,-1.9224,-0.35,103.301666666667,-0.77822,-0.15346,-0.64486,69.935,21.36,79.86,170.634,0.0955666666666667,-0.7635,0.730066666666667,1.48085714285714,-0.911142857142857,0.801714285714286,3.54125,0.383,-0.130033333333333,0.9475,0.549,0.8845,0.2135,807.03725,0,1,1,1
24-May-2018 12:59:37,-667.125,0.50895,0.46045,-0.695625,-2.374,-1.9224,-0.35,103.301666666667,-0.77822,-0.15346,-0.64486,69.935,21.36,79.86,170.634,0.0955666666666667,-0.7635,0.730066666666667,1.48085714285714,-0.911142857142857,0.801714285714286,3.54125,0.383,-0.130033333333333,0.9475,0.549,0.8845,0.2135,807.03725,0,1,1,1
24-May-2018 12:59:38,-330.888888888889,0.49365,0.498033333333333,-0.678216666666667,-3.07333333333333,-0.374,-0.87,103.301666666667,-0.7452,-0.169975,-0.63995,86.3922222222222,9.071,93.79,170.906666666667,0.0782333333333333,-0.739833333333333,0.760666666666667,0.184166666666667,-0.616333333333333,0.112333333333333,3.57266666666667,0.382175,-0.131575,0.946375,0.6222,0.5978,-0.0488,807.597,1,1,1,1
24-May-2018 12:59:38,-330.888888888889,0.49365,0.498033333333333,-0.678216666666667,-3.07333333333333,-0.374,-0.87,103.301666666667,-0.7452,-0.169975,-0.63995,86.3922222222222,9.071,93.79,170.906666666667,0.0782333333333333,-0.739833333333333,0.760666666666667,0.184166666666667,-0.616333333333333,0.112333333333333,3.57266666666667,0.382175,-0.131575,0.946375,0.6222,0.5978,-0.0488,807.597,1,1,1,1
24-May-2018 12:59:38,-330.888888888889,0.49365,0.498033333333333,-0.678216666666667,-3.07333333333333,-0.374,-0.87,103.301666666667,-0.7452,-0.169975,-0.63995,86.3922222222222,9.071,93.79,170.906666666667,0.0782333333333333,-0.739833333333333,0.760666666666667,0.184166666666667,-0.616333333333333,0.112333333333333,3.57266666666667,0.382175,-0.131575,0.946375,0.6222,0.5978,-0.0488,807.597,1,1,1,1
24-May-2018 12:59:38,-330.888888888889,0.49365,0.498033333333333,-0.678216666666667,-3.07333333333333,-0.374,-0.87,103.301666666667,-0.7452,-0.169975,-0.63995,86.3922222222222,9.071,93.79,170.906666666667,0.0782333333333333,-0.739833333333333,0.760666666666667,0.184166666666667,-0.616333333333333,0.112333333333333,3.57266666666667,0.382175,-0.131575,0.946375,0.6222,0.5978,-0.0488,807.597,1,1,1,1
24-May-2018 12:59:39,331.222222222222,0.478744444444444,0.526022222222222,-0.668966666666667,0.810714285714286,0.288571428571429,0.349,103.301666666667,-0.799125,-0.132075,-0.66535,67.4875,-2.17475,63.045,171.452,0.0747,-0.738583333333333,0.76445,-1.64285714285714,-0.701714285714286,-0.952857142857143,3.513,0.3799,-0.132775,0.948475,0.5185,0.508333333333333,-0.0915,809.6998,0,1,1,1
24-May-2018 12:59:39,331.222222222222,0.478744444444444,0.526022222222222,-0.668966666666667,0.810714285714286,0.288571428571429,0.349,103.301666666667,-0.799125,-0.132075,-0.66535,67.4875,-2.17475,63.045,171.452,0.0747,-0.738583333333333,0.76445,-1.64285714285714,-0.701714285714286,-0.952857142857143,3.513,0.3799,-0.132775,0.948475,0.5185,0.508333333333333,-0.0915,809.6998,0,1,1,1
24-May-2018 12:59:39,331.222222222222,0.478744444444444,0.526022222222222,-0.668966666666667,0.810714285714286,0.288571428571429,0.349,103.301666666667,-0.799125,-0.132075,-0.66535,67.4875,-2.17475,63.045,171.452,0.0747,-0.738583333333333,0.76445,-1.64285714285714,-0.701714285714286,-0.952857142857143,3.513,0.3799,-0.132775,0.948475,0.5185,0.508333333333333,-0.0915,809.6998,0,1,1,1
24-May-2018 12:59:39,331.222222222222,0.478744444444444,0.526022222222222,-0.668966666666667,0.810714285714286,0.288571428571429,0.349,103.301666666667,-0.799125,-0.132075,-0.66535,67.4875,-2.17475,63.045,171.452,0.0747,-0.738583333333333,0.76445,-1.64285714285714,-0.701714285714286,-0.952857142857143,3.513,0.3799,-0.132775,0.948475,0.5185,0.508333333333333,-0.0915,809.6998,0,1,1,1
24-May-2018 12:59:40,939.333333333333,0.4887125,0.5007125,-0.68035,3.1325,1.189125,1.059625,103.301666666667,-0.795225,-0.0871,-0.67295,48.2011111111111,5.68855555555556,37.36,171.452,0.08365,-0.75095,0.746266666666667,-1.12575,-1.0475,-0.44,3.5512,0.379516666666667,-0.1426,0.94625,0.209142857142857,0.461857142857143,-0.156857142857143,809.713,0,1,1,1
24-May-2018 12:59:40,939.333333333333,0.4887125,0.5007125,-0.68035,3.1325,1.189125,1.059625,103.301666666667,-0.795225,-0.0871,-0.67295,48.2011111111111,5.68855555555556,37.36,171.452,0.08365,-0.75095,0.746266666666667,-1.12575,-1.0475,-0.44,3.5512,0.379516666666667,-0.1426,0.94625,0.209142857142857,0.461857142857143,-0.156857142857143,809.713,0,1,1,1
24-May-2018 12:59:40,939.333333333333,0.4887125,0.5007125,-0.68035,3.1325,1.189125,1.059625,103.301666666667,-0.795225,-0.0871,-0.67295,48.2011111111111,5.68855555555556,37.36,171.452,0.08365,-0.75095,0.746266666666667,-1.12575,-1.0475,-0.44,3.5512,0.379516666666667,-0.1426,0.94625,0.209142857142857,0.461857142857143,-0.156857142857143,809.713,0,1,1,1
24-May-2018 12:59:40,939.333333333333,0.4887125,0.5007125,-0.68035,3.1325,1.189125,1.059625,103.301666666667,-0.795225,-0.0871,-0.67295,48.2011111111111,5.68855555555556,37.36,171.452,0.08365,-0.75095,0.746266666666667,-1.12575,-1.0475,-0.44,3.5512,0.379516666666667,-0.1426,0.94625,0.209142857142857,0.461857142857143,-0.156857142857143,809.713,0,1,1,1
24-May-2018 12:59:41,1604,0.507925,0.4561375,-0.6937,3.102125,0.815625,0.83875,103.301666666667,-0.829233333333333,-0.0650666666666667,-0.658833333333333,55.565,0.336166666666667,36.7533333333333,161.843666666667,0.0798571428571428,-0.742742857142857,0.757642857142857,0.13875,-1.2925,0.549,3.58633333333333,0.379016666666667,-0.140316666666667,0.948433333333333,0.79275,0.488,-0.183,809.342,1,1,1,1
24-May-2018 12:59:41,1604,0.507925,0.4561375,-0.6937,3.102125,0.815625,0.83875,103.301666666667,-0.829233333333333,-0.0650666666666667,-0.658833333333333,55.565,0.336166666666667,36.7533333333333,161.843666666667,0.0798571428571428,-0.742742857142857,0.757642857142857,0.13875,-1.2925,0.549,3.58633333333333,0.379016666666667,-0.140316666666667,0.948433333333333,0.79275,0.488,-0.183,809.342,1,1,1,1
24-May-2018 12:59:41,1604,0.507925,0.4561375,-0.6937,3.102125,0.815625,0.83875,103.301666666667,-0.829233333333333,-0.0650666666666667,-0.658833333333333,55.565,0.336166666666667,36.7533333333333,161.843666666667,0.0798571428571428,-0.742742857142857,0.757642857142857,0.13875,-1.2925,0.549,3.58633333333333,0.379016666666667,-0.140316666666667,0.948433333333333,0.79275,0.488,-0.183,809.342,1,1,1,1
24-May-2018 12:59:41,1604,0.507925,0.4561375,-0.6937,3.102125,0.815625,0.83875,0,-0.829233333333333,-0.0650666666666667,-0.658833333333333,55.565,0.336166666666667,36.7533333333333,161.843666666667,0.0798571428571428,-0.742742857142857,0.757642857142857,0.13875,-1.2925,0.549,3.58633333333333,0.379016666666667,-0.140316666666667,0.948433333333333,0.79275,0.488,-0.183,809.342,1,1,1,1
24-May-2018 12:59:42,1906.88888888889,0.51992,0.4303,-0.70106,1.2438,0.513,0.4514,103.419,-0.8204,-0.0752,-0.65186,48.9825,-0.310625,37.1075,142.627,0.0762666666666667,-0.736566666666667,0.764166666666667,-0.485,-0.941666666666667,-0.17,3.5028,0.37864,-0.13992,0.94756,-0.5335,0.122,-0.25925,810.403666666667,1,1,1,1
24-May-2018 12:59:42,1906.88888888889,0.51992,0.4303,-0.70106,1.2438,0.513,0.4514,103.419,-0.8204,-0.0752,-0.65186,48.9825,-0.310625,37.1075,142.627,0.0762666666666667,-0.736566666666667,0.764166666666667,-0.485,-0.941666666666667,-0.17,3.5028,0.37864,-0.13992,0.94756,-0.5335,0.122,-0.25925,810.403666666667,1,1,1,1
24-May-2018 12:59:42,1906.88888888889,0.51992,0.4303,-0.70106,1.2438,0.513,0.4514,103.419,-0.8204,-0.0752,-0.65186,48.9825,-0.310625,37.1075,142.627,0.0762666666666667,-0.736566666666667,0.764166666666667,-0.485,-0.941666666666667,-0.17,3.5028,0.37864,-0.13992,0.94756,-0.5335,0.122,-0.25925,810.403666666667,1,1,1,1
24-May-2018 12:59:42,1906.88888888889,0.51992,0.4303,-0.70106,1.2438,0.513,0.4514,103.419,-0.8204,-0.0752,-0.65186,48.9825,-0.310625,37.1075,142.627,0.0762666666666667,-0.736566666666667,0.764166666666667,-0.485,-0.941666666666667,-0.17,3.5028,0.37864,-0.13992,0.94756,-0.5335,0.122,-0.25925,810.403666666667,1,1,1,1
24-May-2018 12:59:43,1766.77777777778,0.51894,0.42788,-0.70228,-0.754714285714286,-0.361571428571429,0.15,103.171,-0.8051,-0.0597666666666667,-0.665166666666667,48.51,6.23983333333333,31.255,142.627,0.0738833333333333,-0.736266666666667,0.76375,-1.58,-0.94,-0.455,3.4985,0.378125,-0.1575,0.933775,4.634,1.321,0.0813333333333333,808.0762,1,1,1,1
24-May-2018 12:59:43,1766.77777777778,0.51894,0.42788,-0.70228,-0.754714285714286,-0.361571428571429,0.15,103.171,-0.8051,-0.0597666666666667,-0.665166666666667,48.51,6.23983333333333,31.255,142.627,0.0738833333333333,-0.736266666666667,0.76375,-1.58,-0.94,-0.455,3.4985,0.378125,-0.1575,0.933775,4.634,1.321,0.0813333333333333,808.0762,1,1,1,1
24-May-2018 12:59:43,1766.77777777778,0.51894,0.42788,-0.70228,-0.754714285714286,-0.361571428571429,0.15,103.171,-0.8051,-0.0597666666666667,-0.665166666666667,48.51,6.23983333333333,31.255,142.627,0.0738833333333333,-0.736266666666667,0.76375,-1.58,-0.94,-0.455,3.4985,0.378125,-0.1575,0.933775,4.634,1.321,0.0813333333333333,808.0762,1,1,1,1
24-May-2018 12:59:43,1766.77777777778,0.51894,0.42788,-0.70228,-0.754714285714286,-0.361571428571429,0.15,103.171,-0.8051,-0.0597666666666667,-0.665166666666667,48.51,6.23983333333333,31.255,142.627,0.0738833333333333,-0.736266666666667,0.76375,-1.58,-0.94,-0.455,3.4985,0.378125,-0.1575,0.933775,4.634,1.321,0.0813333333333333,808.0762,1,1,1,1
24-May-2018 12:59:44,1549.88888888889,0.511533333333333,0.4525,-0.692566666666667,-0.717666666666667,0.103333333333333,0.112666666666667,101.8085,-0.797675,-0.071075,-0.6675,38.5377777777778,11.853,14.4072222222222,142.627,0.080025,-0.745475,0.750675,-2.61828571428571,-0.658,-1.44214285714286,3.454,0.3714,-0.14628,0.94906,0.183,0.447333333333333,0.0101666666666667,811.342,1,1,1,1
24-May-2018 12:59:44,1549.88888888889,0.511533333333333,0.4525,-0.692566666666667,-0.717666666666667,0.103333333333333,0.112666666666667,101.8085,-0.797675,-0.071075,-0.6675,38.5377777777778,11.853,14.4072222222222,142.627,0.080025,-0.745475,0.750675,-2.61828571428571,-0.658,-1.44214285714286,3.454,0.3714,-0.14628,0.94906,0.183,0.447333333333333,0.0101666666666667,811.342,1,1,1,1
24-May-2018 12:59:44,1549.88888888889,0.511533333333333,0.4525,-0.692566666666667,-0.717666666666667,0.103333333333333,0.112666666666667,101.8085,-0.797675,-0.071075,-0.6675,38.5377777777778,11.853,14.4072222222222,142.627,0.080025,-0.745475,0.750675,-2.61828571428571,-0.658,-1.44214285714286,3.454,0.3714,-0.14628,0.94906,0.183,0.447333333333333,0.0101666666666667,811.342,1,1,1,1
24-May-2018 12:59:44,1549.88888888889,0.511533333333333,0.4525,-0.692566666666667,-0.717666666666667,0.103333333333333,0.112666666666667,101.8085,-0.797675,-0.071075,-0.6675,38.5377777777778,11.853,14.4072222222222,142.627,0.080025,-0.745475,0.750675,-2.61828571428571,-0.658,-1.44214285714286,3.454,0.3714,-0.14628,0.94906,0.183,0.447333333333333,0.0101666666666667,811.342,1,1,1,1
24-May-2018 12:59:45,771.888888888889,0.5181,0.444433333333333,-0.6966,3.39433333333333,1.057,0.630333333333333,100.864,-0.817825,-0.101675,-0.6812,28.6811111111111,18.7766666666667,0.375111111111111,132.62125,0.081975,-0.7485,0.750625,1.11,-1.434,0.5978,3.468,0.3689,-0.146775,0.9527,0.67075,0.41175,-0.2135,811.72475,1,1,1,1
24-May-2018 12:59:45,771.888888888889,0.5181,0.444433333333333,-0.6966,3.39433333333333,1.057,0.630333333333333,100.864,-0.817825,-0.101675,-0.6812,28.6811111111111,18.7766666666667,0.375111111111111,132.62125,0.081975,-0.7485,0.750625,1.11,-1.434,0.5978,3.468,0.3689,-0.146775,0.9527,0.67075,0.41175,-0.2135,811.72475,1,1,1,1
24-May-2018 12:59:45,771.888888888889,0.5181,0.444433333333333,-0.6966,3.39433333333333,1.057,0.630333333333333,100.864,-0.817825,-0.101675,-0.6812,28.6811111111111,18.7766666666667,0.375111111111111,132.62125,0.081975,-0.7485,0.750625,1.11,-1.434,0.5978,3.468,0.3689,-0.146775,0.9527,0.67075,0.41175,-0.2135,811.72475,1,1,1,1
24-May-2018 12:59:45,771.888888888889,0.5181,0.444433333333333,-0.6966,3.39433333333333,1.057,0.630333333333333,100.864,-0.817825,-0.101675,-0.6812,28.6811111111111,18.7766666666667,0.375111111111111,132.62125,0.081975,-0.7485,0.750625,1.11,-1.434,0.5978,3.468,0.3689,-0.146775,0.9527,0.67075,0.41175,-0.2135,811.72475,1,1,1,1
24-May-2018 12:59:46,292.5,0.5194,0.430083333333333,-0.70135,1.22842857142857,0.444428571428571,0.479285714285714,103.600666666667,-0.8293,-0.138866666666667,-0.665466666666667,28.7966666666667,20.3316666666667,10.3431666666667,129.286,0.0745333333333333,-0.740316666666667,0.761666666666667,-0.606,-0.922,-0.267,3.4802,0.3711,-0.14475,0.9491,0.01525,0.56425,-0.1525,813.437,0,1,1,1
24-May-2018 12:59:46,292.5,0.5194,0.430083333333333,-0.70135,1.22842857142857,0.444428571428571,0.479285714285714,103.600666666667,-0.8293,-0.138866666666667,-0.665466666666667,28.7966666666667,20.3316666666667,10.3431666666667,129.286,0.0745333333333333,-0.740316666666667,0.761666666666667,-0.606,-0.922,-0.267,3.4802,0.3711,-0.14475,0.9491,0.01525,0.56425,-0.1525,813.437,0,1,1,1
24-May-2018 12:59:46,292.5,0.5194,0.430083333333333,-0.70135,1.22842857142857,0.444428571428571,0.479285714285714,103.600666666667,-0.8293,-0.138866666666667,-0.665466666666667,28.7966666666667,20.3316666666667,10.3431666666667,129.286,0.0745333333333333,-0.740316666666667,0.761666666666667,-0.606,-0.922,-0.267,3.4802,0.3711,-0.14475,0.9491,0.01525,0.56425,-0.1525,813.437,0,1,1,1
24-May-2018 12:59:46,292.5,0.5194,0.430083333333333,-0.70135,1.22842857142857,0.444428571428571,0.479285714285714,103.600666666667,-0.8293,-0.138866666666667,-0.665466666666667,28.7966666666667,20.3316666666667,10.3431666666667,129.286,0.0745333333333333,-0.740316666666667,0.761666666666667,-0.606,-0.922,-0.267,3.4802,0.3711,-0.14475,0.9491,0.01525,0.56425,-0.1525,813.437,0,1,1,1
24-May-2018 12:59:47,-54.6666666666667,0.522285714285714,0.425385714285714,-0.703657142857143,0.5805,0.132833333333333,0.3965,103.43025,-0.74844,-0.23226,-0.60068,14.1568888888889,10.3564444444444,7.26133333333333,129.286,0.086425,-0.755725,0.7403,-2.922,-0.994,-1.678,3.46,0.36145,-0.14465,0.9429,1.33133333333333,0.681,-0.2135,812.8786,0,1,1,1
24-May-2018 12:59:47,-54.6666666666667,0.522285714285714,0.425385714285714,-0.703657142857143,0.5805,0.132833333333333,0.3965,103.43025,-0.74844,-0.23226,-0.60068,14.1568888888889,10.3564444444444,7.26133333333333,129.286,0.086425,-0.755725,0.7403,-2.922,-0.994,-1.678,3.46,0.36145,-0.14465,0.9429,1.33133333333333,0.681,-0.2135,812.8786,0,1,1,1
24-May-2018 12:59:47,-54.6666666666667,0.522285714285714,0.425385714285714,-0.703657142857143,0.5805,0.132833333333333,0.3965,103.43025,-0.74844,-0.23226,-0.60068,14.1568888888889,10.3564444444444,7.26133333333333,129.286,0.086425,-0.755725,0.7403,-2.922,-0.994,-1.678,3.46,0.36145,-0.14465,0.9429,1.33133333333333,0.681,-0.2135,812.8786,0,1,1,1
24-May-2018 12:59:47,-54.6666666666667,0.522285714285714,0.425385714285714,-0.703657142857143,0.5805,0.132833333333333,0.3965,103.43025,-0.74844,-0.23226,-0.60068,14.1568888888889,10.3564444444444,7.26133333333333,129.286,0.086425,-0.755725,0.7403,-2.922,-0.994,-1.678,3.46,0.36145,-0.14465,0.9429,1.33133333333333,0.681,-0.2135,812.8786,0,1,1,1
24-May-2018 12:59:48,266.1,0.5182,0.4333,-0.700733333333333,-1.261875,-0.49275,0.062125,102.97,-0.754375,-0.247775,-0.665225,-3.37088888888889,-8.63844444444445,-6.121,130.815333333333,0.08346,-0.7518,0.7466,1.439,-1.47,0.9272,3.4765,0.361828571428571,-0.150057142857143,0.946385714285714,0.54125,1.532,-0.28975,814.8,0,1,1,1
24-May-2018 12:59:48,266.1,0.5182,0.4333,-0.700733333333333,-1.261875,-0.49275,0.062125,102.97,-0.754375,-0.247775,-0.665225,-3.37088888888889,-8.63844444444445,-6.121,130.815333333333,0.08346,-0.7518,0.7466,1.439,-1.47,0.9272,3.4765,0.361828571428571,-0.150057142857143,0.946385714285714,0.54125,1.532,-0.28975,814.8,0,1,1,1
24-May-2018 12:59:48,266.1,0.5182,0.4333,-0.700733333333333,-1.261875,-0.49275,0.062125,102.97,-0.754375,-0.247775,-0.665225,-3.37088888888889,-8.63844444444445,-6.121,130.815333333333,0.08346,-0.7518,0.7466,1.439,-1.47,0.9272,3.4765,0.361828571428571,-0.150057142857143,0.946385714285714,0.54125,1.532,-0.28975,814.8,0,1,1,1
24-May-2018 12:59:48,266.1,0.5182,0.4333,-0.700733333333333,-1.261875,-0.49275,0.062125,102.97,-0.754375,-0.247775,-0.665225,-3.37088888888889,-8.63844444444445,-6.121,130.815333333333,0.08346,-0.7518,0.7466,1.439,-1.47,0.9272,3.4765,0.361828571428571,-0.150057142857143,0.946385714285714,0.54125,1.532,-0.28975,814.8,0,1,1,1
24-May-2018 12:59:49,349.5,0.512766666666667,0.450355555555556,-0.693566666666667,1.311375,0.588625,0.314375,102.97,-0.72278,-0.2112,-0.67104,0.908555555555556,-10.0188888888889,11.7726666666667,133.874,0.07455,-0.7373,0.7602,-0.8392,-0.9098,-0.3386,3.53275,0.36685,-0.14565,0.95195,1.378,2.2318,-0.3416,814.2485,1,1,1,1
24-May-2018 12:59:49,349.5,0.512766666666667,0.450355555555556,-0.693566666666667,1.311375,0.588625,0.314375,102.97,-0.72278,-0.2112,-0.67104,0.908555555555556,-10.0188888888889,11.7726666666667,133.874,0.07455,-0.7373,0.7602,-0.8392,-0.9098,-0.3386,3.53275,0.36685,-0.14565,0.95195,1.378,2.2318,-0.3416,814.2485,1,1,1,1
24-May-2018 12:59:49,349.5,0.512766666666667,0.450355555555556,-0.693566666666667,1.311375,0.588625,0.314375,102.97,-0.72278,-0.2112,-0.67104,0.908555555555556,-10.0188888888889,11.7726666666667,133.874,0.07455,-0.7373,0.7602,-0.8392,-0.9098,-0.3386,3.53275,0.36685,-0.14565,0.95195,1.378,2.2318,-0.3416,814.2485,1,1,1,1
24-May-2018 12:59:49,349.5,0.512766666666667,0.450355555555556,-0.693566666666667,1.311375,0.588625,0.314375,102.97,-0.72278,-0.2112,-0.67104,0.908555555555556,-10.0188888888889,11.7726666666667,133.874,0.07455,-0.7373,0.7602,-0.8392,-0.9098,-0.3386,3.53275,0.36685,-0.14565,0.95195,1.378,2.2318,-0.3416,814.2485,1,1,1,1
24-May-2018 12:59:50,365.6,0.5164,0.4404,-0.6993,4.024,2.195,0.061,102.97,-0.726,-0.2166,-0.6585,0.908555555555556,-10.0188888888889,11.7726666666667,133.874,0.08125,-0.7488,0.75395,-3.72,3.354,-2.92,3.53275,0.38175,-0.132,0.8991,1.378,2.2318,-0.3416,812.606,0,1,1,1
24-May-2018 12:59:50,365.6,0.5164,0.4404,-0.6993,4.024,2.195,0.061,102.97,-0.726,-0.2166,-0.6585,0.908555555555556,-10.0188888888889,11.7726666666667,133.874,0.08125,-0.7488,0.75395,-3.72,3.354,-2.92,3.53275,0.38175,-0.132,0.8991,1.378,2.2318,-0.3416,812.606,0,1,1,1
24-May-2018 12:59:50,365.6,0.5164,0.4404,-0.6993,4.024,2.195,0.061,102.97,-0.726,-0.2166,-0.6585,0.908555555555556,-10.0188888888889,11.7726666666667,133.874,0.08125,-0.7488,0.75395,-3.72,3.354,-2.92,3.53275,0.38175,-0.132,0.8991,1.378,2.2318,-0.3416,812.606,0,1,1,1
24-May-2018 12:59:50,365.6,0.5164,0.4404,-0.6993,4.024,2.195,0.061,102.97,-0.726,-0.2166,-0.6585,0,0,0,133.874,0.08125,-0.7488,0.75395,-3.72,3.354,-2.92,0,0.38175,-0.132,0.8991,0,0,0,812.606,0,1,1,1
24-May-2018 12:59:51,469.9,0.5195,0.432125,-0.699675,1.31542857142857,0.193571428571429,0.618714285714286,102.97,-0.7542,-0.2083,-0.708225,8.38528571428571,-1.041,25.0128571428571,133.874,0.091225,-0.761,0.73025,-1.34883333333333,-0.720166666666667,-0.8405,3.42725,0.368166666666667,-0.152816666666667,0.95095,0.3505,0.312625,-0.061,811.154,0,1,1,1
24-May-2018 12:59:51,469.9,0.5195,0.432125,-0.699675,1.31542857142857,0.193571428571429,0.618714285714286,102.97,-0.7542,-0.2083,-0.708225,8.38528571428571,-1.041,25.0128571428571,133.874,0.091225,-0.761,0.73025,-1.34883333333333,-0.720166666666667,-0.8405,3.42725,0.368166666666667,-0.152816666666667,0.95095,0.3505,0.312625,-0.061,811.154,0,1,1,1
24-May-2018 12:59:51,469.9,0.5195,0.432125,-0.699675,1.31542857142857,0.193571428571429,0.618714285714286,102.97,-0.7542,-0.2083,-0.708225,8.38528571428571,-1.041,25.0128571428571,133.874,0.091225,-0.761,0.73025,-1.34883333333333,-0.720166666666667,-0.8405,3.42725,0.368166666666667,-0.152816666666667,0.95095,0.3505,0.312625,-0.061,811.154,0,1,1,1
24-May-2018 12:59:51,469.9,0.5195,0.432125,-0.699675,1.31542857142857,0.193571428571429,0.618714285714286,102.97,-0.7542,-0.2083,-0.708225,8.38528571428571,-1.041,25.0128571428571,133.874,0.091225,-0.761,0.73025,-1.34883333333333,-0.720166666666667,-0.8405,3.42725,0.368166666666667,-0.152816666666667,0.95095,0.3505,0.312625,-0.061,811.154,0,1,1,1
24-May-2018 12:59:52,755.5,0.517677777777778,0.436755555555556,-0.699322222222222,-1.103,-0.503,-0.118,102.97,-0.837983333333333,-0.00151666666666667,-0.614283333333333,11.09275,-0.77175,15.36875,122.093,0.0837,-0.74976,0.7491,1.4636,-1.216,0.9512,3.53983333333333,0.3701,-0.1535,0.949885714285714,0.6586,1.1952,0.1952,810.373,0,1,1,1
24-May-2018 12:59:52,755.5,0.517677777777778,0.436755555555556,-0.699322222222222,-1.103,-0.503,-0.118,102.97,-0.837983333333333,-0.00151666666666667,-0.614283333333333,11.09275,-0.77175,15.36875,122.093,0.0837,-0.74976,0.7491,1.4636,-1.216,0.9512,3.53983333333333,0.3701,-0.1535,0.949885714285714,0.6586,1.1952,0.1952,810.373,0,1,1,1
24-May-2018 12:59:52,755.5,0.517677777777778,0.436755555555556,-0.699322222222222,-1.103,-0.503,-0.118,102.97,-0.837983333333333,-0.00151666666666667,-0.614283333333333,11.09275,-0.77175,15.36875,122.093,0.0837,-0.74976,0.7491,1.4636,-1.216,0.9512,3.53983333333333,0.3701,-0.1535,0.949885714285714,0.6586,1.1952,0.1952,810.373,0,1,1,1
24-May-2018 12:59:52,755.5,0.517677777777778,0.436755555555556,-0.699322222222222,-1.103,-0.503,-0.118,102.97,-0.837983333333333,-0.00151666666666667,-0.614283333333333,11.09275,-0.77175,15.36875,122.093,0.0837,-0.74976,0.7491,1.4636,-1.216,0.9512,3.53983333333333,0.3701,-0.1535,0.949885714285714,0.6586,1.1952,0.1952,810.373,0,1,1,1
24-May-2018 12:59:53,845.222222222222,0.506471428571429,0.464157142857143,-0.688357142857143,0.602166666666667,-0.0383333333333333,0.1945,102.97,-0.7872,-0.08,-0.629575,41.2675,-0.812124999999999,-1.665125,124.171,0.0790714285714286,-0.745457142857143,0.754357142857143,-1.5716,-1.106,-0.694,3.4775,0.366583333333333,-0.156,0.94985,0.732,0.366,-0.0244,812.03,1,1,1,1
24-May-2018 12:59:53,845.222222222222,0.506471428571429,0.464157142857143,-0.688357142857143,0.602166666666667,-0.0383333333333333,0.1945,102.97,-0.7872,-0.08,-0.629575,41.2675,-0.812124999999999,-1.665125,124.171,0.0790714285714286,-0.745457142857143,0.754357142857143,-1.5716,-1.106,-0.694,3.4775,0.366583333333333,-0.156,0.94985,0.732,0.366,-0.0244,812.03,1,1,1,1
24-May-2018 12:59:53,845.222222222222,0.506471428571429,0.464157142857143,-0.688357142857143,0.602166666666667,-0.0383333333333333,0.1945,0,-0.7872,-0.08,-0.629575,41.2675,-0.812124999999999,-1.665125,124.171,0.0790714285714286,-0.745457142857143,0.754357142857143,-1.5716,-1.106,-0.694,3.4775,0.366583333333333,-0.156,0.94985,0.732,0.366,-0.0244,812.03,1,1,1,1
24-May-2018 12:59:53,845.222222222222,0.506471428571429,0.464157142857143,-0.688357142857143,0.602166666666667,-0.0383333333333333,0.1945,0,-0.7872,-0.08,-0.629575,41.2675,-0.812124999999999,-1.665125,124.171,0.0790714285714286,-0.745457142857143,0.754357142857143,-1.5716,-1.106,-0.694,3.4775,0.366583333333333,-0.156,0.94985,0.732,0.366,-0.0244,812.03,1,1,1,1
24-May-2018 12:59:54,672.818181818182,0.5161,0.442816666666667,-0.696416666666667,2.5974,0.366,0.732,101.642333333333,-0.798666666666667,-0.114433333333333,-0.698566666666667,1.372125,4.696375,-20.39125,128.327,0.0901666666666667,-0.753766666666667,0.741233333333333,1.238,-0.745285714285714,0.480142857142857,3.4684,0.36645,-0.1538,0.948725,1.75971428571429,0.235285714285714,-0.139428571428571,810.759333333333,1,1,1,1
24-May-2018 12:59:54,672.818181818182,0.5161,0.442816666666667,-0.696416666666667,2.5974,0.366,0.732,101.642333333333,-0.798666666666667,-0.114433333333333,-0.698566666666667,1.372125,4.696375,-20.39125,128.327,0.0901666666666667,-0.753766666666667,0.741233333333333,1.238,-0.745285714285714,0.480142857142857,3.4684,0.36645,-0.1538,0.948725,1.75971428571429,0.235285714285714,-0.139428571428571,810.759333333333,1,1,1,1
24-May-2018 12:59:54,672.818181818182,0.5161,0.442816666666667,-0.696416666666667,2.5974,0.366,0.732,101.642333333333,-0.798666666666667,-0.114433333333333,-0.698566666666667,1.372125,4.696375,-20.39125,128.327,0.0901666666666667,-0.753766666666667,0.741233333333333,1.238,-0.745285714285714,0.480142857142857,3.4684,0.36645,-0.1538,0.948725,1.75971428571429,0.235285714285714,-0.139428571428571,810.759333333333,1,1,1,1
24-May-2018 12:59:54,672.818181818182,0.5161,0.442816666666667,-0.696416666666667,2.5974,0.366,0.732,101.642333333333,-0.798666666666667,-0.114433333333333,-0.698566666666667,1.372125,4.696375,-20.39125,128.327,0.0901666666666667,-0.753766666666667,0.741233333333333,1.238,-0.745285714285714,0.480142857142857,3.4684,0.36645,-0.1538,0.948725,1.75971428571429,0.235285714285714,-0.139428571428571,810.759333333333,1,1,1,1
24-May-2018 12:59:55,176.444444444444,0.518657142857143,0.442971428571429,-0.699357142857143,-1.5828,-0.8392,-0.1824,103.209,-0.80344,-0.22808,-0.61482,-0.616875,20.576625,-21.65,116.0015,0.078,-0.7405,0.75888,0.4044,-1.018,0.2336,3.543,0.3653,-0.156466666666667,0.946433333333333,0.869,0.53375,-0.0305,811.1215,1,1,1,1
24-May-2018 12:59:55,176.444444444444,0.518657142857143,0.442971428571429,-0.699357142857143,-1.5828,-0.8392,-0.1824,103.209,-0.80344,-0.22808,-0.61482,-0.616875,20.576625,-21.65,116.0015,0.078,-0.7405,0.75888,0.4044,-1.018,0.2336,3.543,0.3653,-0.156466666666667,0.946433333333333,0.869,0.53375,-0.0305,811.1215,1,1,1,1
24-May-2018 12:59:55,176.444444444444,0.518657142857143,0.442971428571429,-0.699357142857143,-1.5828,-0.8392,-0.1824,103.209,-0.80344,-0.22808,-0.61482,-0.616875,20.576625,-21.65,116.0015,0.078,-0.7405,0.75888,0.4044,-1.018,0.2336,3.543,0.3653,-0.156466666666667,0.946433333333333,0.869,0.53375,-0.0305,811.1215,1,1,1,1
24-May-2018 12:59:55,176.444444444444,0.518657142857143,0.442971428571429,-0.699357142857143,-1.5828,-0.8392,-0.1824,103.209,-0.80344,-0.22808,-0.61482,-0.616875,20.576625,-21.65,116.0015,0.078,-0.7405,0.75888,0.4044,-1.018,0.2336,3.543,0.3653,-0.156466666666667,0.946433333333333,0.869,0.53375,-0.0305,811.1215,1,1,1,1
24-May-2018 12:59:56,-5,0.504042857142857,0.469842857142857,-0.6875,1.060375,0.434625,0.4135,99.347,-0.83875,-0.2898,-0.6007,-6.4544,-2.6462,-18.167,111.893,0.07462,-0.7362,0.76596,-0.525,-0.688833333333333,-0.311666666666667,3.53216666666667,0.36394,-0.15836,0.94882,0.479285714285714,0.540142857142857,-0.191714285714286,811.6475,1,1,1,1
24-May-2018 12:59:56,-5,0.504042857142857,0.469842857142857,-0.6875,1.060375,0.434625,0.4135,99.347,-0.83875,-0.2898,-0.6007,-6.4544,-2.6462,-18.167,111.893,0.07462,-0.7362,0.76596,-0.525,-0.688833333333333,-0.311666666666667,3.53216666666667,0.36394,-0.15836,0.94882,0.479285714285714,0.540142857142857,-0.191714285714286,811.6475,1,1,1,1
24-May-2018 12:59:56,-5,0.504042857142857,0.469842857142857,-0.6875,1.060375,0.434625,0.4135,99.347,-0.83875,-0.2898,-0.6007,-6.4544,-2.6462,-18.167,111.893,0.07462,-0.7362,0.76596,-0.525,-0.688833333333333,-0.311666666666667,3.53216666666667,0.36394,-0.15836,0.94882,0.479285714285714,0.540142857142857,-0.191714285714286,811.6475,1,1,1,1
24-May-2018 12:59:56,-5,0.504042857142857,0.469842857142857,-0.6875,1.060375,0.434625,0.4135,99.347,-0.83875,-0.2898,-0.6007,-6.4544,-2.6462,-18.167,111.893,0.07462,-0.7362,0.76596,-0.525,-0.688833333333333,-0.311666666666667,3.53216666666667,0.36394,-0.15836,0.94882,0.479285714285714,0.540142857142857,-0.191714285714286,811.6475,1,1,1,1
24-May-2018 12:59:57,291.8,0.5159,0.439328571428571,-0.698628571428571,2.84566666666667,0.610833333333333,0.864166666666667,102.239,-0.70122,-0.2681,-0.63758,25.407375,12.0025,2.653125,111.893,0.07562,-0.74406,0.7576,-2.946125,-0.316875,-1.67875,3.414,0.363057142857143,-0.1591,0.9495,0.2745,0.488,-0.0915,810.837,1,1,1,1
24-May-2018 12:59:57,291.8,0.5159,0.439328571428571,-0.698628571428571,2.84566666666667,0.610833333333333,0.864166666666667,102.239,-0.70122,-0.2681,-0.63758,25.407375,12.0025,2.653125,111.893,0.07562,-0.74406,0.7576,-2.946125,-0.316875,-1.67875,3.414,0.363057142857143,-0.1591,0.9495,0.2745,0.488,-0.0915,810.837,1,1,1,1
24-May-2018 12:59:57,291.8,0.5159,0.439328571428571,-0.698628571428571,2.84566666666667,0.610833333333333,0.864166666666667,102.239,-0.70122,-0.2681,-0.63758,25.407375,12.0025,2.653125,111.893,0.07562,-0.74406,0.7576,-2.946125,-0.316875,-1.67875,3.414,0.363057142857143,-0.1591,0.9495,0.2745,0.488,-0.0915,810.837,1,1,1,1
24-May-2018 12:59:57,291.8,0.5159,0.439328571428571,-0.698628571428571,2.84566666666667,0.610833333333333,0.864166666666667,102.239,-0.70122,-0.2681,-0.63758,25.407375,12.0025,2.653125,111.893,0.07562,-0.74406,0.7576,-2.946125,-0.316875,-1.67875,3.414,0.363057142857143,-0.1591,0.9495,0.2745,0.488,-0.0915,810.837,1,1,1,1
24-May-2018 12:59:58,473.6,0.518333333333333,0.4357,-0.701533333333333,-0.79,-0.465428571428571,0.0885714285714285,103.759,-0.6528,-0.34785,-0.65825,42.819,-2.6628,47.3804,113.183,0.08638,-0.75592,0.7422,1.46325,-0.48375,0.7015,3.365,0.357083333333333,-0.147616666666667,0.948116666666667,4.7316,0.8416,0.2316,810.988,0,1,1,1
24-May-2018 12:59:58,473.6,0.518333333333333,0.4357,-0.701533333333333,-0.79,-0.465428571428571,0.0885714285714285,103.759,-0.6528,-0.34785,-0.65825,42.819,-2.6628,47.3804,113.183,0.08638,-0.75592,0.7422,1.46325,-0.48375,0.7015,3.365,0.357083333333333,-0.147616666666667,0.948116666666667,4.7316,0.8416,0.2316,810.988,0,1,1,1
24-May-2018 12:59:58,473.6,0.518333333333333,0.4357,-0.701533333333333,-0.79,-0.465428571428571,0.0885714285714285,103.759,-0.6528,-0.34785,-0.65825,42.819,-2.6628,47.3804,113.183,0.08638,-0.75592,0.7422,1.46325,-0.48375,0.7015,3.365,0.357083333333333,-0.147616666666667,0.948116666666667,4.7316,0.8416,0.2316,810.988,0,1,1,1
24-May-2018 12:59:58,473.6,0.518333333333333,0.4357,-0.701533333333333,-0.79,-0.465428571428571,0.0885714285714285,103.759,-0.6528,-0.34785,-0.65825,42.819,-2.6628,47.3804,113.183,0.08638,-0.75592,0.7422,1.46325,-0.48375,0.7015,3.365,0.357083333333333,-0.147616666666667,0.948116666666667,4.7316,0.8416,0.2316,810.988,0,1,1,1
24-May-2018 12:59:59,488.222222222222,0.5067,0.461857142857143,-0.691214285714286,0.837714285714286,0.236857142857143,0.331285714285714,99.6463333333333,-0.7817,-0.2481,-0.67052,31.6942857142857,-21.2257142857143,74.0528571428571,113.183,0.074275,-0.739775,0.760475,0.3564,-0.6912,0.1722,3.525,0.360525,-0.1392,0.9431,-0.148,0.975714285714286,-0.130714285714286,815.288,0,1,1,1
24-May-2018 12:59:59,488.222222222222,0.5067,0.461857142857143,-0.691214285714286,0.837714285714286,0.236857142857143,0.331285714285714,99.6463333333333,-0.7817,-0.2481,-0.67052,31.6942857142857,-21.2257142857143,74.0528571428571,113.183,0.074275,-0.739775,0.760475,0.3564,-0.6912,0.1722,3.525,0.360525,-0.1392,0.9431,-0.148,0.975714285714286,-0.130714285714286,815.288,0,1,1,1
24-May-2018 12:59:59,488.222222222222,0.5067,0.461857142857143,-0.691214285714286,0.837714285714286,0.236857142857143,0.331285714285714,99.6463333333333,-0.7817,-0.2481,-0.67052,31.6942857142857,-21.2257142857143,74.0528571428571,113.183,0.074275,-0.739775,0.760475,0.3564,-0.6912,0.1722,3.525,0.360525,-0.1392,0.9431,-0.148,0.975714285714286,-0.130714285714286,815.288,0,1,1,1
24-May-2018 12:59:59,488.222222222222,0.5067,0.461857142857143,-0.691214285714286,0.837714285714286,0.236857142857143,0.331285714285714,99.6463333333333,-0.7817,-0.2481,-0.67052,31.6942857142857,-21.2257142857143,74.0528571428571,113.183,0.074275,-0.739775,0.760475,0.3564,-0.6912,0.1722,3.525,0.360525,-0.1392,0.9431,-0.148,0.975714285714286,-0.130714285714286,815.288,0,1,1,1
24-May-2018 13:00:00,356.888888888889,0.518222222222222,0.437011111111111,-0.699166666666667,1.745375,0.18375,0.617625,99.6463333333333,-0.9209,-0.157675,-0.6998,10.2199,14.4852,40.117,113.183,0.0798285714285714,-0.747928571428571,0.751185714285714,-2.02833333333333,-0.575166666666666,-1.20666666666667,3.401,0.35998,-0.1548,0.9514,-0.2745,0.264333333333333,0.122,812.52075,0,1,1,1
24-May-2018 13:00:00,356.888888888889,0.518222222222222,0.437011111111111,-0.699166666666667,1.745375,0.18375,0.617625,99.6463333333333,-0.9209,-0.157675,-0.6998,10.2199,14.4852,40.117,113.183,0.0798285714285714,-0.747928571428571,0.751185714285714,-2.02833333333333,-0.575166666666666,-1.20666666666667,3.401,0.35998,-0.1548,0.9514,-0.2745,0.264333333333333,0.122,812.52075,0,1,1,1
24-May-2018 13:00:00,356.888888888889,0.518222222222222,0.437011111111111,-0.699166666666667,1.745375,0.18375,0.617625,99.6463333333333,-0.9209,-0.157675,-0.6998,10.2199,14.4852,40.117,113.183,0.0798285714285714,-0.747928571428571,0.751185714285714,-2.02833333333333,-0.575166666666666,-1.20666666666667,3.401,0.35998,-0.1548,0.9514,-0.2745,0.264333333333333,0.122,812.52075,0,1,1,1
24-May-2018 13:00:00,356.888888888889,0.518222222222222,0.437011111111111,-0.699166666666667,1.745375,0.18375,0.617625,99.6463333333333,-0.9209,-0.157675,-0.6998,10.2199,14.4852,40.117,113.183,0.0798285714285714,-0.747928571428571,0.751185714285714,-2.02833333333333,-0.575166666666666,-1.20666666666667,3.401,0.35998,-0.1548,0.9514,-0.2745,0.264333333333333,0.122,812.52075,0,1,1,1
24-May-2018 13:00:01,315.6,0.521925,0.4262375,-0.7015875,1.07171428571429,-0.0942857142857143,0.549,99.6463333333333,-0.828575,-0.020575,-0.5009,-15.10875,13.6625,16.643625,92.874,0.0822,-0.749633333333333,0.749766666666667,1.301,-0.9205,0.630333333333333,3.49,0.35966,-0.15786,0.95196,0.732,0.5246,-0.183,812.765666666667,0,1,1,1
24-May-2018 13:00:01,315.6,0.521925,0.4262375,-0.7015875,1.07171428571429,-0.0942857142857143,0.549,99.6463333333333,-0.828575,-0.020575,-0.5009,-15.10875,13.6625,16.643625,92.874,0.0822,-0.749633333333333,0.749766666666667,1.301,-0.9205,0.630333333333333,3.49,0.35966,-0.15786,0.95196,0.732,0.5246,-0.183,812.765666666667,0,1,1,1
24-May-2018 13:00:01,315.6,0.521925,0.4262375,-0.7015875,1.07171428571429,-0.0942857142857143,0.549,99.6463333333333,-0.828575,-0.020575,-0.5009,-15.10875,13.6625,16.643625,92.874,0.0822,-0.749633333333333,0.749766666666667,1.301,-0.9205,0.630333333333333,3.49,0.35966,-0.15786,0.95196,0.732,0.5246,-0.183,812.765666666667,0,1,1,1
24-May-2018 13:00:01,315.6,0.521925,0.4262375,-0.7015875,1.07171428571429,-0.0942857142857143,0.549,99.6463333333333,-0.828575,-0.020575,-0.5009,-15.10875,13.6625,16.643625,92.874,0.0822,-0.749633333333333,0.749766666666667,1.301,-0.9205,0.630333333333333,3.49,0.35966,-0.15786,0.95196,0.732,0.5246,-0.183,812.765666666667,0,1,1,1
24-May-2018 13:00:02,295.222222222222,0.5178875,0.43525,-0.7015875,-2.04775,-0.781875,-0.234,99.6463333333333,-0.909025,0.052125,-0.531775,20.5046666666667,-14.1083333333333,16.0943333333333,92.874,0.07392,-0.73932,0.76096,0.0142,-0.582,0.063,3.466,0.349633333333333,-0.154433333333333,0.961133333333333,2.835375,1.273,-0.10675,812.562333333333,0,1,1,1
24-May-2018 13:00:02,295.222222222222,0.5178875,0.43525,-0.7015875,-2.04775,-0.781875,-0.234,99.6463333333333,-0.909025,0.052125,-0.531775,20.5046666666667,-14.1083333333333,16.0943333333333,92.874,0.07392,-0.73932,0.76096,0.0142,-0.582,0.063,3.466,0.349633333333333,-0.154433333333333,0.961133333333333,2.835375,1.273,-0.10675,812.562333333333,0,1,1,1
24-May-2018 13:00:02,295.222222222222,0.5178875,0.43525,-0.7015875,-2.04775,-0.781875,-0.234,99.6463333333333,-0.909025,0.052125,-0.531775,20.5046666666667,-14.1083333333333,16.0943333333333,92.874,0.07392,-0.73932,0.76096,0.0142,-0.582,0.063,3.466,0.349633333333333,-0.154433333333333,0.961133333333333,2.835375,1.273,-0.10675,812.562333333333,0,1,1,1
24-May-2018 13:00:02,295.222222222222,0.5178875,0.43525,-0.7015875,-2.04775,-0.781875,-0.234,99.6463333333333,-0.909025,0.052125,-0.531775,20.5046666666667,-14.1083333333333,16.0943333333333,92.874,0.07392,-0.73932,0.76096,0.0142,-0.582,0.063,3.466,0.349633333333333,-0.154433333333333,0.961133333333333,2.835375,1.273,-0.10675,812.562333333333,0,1,1,1
24-May-2018 13:00:03,205.333333333333,0.507,0.4622,-0.689025,1.38455555555556,0.299,0.535888888888889,99.6463333333333,-0.8387,-0.000525,-0.525075,9.98088888888889,-16.2944444444444,-0.015111111111111,92.874,0.07936,-0.7514,0.75024,-2.64833333333333,-0.311833333333333,-1.57,3.401,0.35266,-0.15762,0.95444,-0.3538,0.427,-0.0488,814.945,0,1,1,1
24-May-2018 13:00:03,205.333333333333,0.507,0.4622,-0.689025,1.38455555555556,0.299,0.535888888888889,99.6463333333333,-0.8387,-0.000525,-0.525075,9.98088888888889,-16.2944444444444,-0.015111111111111,92.874,0.07936,-0.7514,0.75024,-2.64833333333333,-0.311833333333333,-1.57,3.401,0.35266,-0.15762,0.95444,-0.3538,0.427,-0.0488,814.945,0,1,1,1
24-May-2018 13:00:03,205.333333333333,0.507,0.4622,-0.689025,1.38455555555556,0.299,0.535888888888889,99.6463333333333,-0.8387,-0.000525,-0.525075,9.98088888888889,-16.2944444444444,-0.015111111111111,92.874,0.07936,-0.7514,0.75024,-2.64833333333333,-0.311833333333333,-1.57,3.401,0.35266,-0.15762,0.95444,-0.3538,0.427,-0.0488,814.945,0,1,1,1
24-May-2018 13:00:03,205.333333333333,0.507,0.4622,-0.689025,1.38455555555556,0.299,0.535888888888889,0,-0.8387,-0.000525,-0.525075,9.98088888888889,-16.2944444444444,-0.015111111111111,92.874,0.07936,-0.7514,0.75024,-2.64833333333333,-0.311833333333333,-1.57,3.401,0.35266,-0.15762,0.95444,-0.3538,0.427,-0.0488,814.945,0,1,1,1
24-May-2018 13:00:04,75.7,0.5162,0.437466666666667,-0.698066666666667,2.29666666666667,0.468333333333333,0.792666666666667,102.692,-0.860766666666667,-0.0128,-0.5569,-39.3333333333333,-12.3983333333333,-24.2166666666667,95.146,0.08362,-0.75508,0.7421,1.606,-1.09333333333333,1.07733333333333,3.392,0.35236,-0.1609,0.95412,0.9026,0.878,-0.122,813.759,0,1,1,1
24-May-2018 13:00:04,75.7,0.5162,0.437466666666667,-0.698066666666667,2.29666666666667,0.468333333333333,0.792666666666667,102.692,-0.860766666666667,-0.0128,-0.5569,-39.3333333333333,-12.3983333333333,-24.2166666666667,95.146,0.08362,-0.75508,0.7421,1.606,-1.09333333333333,1.07733333333333,3.392,0.35236,-0.1609,0.95412,0.9026,0.878,-0.122,813.759,0,1,1,1
24-May-2018 13:00:04,75.7,0.5162,0.437466666666667,-0.698066666666667,2.29666666666667,0.468333333333333,0.792666666666667,102.692,-0.860766666666667,-0.0128,-0.5569,-39.3333333333333,-12.3983333333333,-24.2166666666667,95.146,0.08362,-0.75508,0.7421,1.606,-1.09333333333333,1.07733333333333,3.392,0.35236,-0.1609,0.95412,0.9026,0.878,-0.122,813.759,0,1,1,1
24-May-2018 13:00:04,75.7,0.5162,0.437466666666667,-0.698066666666667,2.29666666666667,0.468333333333333,0.792666666666667,102.692,-0.860766666666667,-0.0128,-0.5569,-39.3333333333333,-12.3983333333333,-24.2166666666667,95.146,0.08362,-0.75508,0.7421,1.606,-1.09333333333333,1.07733333333333,3.392,0.35236,-0.1609,0.95412,0.9026,0.878,-0.122,813.759,0,1,1,1
24-May-2018 13:00:05,97.5555555555556,0.51964,0.42876,-0.70412,0.4778,-0.5944,0.6588,103.501,-0.845666666666667,-0.0115666666666667,-0.574566666666667,-63.8714285714286,-1.75685714285714,-47.7428571428571,96.282,0.0746166666666667,-0.737533333333333,0.764016666666667,0.33675,-0.635,0.21375,3.499,0.34966,-0.14408,0.9584,2.4146,-0.0976,-0.5368,819.343,0,1,1,1
24-May-2018 13:00:05,97.5555555555556,0.51964,0.42876,-0.70412,0.4778,-0.5944,0.6588,103.501,-0.845666666666667,-0.0115666666666667,-0.574566666666667,-63.8714285714286,-1.75685714285714,-47.7428571428571,96.282,0.0746166666666667,-0.737533333333333,0.764016666666667,0.33675,-0.635,0.21375,3.499,0.34966,-0.14408,0.9584,2.4146,-0.0976,-0.5368,819.343,0,1,1,1
24-May-2018 13:00:05,97.5555555555556,0.51964,0.42876,-0.70412,0.4778,-0.5944,0.6588,103.501,-0.845666666666667,-0.0115666666666667,-0.574566666666667,-63.8714285714286,-1.75685714285714,-47.7428571428571,96.282,0.0746166666666667,-0.737533333333333,0.764016666666667,0.33675,-0.635,0.21375,3.499,0.34966,-0.14408,0.9584,2.4146,-0.0976,-0.5368,819.343,0,1,1,1
24-May-2018 13:00:05,97.5555555555556,0.51964,0.42876,-0.70412,0.4778,-0.5944,0.6588,103.501,-0.845666666666667,-0.0115666666666667,-0.574566666666667,-63.8714285714286,-1.75685714285714,-47.7428571428571,96.282,0.0746166666666667,-0.737533333333333,0.764016666666667,0.33675,-0.635,0.21375,3.499,0.34966,-0.14408,0.9584,2.4146,-0.0976,-0.5368,819.343,0,1,1,1
24-May-2018 13:00:06,155.625,0.505566666666667,0.449433333333333,-0.696933333333333,-3.06333333333333,-0.993333333333333,-0.706666666666667,103.1435,-0.912866666666667,-0.0516666666666667,-0.6419,-72.25,7.47816666666667,-64.7166666666667,96.282,0.07814,-0.74722,0.7547,-2.788,-0.2778,-1.494,3.397,0.353733333333333,-0.155433333333333,0.953266666666667,0.4575,0.427,-0.2135,815.321,0,1,1,1
24-May-2018 13:00:06,155.625,0.505566666666667,0.449433333333333,-0.696933333333333,-3.06333333333333,-0.993333333333333,-0.706666666666667,103.1435,-0.912866666666667,-0.0516666666666667,-0.6419,-72.25,7.47816666666667,-64.7166666666667,96.282,0.07814,-0.74722,0.7547,-2.788,-0.2778,-1.494,3.397,0.353733333333333,-0.155433333333333,0.953266666666667,0.4575,0.427,-0.2135,815.321,0,1,1,1
24-May-2018 13:00:06,155.625,0.505566666666667,0.449433333333333,-0.696933333333333,-3.06333333333333,-0.993333333333333,-0.706666666666667,103.1435,-0.912866666666667,-0.0516666666666667,-0.6419,-72.25,7.47816666666667,-64.7166666666667,96.282,0.07814,-0.74722,0.7547,-2.788,-0.2778,-1.494,3.397,0.353733333333333,-0.155433333333333,0.953266666666667,0.4575,0.427,-0.2135,815.321,0,1,1,1
24-May-2018 13:00:06,155.625,0.505566666666667,0.449433333333333,-0.696933333333333,-3.06333333333333,-0.993333333333333,-0.706666666666667,103.1435,-0.912866666666667,-0.0516666666666667,-0.6419,-72.25,7.47816666666667,-64.7166666666667,96.282,0.07814,-0.74722,0.7547,-2.788,-0.2778,-1.494,3.397,0.353733333333333,-0.155433333333333,0.953266666666667,0.4575,0.427,-0.2135,815.321,0,1,1,1
24-May-2018 13:00:07,172.666666666667,0.5067,0.4626,-0.685975,0.10875,0.65575,0.443,101.439333333333,-0.770175,-0.269375,-0.5012,-93.3333333333333,0.459333333333333,-75.3333333333333,96.5015,0.0872,-0.760566666666667,0.734866666666667,0.25925,-1.1845,0.108,3.3452,0.3515,-0.1566,0.9552,0.1525,0.549,-0.122,815.554,0,1,1,1
24-May-2018 13:00:07,172.666666666667,0.5067,0.4626,-0.685975,0.10875,0.65575,0.443,101.439333333333,-0.770175,-0.269375,-0.5012,-93.3333333333333,0.459333333333333,-75.3333333333333,96.5015,0.0872,-0.760566666666667,0.734866666666667,0.25925,-1.1845,0.108,3.3452,0.3515,-0.1566,0.9552,0.1525,0.549,-0.122,815.554,0,1,1,1
24-May-2018 13:00:07,172.666666666667,0.5067,0.4626,-0.685975,0.10875,0.65575,0.443,101.439333333333,-0.770175,-0.269375,-0.5012,-93.3333333333333,0.459333333333333,-75.3333333333333,96.5015,0.0872,-0.760566666666667,0.734866666666667,0.25925,-1.1845,0.108,3.3452,0.3515,-0.1566,0.9552,0.1525,0.549,-0.122,815.554,0,1,1,1
24-May-2018 13:00:07,172.666666666667,0.5067,0.4626,-0.685975,0.10875,0.65575,0.443,101.439333333333,-0.770175,-0.269375,-0.5012,-93.3333333333333,0.459333333333333,-75.3333333333333,96.5015,0.0872,-0.760566666666667,0.734866666666667,0.25925,-1.1845,0.108,3.3452,0.3515,-0.1566,0.9552,0.1525,0.549,-0.122,815.554,0,1,1,1
24-May-2018 13:00:08,210.888888888889,0.513925,0.4420875,-0.6976375,2.38833333333333,1.00633333333333,0.670833333333333,102.238333333333,-0.82704,-0.15024,-0.6005,-155.125,-24.775,-93.0375,96.721,0.07705,-0.7439,0.755175,0.681166666666667,-1.37666666666667,0.589666666666667,3.43025,0.356625,-0.16305,0.945725,-0.259125,-0.213375,-0.129625,814.335,0,1,1,1
24-May-2018 13:00:08,210.888888888889,0.513925,0.4420875,-0.6976375,2.38833333333333,1.00633333333333,0.670833333333333,102.238333333333,-0.82704,-0.15024,-0.6005,-155.125,-24.775,-93.0375,96.721,0.07705,-0.7439,0.755175,0.681166666666667,-1.37666666666667,0.589666666666667,3.43025,0.356625,-0.16305,0.945725,-0.259125,-0.213375,-0.129625,814.335,0,1,1,1
24-May-2018 13:00:08,210.888888888889,0.513925,0.4420875,-0.6976375,2.38833333333333,1.00633333333333,0.670833333333333,102.238333333333,-0.82704,-0.15024,-0.6005,-155.125,-24.775,-93.0375,96.721,0.07705,-0.7439,0.755175,0.681166666666667,-1.37666666666667,0.589666666666667,3.43025,0.356625,-0.16305,0.945725,-0.259125,-0.213375,-0.129625,814.335,0,1,1,1
24-May-2018 13:00:08,210.888888888889,0.513925,0.4420875,-0.6976375,2.38833333333333,1.00633333333333,0.670833333333333,102.238333333333,-0.82704,-0.15024,-0.6005,-155.125,-24.775,-93.0375,96.721,0.07705,-0.7439,0.755175,0.681166666666667,-1.37666666666667,0.589666666666667,3.43025,0.356625,-0.16305,0.945725,-0.259125,-0.213375,-0.129625,814.335,0,1,1,1
24-May-2018 13:00:09,164.142857142857,0.514383333333333,0.434883333333333,-0.700716666666667,-0.764571428571429,-0.772857142857143,0.175428571428571,103.149666666667,-0.81082,-0.094,-0.60126,-117.125,-27.15,-80.975,121.345,0.0789857142857143,-0.748071428571429,0.751671428571428,-1.9118,-0.6798,-1.12,3.367,0.3551625,-0.166525,0.952825,0.8052,0.8416,-0.1098,812.817333333333,0,1,1,1
24-May-2018 13:00:09,164.142857142857,0.514383333333333,0.434883333333333,-0.700716666666667,-0.764571428571429,-0.772857142857143,0.175428571428571,103.149666666667,-0.81082,-0.094,-0.60126,-117.125,-27.15,-80.975,121.345,0.0789857142857143,-0.748071428571429,0.751671428571428,-1.9118,-0.6798,-1.12,3.367,0.3551625,-0.166525,0.952825,0.8052,0.8416,-0.1098,812.817333333333,0,1,1,1
24-May-2018 13:00:09,164.142857142857,0.514383333333333,0.434883333333333,-0.700716666666667,-0.764571428571429,-0.772857142857143,0.175428571428571,103.149666666667,-0.81082,-0.094,-0.60126,-117.125,-27.15,-80.975,121.345,0.0789857142857143,-0.748071428571429,0.751671428571428,-1.9118,-0.6798,-1.12,3.367,0.3551625,-0.166525,0.952825,0.8052,0.8416,-0.1098,812.817333333333,0,1,1,1
24-May-2018 13:00:09,164.142857142857,0.514383333333333,0.434883333333333,-0.700716666666667,-0.764571428571429,-0.772857142857143,0.175428571428571,103.149666666667,-0.81082,-0.094,-0.60126,-117.125,-27.15,-80.975,121.345,0.0789857142857143,-0.748071428571429,0.751671428571428,-1.9118,-0.6798,-1.12,3.367,0.3551625,-0.166525,0.952825,0.8052,0.8416,-0.1098,812.817333333333,0,1,1,1
24-May-2018 13:00:10,71.1111111111111,0.507433333333333,0.459533333333333,-0.690216666666667,0.92475,0.49,0.344125,101.386333333333,-0.82622,-0.01512,-0.69312,-108.833333333333,5.73133333333333,-45.8111111111111,133.657,0.08354,-0.75398,0.74352,0.8538,-1.74,0.6112,3.365,0.35485,-0.16355,0.9522,0.409428571428571,0.392142857142857,-0.061,814.357,0,1,1,1
24-May-2018 13:00:10,71.1111111111111,0.507433333333333,0.459533333333333,-0.690216666666667,0.92475,0.49,0.344125,101.386333333333,-0.82622,-0.01512,-0.69312,-108.833333333333,5.73133333333333,-45.8111111111111,133.657,0.08354,-0.75398,0.74352,0.8538,-1.74,0.6112,3.365,0.35485,-0.16355,0.9522,0.409428571428571,0.392142857142857,-0.061,814.357,0,1,1,1
24-May-2018 13:00:10,71.1111111111111,0.507433333333333,0.459533333333333,-0.690216666666667,0.92475,0.49,0.344125,101.386333333333,-0.82622,-0.01512,-0.69312,-108.833333333333,5.73133333333333,-45.8111111111111,133.657,0.08354,-0.75398,0.74352,0.8538,-1.74,0.6112,3.365,0.35485,-0.16355,0.9522,0.409428571428571,0.392142857142857,-0.061,814.357,0,1,1,1
24-May-2018 13:00:10,71.1111111111111,0.507433333333333,0.459533333333333,-0.690216666666667,0.92475,0.49,0.344125,101.386333333333,-0.82622,-0.01512,-0.69312,-108.833333333333,5.73133333333333,-45.8111111111111,133.657,0.08354,-0.75398,0.74352,0.8538,-1.74,0.6112,3.365,0.35485,-0.16355,0.9522,0.409428571428571,0.392142857142857,-0.061,814.357,0,1,1,1
24-May-2018 13:00:11,33.75,0.520777777777778,0.435233333333333,-0.699622222222222,1.91066666666667,0.266333333333333,0.8335,100.429,-0.779566666666667,-0.0445833333333333,-0.677333333333333,-21.7375,-7.73125,-16.96875,136.680333333333,0.07475,-0.738225,0.7631,0.4885,-0.908333333333333,0.2545,3.454,0.35675,-0.164483333333333,0.951066666666667,0.6464,0.4026,0.0488,813.5594,0,1,1,1
24-May-2018 13:00:11,33.75,0.520777777777778,0.435233333333333,-0.699622222222222,1.91066666666667,0.266333333333333,0.8335,100.429,-0.779566666666667,-0.0445833333333333,-0.677333333333333,-21.7375,-7.73125,-16.96875,136.680333333333,0.07475,-0.738225,0.7631,0.4885,-0.908333333333333,0.2545,3.454,0.35675,-0.164483333333333,0.951066666666667,0.6464,0.4026,0.0488,813.5594,0,1,1,1
24-May-2018 13:00:11,33.75,0.520777777777778,0.435233333333333,-0.699622222222222,1.91066666666667,0.266333333333333,0.8335,100.429,-0.779566666666667,-0.0445833333333333,-0.677333333333333,-21.7375,-7.73125,-16.96875,136.680333333333,0.07475,-0.738225,0.7631,0.4885,-0.908333333333333,0.2545,3.454,0.35675,-0.164483333333333,0.951066666666667,0.6464,0.4026,0.0488,813.5594,0,1,1,1
24-May-2018 13:00:11,33.75,0.520777777777778,0.435233333333333,-0.699622222222222,1.91066666666667,0.266333333333333,0.8335,100.429,-0.779566666666667,-0.0445833333333333,-0.677333333333333,-21.7375,-7.73125,-16.96875,136.680333333333,0.07475,-0.738225,0.7631,0.4885,-0.908333333333333,0.2545,3.454,0.35675,-0.164483333333333,0.951066666666667,0.6464,0.4026,0.0488,813.5594,0,1,1,1
24-May-2018 13:00:12,-189.090909090909,0.5165875,0.434625,-0.7002875,-1.02525,-0.5285,0.116,100.429,-0.78168,-0.05188,-0.67078,-46.0142857142857,12.8384285714286,-18.2142857142857,142.727,0.07434,-0.74238,0.75964,-2.10933333333333,-0.973333333333333,-1.13333333333333,3.417,0.355714285714286,-0.154914285714286,0.953814285714286,0.487714285714286,0.392,-0.444285714285714,814.141,0,1,1,1
24-May-2018 13:00:12,-189.090909090909,0.5165875,0.434625,-0.7002875,-1.02525,-0.5285,0.116,100.429,-0.78168,-0.05188,-0.67078,-46.0142857142857,12.8384285714286,-18.2142857142857,142.727,0.07434,-0.74238,0.75964,-2.10933333333333,-0.973333333333333,-1.13333333333333,3.417,0.355714285714286,-0.154914285714286,0.953814285714286,0.487714285714286,0.392,-0.444285714285714,814.141,0,1,1,1
24-May-2018 13:00:12,-189.090909090909,0.5165875,0.434625,-0.7002875,-1.02525,-0.5285,0.116,100.429,-0.78168,-0.05188,-0.67078,-46.0142857142857,12.8384285714286,-18.2142857142857,142.727,0.07434,-0.74238,0.75964,-2.10933333333333,-0.973333333333333,-1.13333333333333,3.417,0.355714285714286,-0.154914285714286,0.953814285714286,0.487714285714286,0.392,-0.444285714285714,814.141,0,1,1,1
24-May-2018 13:00:12,-189.090909090909,0.5165875,0.434625,-0.7002875,-1.02525,-0.5285,0.116,100.429,-0.78168,-0.05188,-0.67078,-46.0142857142857,12.8384285714286,-18.2142857142857,142.727,0.07434,-0.74238,0.75964,-2.10933333333333,-0.973333333333333,-1.13333333333333,3.417,0.355714285714286,-0.154914285714286,0.953814285714286,0.487714285714286,0.392,-0.444285714285714,814.141,0,1,1,1
24-May-2018 13:00:13,-1626.81818181818,0.505342857142857,0.462328571428571,-0.690542857142857,0.185,0.0284444444444444,0.204222222222222,100.429,-0.8481,0.0951,-0.75355,-49.5222222222222,29.6966666666667,-8.679,142.727,0.08494,-0.75594,0.73982,0.316,-1.0435,0.133666666666667,3.403,0.356016666666667,-0.1622,0.951683333333333,0.304714285714286,0.696857142857143,0.522714285714286,814.97,0,1,1,1
24-May-2018 13:00:13,-1626.81818181818,0.505342857142857,0.462328571428571,-0.690542857142857,0.185,0.0284444444444444,0.204222222222222,100.429,-0.8481,0.0951,-0.75355,-49.5222222222222,29.6966666666667,-8.679,142.727,0.08494,-0.75594,0.73982,0.316,-1.0435,0.133666666666667,3.403,0.356016666666667,-0.1622,0.951683333333333,0.304714285714286,0.696857142857143,0.522714285714286,814.97,0,1,1,1
24-May-2018 13:00:13,-1626.81818181818,0.505342857142857,0.462328571428571,-0.690542857142857,0.185,0.0284444444444444,0.204222222222222,100.429,-0.8481,0.0951,-0.75355,-49.5222222222222,29.6966666666667,-8.679,142.727,0.08494,-0.75594,0.73982,0.316,-1.0435,0.133666666666667,3.403,0.356016666666667,-0.1622,0.951683333333333,0.304714285714286,0.696857142857143,0.522714285714286,814.97,0,1,1,1
24-May-2018 13:00:13,-1626.81818181818,0.505342857142857,0.462328571428571,-0.690542857142857,0.185,0.0284444444444444,0.204222222222222,100.429,-0.8481,0.0951,-0.75355,-49.5222222222222,29.6966666666667,-8.679,142.727,0.08494,-0.75594,0.73982,0.316,-1.0435,0.133666666666667,3.403,0.356016666666667,-0.1622,0.951683333333333,0.304714285714286,0.696857142857143,0.522714285714286,814.97,0,1,1,1
24-May-2018 13:00:14,-2048,0.514125,0.4446375,-0.697775,2.355125,0.580625,0.739625,100.429,-0.713875,0.230075,-0.64255,-16.1088888888889,5.91444444444445,-0.167555555555556,152.50175,0.07618,-0.7407,0.75856,0.347333333333333,-1.72416666666667,0.306,3.3965,0.394783333333333,-0.0517833333333333,0.955033333333333,-17.6304285714286,-5.35714285714286,-14.6602857142857,801.791,0,1,1,1
24-May-2018 13:00:14,-2048,0.514125,0.4446375,-0.697775,2.355125,0.580625,0.739625,100.429,-0.713875,0.230075,-0.64255,-16.1088888888889,5.91444444444445,-0.167555555555556,152.50175,0.07618,-0.7407,0.75856,0.347333333333333,-1.72416666666667,0.306,3.3965,0.394783333333333,-0.0517833333333333,0.955033333333333,-17.6304285714286,-5.35714285714286,-14.6602857142857,801.791,0,1,1,1
24-May-2018 13:00:14,-2048,0.514125,0.4446375,-0.697775,2.355125,0.580625,0.739625,100.429,-0.713875,0.230075,-0.64255,-16.1088888888889,5.91444444444445,-0.167555555555556,152.50175,0.07618,-0.7407,0.75856,0.347333333333333,-1.72416666666667,0.306,3.3965,0.394783333333333,-0.0517833333333333,0.955033333333333,-17.6304285714286,-5.35714285714286,-14.6602857142857,801.791,0,1,1,1
24-May-2018 13:00:14,-2048,0.514125,0.4446375,-0.697775,2.355125,0.580625,0.739625,100.429,-0.713875,0.230075,-0.64255,-16.1088888888889,5.91444444444445,-0.167555555555556,152.50175,0.07618,-0.7407,0.75856,0.347333333333333,-1.72416666666667,0.306,3.3965,0.394783333333333,-0.0517833333333333,0.955033333333333,-17.6304285714286,-5.35714285714286,-14.6602857142857,801.791,0,1,1,1
24-May-2018 13:00:15,-1847.66666666667,0.517975,0.431375,-0.7025,0.2765,-0.07425,0.306,103.803,-0.68345,0.235025,-0.725675,-27.55,-3.72575,-15.29375,155.76,0.07492,-0.74052,0.76312,-0.82,-0.88,-0.97,3.401,0.4412,0.00505,0.907,2.86566666666667,-2.41866666666667,-1.443,789.602,1,1,1,1
24-May-2018 13:00:15,-1847.66666666667,0.517975,0.431375,-0.7025,0.2765,-0.07425,0.306,103.803,-0.68345,0.235025,-0.725675,-27.55,-3.72575,-15.29375,155.76,0.07492,-0.74052,0.76312,-0.82,-0.88,-0.97,3.401,0.4412,0.00505,0.907,2.86566666666667,-2.41866666666667,-1.443,789.602,1,1,1,1
24-May-2018 13:00:15,-1847.66666666667,0.517975,0.431375,-0.7025,0.2765,-0.07425,0.306,103.803,-0.68345,0.235025,-0.725675,-27.55,-3.72575,-15.29375,155.76,0.07492,-0.74052,0.76312,-0.82,-0.88,-0.97,3.401,0.4412,0.00505,0.907,2.86566666666667,-2.41866666666667,-1.443,789.602,1,1,1,1
24-May-2018 13:00:15,-1847.66666666667,0.517975,0.431375,-0.7025,0.2765,-0.07425,0.306,103.803,-0.68345,0.235025,-0.725675,-27.55,-3.72575,-15.29375,155.76,0.07492,-0.74052,0.76312,-0.82,-0.88,-0.97,3.401,0.4412,0.00505,0.907,2.86566666666667,-2.41866666666667,-1.443,789.602,1,1,1,1
24-May-2018 13:00:16,-860.1,0.51038,0.4536,-0.6937,-0.941666666666667,-0.0991666666666667,-0.190166666666667,102.494833333333,-0.6686,0.26912,-0.75586,-18.6622222222222,1.19577777777778,-13.7888888888889,155.76,0.0803,-0.74706,0.75066,-0.3935,-0.627166666666667,-0.00916666666666666,3.484,0.56748,0.12612,0.7993,-5.846,-12.11125,6.402625,743.55,0,1,1,1
24-May-2018 13:00:16,-860.1,0.51038,0.4536,-0.6937,-0.941666666666667,-0.0991666666666667,-0.190166666666667,102.494833333333,-0.6686,0.26912,-0.75586,-18.6622222222222,1.19577777777778,-13.7888888888889,155.76,0.0803,-0.74706,0.75066,-0.3935,-0.627166666666667,-0.00916666666666666,3.484,0.56748,0.12612,0.7993,-5.846,-12.11125,6.402625,743.55,0,1,1,1
24-May-2018 13:00:16,-860.1,0.51038,0.4536,-0.6937,-0.941666666666667,-0.0991666666666667,-0.190166666666667,102.494833333333,-0.6686,0.26912,-0.75586,-18.6622222222222,1.19577777777778,-13.7888888888889,155.76,0.0803,-0.74706,0.75066,-0.3935,-0.627166666666667,-0.00916666666666666,3.484,0.56748,0.12612,0.7993,-5.846,-12.11125,6.402625,743.55,0,1,1,1
24-May-2018 13:00:16,-860.1,0.51038,0.4536,-0.6937,-0.941666666666667,-0.0991666666666667,-0.190166666666667,102.494833333333,-0.6686,0.26912,-0.75586,-18.6622222222222,1.19577777777778,-13.7888888888889,155.76,0.0803,-0.74706,0.75066,-0.3935,-0.627166666666667,-0.00916666666666666,3.484,0.56748,0.12612,0.7993,-5.846,-12.11125,6.402625,743.55,0,1,1,1
24-May-2018 13:00:17,286.181818181818,0.509442857142857,0.447957142857143,-0.693814285714286,3.0285,0.915333333333333,0.965666666666667,102.755666666667,-0.671825,0.251625,-0.7903,-1.28422222222222,0.550333333333333,-16.8333333333333,159.61,0.0709,-0.722942857142857,0.780571428571429,1.1228,-0.4374,0.1236,3.59833333333333,0.686483333333333,0.0861333333333333,0.74705,15.6606666666667,-3.65833333333333,4.40033333333333,730.984,1,1,1,1
24-May-2018 13:00:17,286.181818181818,0.509442857142857,0.447957142857143,-0.693814285714286,3.0285,0.915333333333333,0.965666666666667,102.755666666667,-0.671825,0.251625,-0.7903,-1.28422222222222,0.550333333333333,-16.8333333333333,159.61,0.0709,-0.722942857142857,0.780571428571429,1.1228,-0.4374,0.1236,3.59833333333333,0.686483333333333,0.0861333333333333,0.74705,15.6606666666667,-3.65833333333333,4.40033333333333,730.984,1,1,1,1
24-May-2018 13:00:17,286.181818181818,0.509442857142857,0.447957142857143,-0.693814285714286,3.0285,0.915333333333333,0.965666666666667,102.755666666667,-0.671825,0.251625,-0.7903,-1.28422222222222,0.550333333333333,-16.8333333333333,159.61,0.0709,-0.722942857142857,0.780571428571429,1.1228,-0.4374,0.1236,3.59833333333333,0.686483333333333,0.0861333333333333,0.74705,15.6606666666667,-3.65833333333333,4.40033333333333,730.984,1,1,1,1
24-May-2018 13:00:17,286.181818181818,0.509442857142857,0.447957142857143,-0.693814285714286,3.0285,0.915333333333333,0.965666666666667,102.755666666667,-0.671825,0.251625,-0.7903,-1.28422222222222,0.550333333333333,-16.8333333333333,159.61,0.0709,-0.722942857142857,0.780571428571429,1.1228,-0.4374,0.1236,3.59833333333333,0.686483333333333,0.0861333333333333,0.74705,15.6606666666667,-3.65833333333333,4.40033333333333,730.984,1,1,1,1
24-May-2018 13:00:18,925.272727272727,0.519657142857143,0.430671428571429,-0.703642857142857,0.357166666666667,-0.241666666666667,0.3965,103.783,-0.758825,0.224625,-0.869625,13.756375,20.431375,-21.14625,159.61,0.0869,-0.73724,0.76054,-4.5075,-1.81175,-1.945,3.69,0.695616666666667,0.316216666666667,0.725383333333333,-4.18985714285714,5.46171428571429,-1.33285714285714,718.962,1,1,1,1
24-May-2018 13:00:18,925.272727272727,0.519657142857143,0.430671428571429,-0.703642857142857,0.357166666666667,-0.241666666666667,0.3965,103.783,-0.758825,0.224625,-0.869625,13.756375,20.431375,-21.14625,159.61,0.0869,-0.73724,0.76054,-4.5075,-1.81175,-1.945,3.69,0.695616666666667,0.316216666666667,0.725383333333333,-4.18985714285714,5.46171428571429,-1.33285714285714,718.962,1,1,1,1
24-May-2018 13:00:18,925.272727272727,0.519657142857143,0.430671428571429,-0.703642857142857,0.357166666666667,-0.241666666666667,0.3965,103.783,-0.758825,0.224625,-0.869625,13.756375,20.431375,-21.14625,159.61,0.0869,-0.73724,0.76054,-4.5075,-1.81175,-1.945,3.69,0.695616666666667,0.316216666666667,0.725383333333333,-4.18985714285714,5.46171428571429,-1.33285714285714,718.962,1,1,1,1
24-May-2018 13:00:18,925.272727272727,0.519657142857143,0.430671428571429,-0.703642857142857,0.357166666666667,-0.241666666666667,0.3965,103.783,-0.758825,0.224625,-0.869625,13.756375,20.431375,-21.14625,159.61,0.0869,-0.73724,0.76054,-4.5075,-1.81175,-1.945,3.69,0.695616666666667,0.316216666666667,0.725383333333333,-4.18985714285714,5.46171428571429,-1.33285714285714,718.962,1,1,1,1
24-May-2018 13:00:19,1517.9,0.509414285714286,0.456942857142857,-0.6922,-0.6985,-0.182,0.077,102.318,-0.71704,0.1096,-0.68206,45.9166666666667,8.047,1.71644444444444,159.61,0.0919,-0.740633333333333,0.750733333333333,1.28175,-1.305,0.74675,3.66933333333333,0.45335,-0.110975,0.923525,-10.4024,-0.3048,-3.7926,732.5945,1,1,1,1
24-May-2018 13:00:19,1517.9,0.509414285714286,0.456942857142857,-0.6922,-0.6985,-0.182,0.077,102.318,-0.71704,0.1096,-0.68206,45.9166666666667,8.047,1.71644444444444,159.61,0.0919,-0.740633333333333,0.750733333333333,1.28175,-1.305,0.74675,3.66933333333333,0.45335,-0.110975,0.923525,-10.4024,-0.3048,-3.7926,732.5945,1,1,1,1
24-May-2018 13:00:19,1517.9,0.509414285714286,0.456942857142857,-0.6922,-0.6985,-0.182,0.077,102.318,-0.71704,0.1096,-0.68206,45.9166666666667,8.047,1.71644444444444,159.61,0.0919,-0.740633333333333,0.750733333333333,1.28175,-1.305,0.74675,3.66933333333333,0.45335,-0.110975,0.923525,-10.4024,-0.3048,-3.7926,732.5945,1,1,1,1
24-May-2018 13:00:19,1517.9,0.509414285714286,0.456942857142857,-0.6922,-0.6985,-0.182,0.077,102.318,-0.71704,0.1096,-0.68206,45.9166666666667,8.047,1.71644444444444,159.61,0.0919,-0.740633333333333,0.750733333333333,1.28175,-1.305,0.74675,3.66933333333333,0.45335,-0.110975,0.923525,-10.4024,-0.3048,-3.7926,732.5945,1,1,1,1
24-May-2018 13:00:20,1267.25,0.519014285714286,0.449085714285714,-0.695085714285714,3.95471428571429,0.270571428571429,1.19357142857143,102.702666666667,-0.77615,-0.049325,-0.70005,21.9175,-18.625,-10.83375,177.492,0.0829625,-0.7313875,0.769925,-0.2544,-1.13,0.2228,3.5695,0.59858,-0.03818,0.836,-12.918,-7.857,-28.5191428571429,715.593,0,1,1,1
24-May-2018 13:00:20,1267.25,0.519014285714286,0.449085714285714,-0.695085714285714,3.95471428571429,0.270571428571429,1.19357142857143,102.702666666667,-0.77615,-0.049325,-0.70005,21.9175,-18.625,-10.83375,177.492,0.0829625,-0.7313875,0.769925,-0.2544,-1.13,0.2228,3.5695,0.59858,-0.03818,0.836,-12.918,-7.857,-28.5191428571429,715.593,0,1,1,1
24-May-2018 13:00:20,1267.25,0.519014285714286,0.449085714285714,-0.695085714285714,3.95471428571429,0.270571428571429,1.19357142857143,102.702666666667,-0.77615,-0.049325,-0.70005,21.9175,-18.625,-10.83375,177.492,0.0829625,-0.7313875,0.769925,-0.2544,-1.13,0.2228,3.5695,0.59858,-0.03818,0.836,-12.918,-7.857,-28.5191428571429,715.593,0,1,1,1
24-May-2018 13:00:20,1267.25,0.519014285714286,0.449085714285714,-0.695085714285714,3.95471428571429,0.270571428571429,1.19357142857143,102.702666666667,-0.77615,-0.049325,-0.70005,21.9175,-18.625,-10.83375,177.492,0.0829625,-0.7313875,0.769925,-0.2544,-1.13,0.2228,3.5695,0.59858,-0.03818,0.836,-12.918,-7.857,-28.5191428571429,715.593,0,1,1,1
24-May-2018 13:00:21,1010.66666666667,0.525075,0.4371,-0.689425,-0.103571428571429,0.750428571428571,-0.459285714285714,103.84,-0.7385,-0.079,-0.67334,22.43,-24.9666666666667,3.57122222222222,177.492,0.0846,-0.744316666666667,0.753266666666667,-1.6916,0.1738,-1.0466,3.4005,0.697575,0.1320375,0.743375,17.5915,0.6605,3.23166666666667,679.183,0,1,1,1
24-May-2018 13:00:21,1010.66666666667,0.525075,0.4371,-0.689425,-0.103571428571429,0.750428571428571,-0.459285714285714,103.84,-0.7385,-0.079,-0.67334,22.43,-24.9666666666667,3.57122222222222,177.492,0.0846,-0.744316666666667,0.753266666666667,-1.6916,0.1738,-1.0466,3.4005,0.697575,0.1320375,0.743375,17.5915,0.6605,3.23166666666667,679.183,0,1,1,1
24-May-2018 13:00:21,1010.66666666667,0.525075,0.4371,-0.689425,-0.103571428571429,0.750428571428571,-0.459285714285714,103.84,-0.7385,-0.079,-0.67334,22.43,-24.9666666666667,3.57122222222222,177.492,0.0846,-0.744316666666667,0.753266666666667,-1.6916,0.1738,-1.0466,3.4005,0.697575,0.1320375,0.743375,17.5915,0.6605,3.23166666666667,679.183,0,1,1,1
24-May-2018 13:00:21,1010.66666666667,0.525075,0.4371,-0.689425,-0.103571428571429,0.750428571428571,-0.459285714285714,103.84,-0.7385,-0.079,-0.67334,22.43,-24.9666666666667,3.57122222222222,177.492,0.0846,-0.744316666666667,0.753266666666667,-1.6916,0.1738,-1.0466,3.4005,0.697575,0.1320375,0.743375,17.5915,0.6605,3.23166666666667,679.183,0,1,1,1
24-May-2018 13:00:22,790.571428571429,0.520044444444445,0.449522222222222,-0.6857,1.443125,-1.535375,0.374625,103.84,-0.775175,-0.12535,-0.682175,15.594,-11.0681111111111,15.8161111111111,170.384,0.09224,-0.76092,0.73746,1.7075,-1.37,1.128,3.3665,0.69248,0.25812,0.71934,-2.596,0.749142857142857,0.235142857142857,633.39875,1,1,1,1
24-May-2018 13:00:22,790.571428571429,0.520044444444445,0.449522222222222,-0.6857,1.443125,-1.535375,0.374625,103.84,-0.775175,-0.12535,-0.682175,15.594,-11.0681111111111,15.8161111111111,170.384,0.09224,-0.76092,0.73746,1.7075,-1.37,1.128,3.3665,0.69248,0.25812,0.71934,-2.596,0.749142857142857,0.235142857142857,633.39875,1,1,1,1
24-May-2018 13:00:22,790.571428571429,0.520044444444445,0.449522222222222,-0.6857,1.443125,-1.535375,0.374625,103.84,-0.775175,-0.12535,-0.682175,15.594,-11.0681111111111,15.8161111111111,170.384,0.09224,-0.76092,0.73746,1.7075,-1.37,1.128,3.3665,0.69248,0.25812,0.71934,-2.596,0.749142857142857,0.235142857142857,633.39875,1,1,1,1
24-May-2018 13:00:22,790.571428571429,0.520044444444445,0.449522222222222,-0.6857,1.443125,-1.535375,0.374625,103.84,-0.775175,-0.12535,-0.682175,15.594,-11.0681111111111,15.8161111111111,170.384,0.09224,-0.76092,0.73746,1.7075,-1.37,1.128,3.3665,0.69248,0.25812,0.71934,-2.596,0.749142857142857,0.235142857142857,633.39875,1,1,1,1
24-May-2018 13:00:23,597.9,0.531275,0.4329,-0.6974,3.133,0.4425,1.037,103.84,-0.805325,-0.027125,-0.739475,-11.782,11.6321,16.483,149.06,0.0848142857142857,-0.741085714285714,0.757842857142857,0.767285714285714,-1.34714285714286,0.583857142857143,3.365,0.6938625,0.1657625,0.74185,-0.152666666666667,0.112,-0.548833333333333,635.654,0,1,1,1
24-May-2018 13:00:23,597.9,0.531275,0.4329,-0.6974,3.133,0.4425,1.037,103.84,-0.805325,-0.027125,-0.739475,-11.782,11.6321,16.483,149.06,0.0848142857142857,-0.741085714285714,0.757842857142857,0.767285714285714,-1.34714285714286,0.583857142857143,3.365,0.6938625,0.1657625,0.74185,-0.152666666666667,0.112,-0.548833333333333,635.654,0,1,1,1
24-May-2018 13:00:23,597.9,0.531275,0.4329,-0.6974,3.133,0.4425,1.037,103.84,-0.805325,-0.027125,-0.739475,-11.782,11.6321,16.483,149.06,0.0848142857142857,-0.741085714285714,0.757842857142857,0.767285714285714,-1.34714285714286,0.583857142857143,3.365,0.6938625,0.1657625,0.74185,-0.152666666666667,0.112,-0.548833333333333,635.654,0,1,1,1
24-May-2018 13:00:23,597.9,0.531275,0.4329,-0.6974,3.133,0.4425,1.037,103.84,-0.805325,-0.027125,-0.739475,-11.782,11.6321,16.483,149.06,0.0848142857142857,-0.741085714285714,0.757842857142857,0.767285714285714,-1.34714285714286,0.583857142857143,3.365,0.6938625,0.1657625,0.74185,-0.152666666666667,0.112,-0.548833333333333,635.654,0,1,1,1
24-May-2018 13:00:24,432.1,0.53228,0.42425,-0.6953,-0.644375,-0.037,0.0635,103.84,-0.773142857142857,0.0620285714285714,-0.6479,9.39714285714286,-3.06142857142857,2.179,149.06,0.0810666666666667,-0.740366666666667,0.760533333333333,-3.03,-0.485,-1.6125,3.3325,0.705033333333334,0.183566666666667,0.7286,1.0365,-0.739375,-0.22875,643.6385,0,1,1,1
24-May-2018 13:00:24,432.1,0.53228,0.42425,-0.6953,-0.644375,-0.037,0.0635,103.84,-0.773142857142857,0.0620285714285714,-0.6479,9.39714285714286,-3.06142857142857,2.179,149.06,0.0810666666666667,-0.740366666666667,0.760533333333333,-3.03,-0.485,-1.6125,3.3325,0.705033333333334,0.183566666666667,0.7286,1.0365,-0.739375,-0.22875,643.6385,0,1,1,1
24-May-2018 13:00:24,432.1,0.53228,0.42425,-0.6953,-0.644375,-0.037,0.0635,103.84,-0.773142857142857,0.0620285714285714,-0.6479,9.39714285714286,-3.06142857142857,2.179,149.06,0.0810666666666667,-0.740366666666667,0.760533333333333,-3.03,-0.485,-1.6125,3.3325,0.705033333333334,0.183566666666667,0.7286,1.0365,-0.739375,-0.22875,643.6385,0,1,1,1
24-May-2018 13:00:24,432.1,0.53228,0.42425,-0.6953,-0.644375,-0.037,0.0635,103.84,-0.773142857142857,0.0620285714285714,-0.6479,9.39714285714286,-3.06142857142857,2.179,149.06,0.0810666666666667,-0.740366666666667,0.760533333333333,-3.03,-0.485,-1.6125,3.3325,0.705033333333334,0.183566666666667,0.7286,1.0365,-0.739375,-0.22875,643.6385,0,1,1,1
24-May-2018 13:00:25,310,0.52446,0.44838,-0.68338,0.7946,0.3662,0.2208,102.226333333333,-0.774375,0.010475,-0.674475,-23.7,-8.60428571428571,-36.2857142857143,151.751666666667,0.0904,-0.755025,0.73895,-2.8925,-0.8025,-1.6575,3.324,0.705875,0.1935,0.726625,-0.2684,0.7564,-0.3172,639.045,0,1,1,1
24-May-2018 13:00:25,310,0.52446,0.44838,-0.68338,0.7946,0.3662,0.2208,102.226333333333,-0.774375,0.010475,-0.674475,-23.7,-8.60428571428571,-36.2857142857143,151.751666666667,0.0904,-0.755025,0.73895,-2.8925,-0.8025,-1.6575,3.324,0.705875,0.1935,0.726625,-0.2684,0.7564,-0.3172,639.045,0,1,1,1
24-May-2018 13:00:25,310,0.52446,0.44838,-0.68338,0.7946,0.3662,0.2208,102.226333333333,-0.774375,0.010475,-0.674475,-23.7,-8.60428571428571,-36.2857142857143,151.751666666667,0.0904,-0.755025,0.73895,-2.8925,-0.8025,-1.6575,3.324,0.705875,0.1935,0.726625,-0.2684,0.7564,-0.3172,639.045,0,1,1,1
24-May-2018 13:00:25,310,0.52446,0.44838,-0.68338,0.7946,0.3662,0.2208,102.226333333333,-0.774375,0.010475,-0.674475,-23.7,-8.60428571428571,-36.2857142857143,151.751666666667,0.0904,-0.755025,0.73895,-2.8925,-0.8025,-1.6575,3.324,0.705875,0.1935,0.726625,-0.2684,0.7564,-0.3172,639.045,0,1,1,1
24-May-2018 13:00:26,219.6,0.53598,0.42872,-0.69214,1.80883333333333,0.914666666666667,0.3475,104.403,-0.942425,-0.1101,-0.755525,-7.64071428571429,15.1805714285714,-38.4,143.583,0.08844,-0.74788,0.7483,1.098,-0.786666666666667,0.935333333333333,3.389,0.702266666666667,0.17945,0.733716666666667,-0.6462,0.9392,-0.3172,641.117,0,1,1,1
24-May-2018 13:00:26,219.6,0.53598,0.42872,-0.69214,1.80883333333333,0.914666666666667,0.3475,104.403,-0.942425,-0.1101,-0.755525,-7.64071428571429,15.1805714285714,-38.4,143.583,0.08844,-0.74788,0.7483,1.098,-0.786666666666667,0.935333333333333,3.389,0.702266666666667,0.17945,0.733716666666667,-0.6462,0.9392,-0.3172,641.117,0,1,1,1
24-May-2018 13:00:26,219.6,0.53598,0.42872,-0.69214,1.80883333333333,0.914666666666667,0.3475,104.403,-0.942425,-0.1101,-0.755525,-7.64071428571429,15.1805714285714,-38.4,143.583,0.08844,-0.74788,0.7483,1.098,-0.786666666666667,0.935333333333333,3.389,0.702266666666667,0.17945,0.733716666666667,-0.6462,0.9392,-0.3172,641.117,0,1,1,1
24-May-2018 13:00:26,219.6,0.53598,0.42872,-0.69214,1.80883333333333,0.914666666666667,0.3475,104.403,-0.942425,-0.1101,-0.755525,-7.64071428571429,15.1805714285714,-38.4,143.583,0.08844,-0.74788,0.7483,1.098,-0.786666666666667,0.935333333333333,3.389,0.702266666666667,0.17945,0.733716666666667,-0.6462,0.9392,-0.3172,641.117,0,1,1,1
24-May-2018 13:00:27,143.714285714286,0.5265,0.4249,-0.699166666666667,-1.171,-0.2235,0.671,104.9085,-0.771725,-0.20075,-0.5196,-3.1326,11.9004,-30.62,143.583,0.081025,-0.73485,0.7639,-0.27175,-0.7725,0.06175,3.4305,0.6961,0.174475,0.740525,0.264333333333333,0.894333333333333,-0.3172,644.131,0,1,1,1
24-May-2018 13:00:27,143.714285714286,0.5265,0.4249,-0.699166666666667,-1.171,-0.2235,0.671,104.9085,-0.771725,-0.20075,-0.5196,-3.1326,11.9004,-30.62,143.583,0.081025,-0.73485,0.7639,-0.27175,-0.7725,0.06175,3.4305,0.6961,0.174475,0.740525,0.264333333333333,0.894333333333333,-0.3172,644.131,0,1,1,1
24-May-2018 13:00:27,143.714285714286,0.5265,0.4249,-0.699166666666667,-1.171,-0.2235,0.671,104.9085,-0.771725,-0.20075,-0.5196,-3.1326,11.9004,-30.62,143.583,0.081025,-0.73485,0.7639,-0.27175,-0.7725,0.06175,3.4305,0.6961,0.174475,0.740525,0.264333333333333,0.894333333333333,0,644.131,0,1,1,1
24-May-2018 13:00:27,143.714285714286,0.5265,0.4249,-0.699166666666667,-1.171,-0.2235,0.671,104.9085,-0.771725,-0.20075,-0.5196,-3.1326,11.9004,-30.62,143.583,0.081025,-0.73485,0.7639,-0.27175,-0.7725,0.06175,3.4305,0.6961,0.174475,0.740525,0.264333333333333,0.894333333333333,0,644.131,0,1,1,1
24-May-2018 13:00:28,100.111111111111,0.521914285714286,0.459457142857143,-0.683185714285714,-2.26185714285714,-0.276428571428571,-0.268285714285714,104.381666666667,-0.8025,-0.24442,-0.58048,-52.3714285714286,-17.5442857142857,-37.6571428571429,143.583,0.0852166666666667,-0.744533333333333,0.75165,-2.29285714285714,-0.607142857142857,-1.33428571428571,3.33733333333333,0.701366666666667,0.18205,0.7334,0.985666666666667,0.0813333333333333,-0.172833333333333,644.3572,0,1,1,1
24-May-2018 13:00:28,100.111111111111,0.521914285714286,0.459457142857143,-0.683185714285714,-2.26185714285714,-0.276428571428571,-0.268285714285714,104.381666666667,-0.8025,-0.24442,-0.58048,-52.3714285714286,-17.5442857142857,-37.6571428571429,143.583,0.0852166666666667,-0.744533333333333,0.75165,-2.29285714285714,-0.607142857142857,-1.33428571428571,3.33733333333333,0.701366666666667,0.18205,0.7334,0.985666666666667,0.0813333333333333,-0.172833333333333,644.3572,0,1,1,1
24-May-2018 13:00:28,100.111111111111,0.521914285714286,0.459457142857143,-0.683185714285714,-2.26185714285714,-0.276428571428571,-0.268285714285714,104.381666666667,-0.8025,-0.24442,-0.58048,-52.3714285714286,-17.5442857142857,-37.6571428571429,143.583,0.0852166666666667,-0.744533333333333,0.75165,-2.29285714285714,-0.607142857142857,-1.33428571428571,3.33733333333333,0.701366666666667,0.18205,0.7334,0.985666666666667,0.0813333333333333,-0.172833333333333,644.3572,0,1,1,1
24-May-2018 13:00:28,100.111111111111,0.521914285714286,0.459457142857143,-0.683185714285714,-2.26185714285714,-0.276428571428571,-0.268285714285714,104.381666666667,-0.8025,-0.24442,-0.58048,-52.3714285714286,-17.5442857142857,-37.6571428571429,143.583,0.0852166666666667,-0.744533333333333,0.75165,-2.29285714285714,-0.607142857142857,-1.33428571428571,3.33733333333333,0.701366666666667,0.18205,0.7334,0.985666666666667,0.0813333333333333,-0.172833333333333,644.3572,0,1,1,1
24-May-2018 13:00:29,66.4444444444444,0.522,0.45814,-0.6832,2.81357142857143,1.20214285714286,0.819142857142857,103.2815,-0.77252,-0.2059,-0.5694,-45.1555555555556,-21.3244444444444,-20.2955555555556,148.033,0.0884857142857143,-0.749128571428572,0.747785714285714,1.47366666666667,-1.09166666666667,0.8235,3.38,0.69954,0.18044,0.73346,-0.569,0.884333333333334,0.0813333333333333,640.9884,0,1,1,1
24-May-2018 13:00:29,66.4444444444444,0.522,0.45814,-0.6832,2.81357142857143,1.20214285714286,0.819142857142857,103.2815,-0.77252,-0.2059,-0.5694,-45.1555555555556,-21.3244444444444,-20.2955555555556,148.033,0.0884857142857143,-0.749128571428572,0.747785714285714,1.47366666666667,-1.09166666666667,0.8235,3.38,0.69954,0.18044,0.73346,-0.569,0.884333333333334,0.0813333333333333,640.9884,0,1,1,1
24-May-2018 13:00:29,66.4444444444444,0.522,0.45814,-0.6832,2.81357142857143,1.20214285714286,0.819142857142857,103.2815,-0.77252,-0.2059,-0.5694,-45.1555555555556,-21.3244444444444,-20.2955555555556,148.033,0.0884857142857143,-0.749128571428572,0.747785714285714,1.47366666666667,-1.09166666666667,0.8235,3.38,0.69954,0.18044,0.73346,-0.569,0.884333333333334,0.0813333333333333,640.9884,0,1,1,1
24-May-2018 13:00:29,66.4444444444444,0.522,0.45814,-0.6832,2.81357142857143,1.20214285714286,0.819142857142857,103.2815,-0.77252,-0.2059,-0.5694,-45.1555555555556,-21.3244444444444,-20.2955555555556,148.033,0.0884857142857143,-0.749128571428572,0.747785714285714,1.47366666666667,-1.09166666666667,0.8235,3.38,0.69954,0.18044,0.73346,-0.569,0.884333333333334,0.0813333333333333,640.9884,0,1,1,1
24-May-2018 13:00:30,78.2222222222222,0.5267,0.434633333333333,-0.692066666666667,0.732428571428571,0.497,0.289428571428571,105.661,-0.861233333333333,-0.1394,-0.741966666666667,-34.7444444444444,2.72366666666667,7.033,148.033,0.0797666666666667,-0.7365,0.764833333333333,-0.02825,-1.2025,0.03275,3.36825,0.70062,0.18606,0.75328,0.498,0.945166666666667,0.0305,643.715,0,1,1,1
24-May-2018 13:00:30,78.2222222222222,0.5267,0.434633333333333,-0.692066666666667,0.732428571428571,0.497,0.289428571428571,105.661,-0.861233333333333,-0.1394,-0.741966666666667,-34.7444444444444,2.72366666666667,7.033,148.033,0.0797666666666667,-0.7365,0.764833333333333,-0.02825,-1.2025,0.03275,3.36825,0.70062,0.18606,0.75328,0.498,0.945166666666667,0.0305,643.715,0,1,1,1
24-May-2018 13:00:30,78.2222222222222,0.5267,0.434633333333333,-0.692066666666667,0.732428571428571,0.497,0.289428571428571,105.661,-0.861233333333333,-0.1394,-0.741966666666667,-34.7444444444444,2.72366666666667,7.033,148.033,0.0797666666666667,-0.7365,0.764833333333333,-0.02825,-1.2025,0.03275,3.36825,0.70062,0.18606,0.75328,0.498,0.945166666666667,0.0305,643.715,0,1,1,1
24-May-2018 13:00:30,78.2222222222222,0.5267,0.434633333333333,-0.692066666666667,0.732428571428571,0.497,0.289428571428571,105.661,-0.861233333333333,-0.1394,-0.741966666666667,-34.7444444444444,2.72366666666667,7.033,148.033,0.0797666666666667,-0.7365,0.764833333333333,-0.02825,-1.2025,0.03275,3.36825,0.70062,0.18606,0.75328,0.498,0.945166666666667,0.0305,643.715,0,1,1,1
