TIME,HELMET_RAW,BELT_ACC_X,BELT_ACC_Y,BELT_ACC_Z,BELT_ANG_X,BELT_ANG_Y,BELT_ANG_Z,BELT_LUMINOSITY,NECK_ACC_X,NECK_ACC_Y,NECK_ACC_Z,NECK_ANG_X,NECK_ANG_Y,NECK_ANG_Z,NECK_LUMINOSITY,PCKT_ACC_X,PCKT_ACC_Y,PCKT_ACC_Z,PCKT_ANG_X,PCKT_ANG_Y,PCKT_ANG_Z,PCKT_LUMINOSITY,WRST_ACC_X,WRST_ACC_Y,WRST_ACC_Z,WRST_ANG_X,WRST_ANG_Y,WRST_ANG_Z,WRST_LUMINOSITY,IR_1,IR_2,IR_3,IR_4
24-May-2018 12:57:31,82.125,0.24,0.542071428571429,-0.695385714285714,-12.6025,-115.987166666667,-10.5283333333333,48.82875,-0.7916,-0.104966666666667,-0.457166666666667,38.008,14.722875,-4.38075,138.910333333333,0.271214285714286,-0.641657142857143,0.764657142857143,-7.44,-24.736,-1.54233333333333,2.38775,0.521966666666667,-0.203133333333333,0.859266666666667,1.8395,0.599666666666667,0.884333333333333,747.9545,0,0,1,1
24-May-2018 12:57:31,82.125,0.24,0.542071428571429,-0.695385714285714,-12.6025,-115.987166666667,-10.5283333333333,48.82875,-0.7916,-0.104966666666667,-0.457166666666667,38.008,14.722875,-4.38075,138.910333333333,0.271214285714286,-0.641657142857143,0.764657142857143,-7.44,-24.736,-1.54233333333333,2.38775,0.521966666666667,-0.203133333333333,0.859266666666667,1.8395,0.599666666666667,0.884333333333333,747.9545,0,0,1,1
24-May-2018 12:57:31,82.125,0.24,0.542071428571429,-0.695385714285714,-12.6025,-115.987166666667,-10.5283333333333,48.82875,-0.7916,-0.104966666666667,-0.457166666666667,38.008,14.722875,-4.38075,138.910333333333,0.271214285714286,-0.641657142857143,0.764657142857143,-7.44,-24.736,-1.54233333333333,2.38775,0.521966666666667,-0.203133333333333,0.859266666666667,1.8395,0.599666666666667,0.884333333333333,747.9545,0,0,1,1
24-May-2018 12:57:31,82.125,0.24,0.542071428571429,-0.695385714285714,-12.6025,-115.987166666667,-10.5283333333333,48.82875,-0.7916,-0.104966666666667,-0.457166666666667,38.008,14.722875,-4.38075,138.910333333333,0.271214285714286,-0.641657142857143,0.764657142857143,-7.44,-24.736,-1.54233333333333,2.38775,0.521966666666667,-0.203133333333333,0.859266666666667,1.8395,0.599666666666667,0.884333333333333,747.9545,0,0,1,1
24-May-2018 12:57:32,73.5714285714286,0.614383333333333,0.477366666666667,-0.641383333333333,-22.634,0.227142857142854,-1.24014285714286,42.6325,-0.8374,-0.11022,-0.56892,-11.325,-6.700625,-12.60125,141.395,0.0451,-0.73688,0.7643,-0.282,0.926666666666667,-0.401666666666667,3.4362,0.511,-0.1837,0.8848,4.23775,2.0885,4.4515,749.47025,1,1,1,1
24-May-2018 12:57:32,73.5714285714286,0.614383333333333,0.477366666666667,-0.641383333333333,-22.634,0.227142857142854,-1.24014285714286,42.6325,-0.8374,-0.11022,-0.56892,-11.325,-6.700625,-12.60125,141.395,0.0451,-0.73688,0.7643,-0.282,0.926666666666667,-0.401666666666667,3.4362,0.511,-0.1837,0.8848,4.23775,2.0885,4.4515,749.47025,1,1,1,1
24-May-2018 12:57:32,73.5714285714286,0.614383333333333,0.477366666666667,-0.641383333333333,-22.634,0.227142857142854,-1.24014285714286,42.6325,-0.8374,-0.11022,-0.56892,-11.325,-6.700625,-12.60125,141.395,0.0451,-0.73688,0.7643,-0.282,0.926666666666667,-0.401666666666667,3.4362,0.511,-0.1837,0.8848,4.23775,2.0885,4.4515,749.47025,1,1,1,1
24-May-2018 12:57:32,73.5714285714286,0.614383333333333,0.477366666666667,-0.641383333333333,-22.634,0.227142857142854,-1.24014285714286,42.6325,-0.8374,-0.11022,-0.56892,-11.325,-6.700625,-12.60125,141.395,0.0451,-0.73688,0.7643,-0.282,0.926666666666667,-0.401666666666667,3.4362,0.511,-0.1837,0.8848,4.23775,2.0885,4.4515,749.47025,1,1,1,1
24-May-2018 12:57:33,-22.8888888888889,0.513057142857143,0.517985714285714,-0.602128571428571,-18.298875,16.560625,17.66575,96.34,-0.786075,-0.118625,-0.61735,7.7486,-9.7894,4.9087,141.395,0.0488666666666667,-0.7472,0.7581,-1.924,-1.2286,-1.422,4.0892,0.5129,-0.1713,0.883933333333333,0.691333333333333,0.427,-0.386333333333333,755.731666666667,0,0,1,1
24-May-2018 12:57:33,-22.8888888888889,0.513057142857143,0.517985714285714,-0.602128571428571,-18.298875,16.560625,17.66575,96.34,-0.786075,-0.118625,-0.61735,7.7486,-9.7894,4.9087,141.395,0.0488666666666667,-0.7472,0.7581,-1.924,-1.2286,-1.422,4.0892,0.5129,-0.1713,0.883933333333333,0.691333333333333,0.427,-0.386333333333333,755.731666666667,0,0,1,1
24-May-2018 12:57:33,-22.8888888888889,0.513057142857143,0.517985714285714,-0.602128571428571,-18.298875,16.560625,17.66575,96.34,-0.786075,-0.118625,-0.61735,7.7486,-9.7894,4.9087,141.395,0.0488666666666667,-0.7472,0.7581,-1.924,-1.2286,-1.422,4.0892,0.5129,-0.1713,0.883933333333333,0.691333333333333,0.427,-0.386333333333333,755.731666666667,0,0,1,1
24-May-2018 12:57:33,-22.8888888888889,0.513057142857143,0.517985714285714,-0.602128571428571,-18.298875,16.560625,17.66575,96.34,-0.786075,-0.118625,-0.61735,7.7486,-9.7894,4.9087,141.395,0.0488666666666667,-0.7472,0.7581,-1.924,-1.2286,-1.422,4.0892,0.5129,-0.1713,0.883933333333333,0.691333333333333,0.427,-0.386333333333333,755.731666666667,0,0,1,1
24-May-2018 12:57:34,-1576.85714285714,0.333588888888889,0.549922222222222,-0.738888888888889,7.054,38.0237142857143,5.34,86.997,-0.8171,-0.13858,-0.64338,1.9985,1.862125,19.67,138.737,0.0870666666666667,-0.77925,0.710566666666667,-4.568,-1.3116,-2.836,4.0465,0.505471428571428,-0.167371428571429,0.885271428571429,0.9148,0.7196,0.6222,756.3485,1,1,1,1
24-May-2018 12:57:34,-1576.85714285714,0.333588888888889,0.549922222222222,-0.738888888888889,7.054,38.0237142857143,5.34,86.997,-0.8171,-0.13858,-0.64338,1.9985,1.862125,19.67,138.737,0.0870666666666667,-0.77925,0.710566666666667,-4.568,-1.3116,-2.836,4.0465,0.505471428571428,-0.167371428571429,0.885271428571429,0.9148,0.7196,0.6222,756.3485,1,1,1,1
24-May-2018 12:57:34,-1576.85714285714,0.333588888888889,0.549922222222222,-0.738888888888889,7.054,38.0237142857143,5.34,86.997,-0.8171,-0.13858,-0.64338,1.9985,1.862125,19.67,138.737,0.0870666666666667,-0.77925,0.710566666666667,-4.568,-1.3116,-2.836,4.0465,0.505471428571428,-0.167371428571429,0.885271428571429,0.9148,0.7196,0.6222,756.3485,1,1,1,1
24-May-2018 12:57:34,-1576.85714285714,0.333588888888889,0.549922222222222,-0.738888888888889,7.054,38.0237142857143,5.34,86.997,-0.8171,-0.13858,-0.64338,1.9985,1.862125,19.67,138.737,0.0870666666666667,-0.77925,0.710566666666667,-4.568,-1.3116,-2.836,4.0465,0.505471428571428,-0.167371428571429,0.885271428571429,0.9148,0.7196,0.6222,756.3485,1,1,1,1
24-May-2018 12:57:35,-2048,0.507325,0.465625,-0.695225,1.0492,1.3794,0.3784,86.997,-0.966233333333333,-0.0515,-0.744566666666667,-21.0385714285714,18.1434285714286,19.7671428571429,137.851,0.1036,-0.7982,0.683,-1.3266,-0.496,-0.738,3.851,0.49494,-0.17144,0.89122,-0.386,0.894666666666667,-0.345666666666667,758.963,0,0,1,1
24-May-2018 12:57:35,-2048,0.507325,0.465625,-0.695225,1.0492,1.3794,0.3784,86.997,-0.966233333333333,-0.0515,-0.744566666666667,-21.0385714285714,18.1434285714286,19.7671428571429,137.851,0.1036,-0.7982,0.683,-1.3266,-0.496,-0.738,3.851,0.49494,-0.17144,0.89122,-0.386,0.894666666666667,-0.345666666666667,758.963,0,0,1,1
24-May-2018 12:57:35,-2048,0.507325,0.465625,-0.695225,1.0492,1.3794,0.3784,86.997,-0.966233333333333,-0.0515,-0.744566666666667,-21.0385714285714,18.1434285714286,19.7671428571429,137.851,0.1036,-0.7982,0.683,-1.3266,-0.496,-0.738,3.851,0.49494,-0.17144,0.89122,-0.386,0.894666666666667,-0.345666666666667,758.963,0,0,1,1
24-May-2018 12:57:35,-2048,0.507325,0.465625,-0.695225,1.0492,1.3794,0.3784,86.997,-0.966233333333333,-0.0515,-0.744566666666667,-21.0385714285714,18.1434285714286,19.7671428571429,137.851,0.1036,-0.7982,0.683,-1.3266,-0.496,-0.738,3.851,0.49494,-0.17144,0.89122,-0.386,0.894666666666667,-0.345666666666667,758.963,0,0,1,1
24-May-2018 12:57:36,-2048,0.5051,0.4661,-0.6957,2.195,-1.89,1.341,86.997,-0.8372,0.0527,-0.6109,-24.25,25.055,20.45,137.851,0.1036,-0.7982,0.683,-1.3266,-0.496,-0.738,3.851,0.49494,-0.17144,0.89122,-0.386,0.894666666666667,-0.345666666666667,758.963,0,0,1,1
24-May-2018 12:57:36,-2048,0.5051,0.4661,-0.6957,2.195,-1.89,1.341,86.997,-0.8372,0.0527,-0.6109,-24.25,25.055,20.45,137.851,0.1036,-0.7982,0.683,-1.3266,-0.496,-0.738,3.851,0.49494,-0.17144,0.89122,-0.386,0.894666666666667,-0.345666666666667,758.963,0,0,1,1
24-May-2018 12:57:36,-2048,0.5051,0.4661,-0.6957,2.195,-1.89,1.341,86.997,-0.8372,0.0527,-0.6109,-24.25,25.055,20.45,137.851,0.1036,-0.7982,0.683,-1.3266,-0.496,-0.738,3.851,0.49494,-0.17144,0.89122,-0.386,0.894666666666667,-0.345666666666667,758.963,0,0,1,1
24-May-2018 12:57:36,-2048,0.5051,0.4661,-0.6957,2.195,-1.89,1.341,86.997,-0.8372,0.0527,-0.6109,-24.25,25.055,20.45,137.851,0,0,0,0,0,0,0,0,0,0,0,0,0,0,0,0,1,1
24-May-2018 12:57:37,605.6,0.502866666666667,0.459244444444444,-0.696044444444444,0.383571428571429,0.0982857142857144,0.306285714285714,86.997,-0.82574,0.16634,-0.56506,0.961111111111112,18.4535555555556,24.4277777777778,137.851,0.0992333333333333,-0.793166666666667,0.690483333333333,-0.7062,-0.8,-0.134,3.867,0.49886,-0.17098,0.8856,1.113,0.56425,-0.3965,758.565,0,0,1,1
24-May-2018 12:57:37,605.6,0.502866666666667,0.459244444444444,-0.696044444444444,0.383571428571429,0.0982857142857144,0.306285714285714,86.997,-0.82574,0.16634,-0.56506,0.961111111111112,18.4535555555556,24.4277777777778,137.851,0.0992333333333333,-0.793166666666667,0.690483333333333,-0.7062,-0.8,-0.134,3.867,0.49886,-0.17098,0.8856,1.113,0.56425,-0.3965,758.565,0,0,1,1
24-May-2018 12:57:37,605.6,0.502866666666667,0.459244444444444,-0.696044444444444,0.383571428571429,0.0982857142857144,0.306285714285714,86.997,-0.82574,0.16634,-0.56506,0.961111111111112,18.4535555555556,24.4277777777778,137.851,0.0992333333333333,-0.793166666666667,0.690483333333333,-0.7062,-0.8,-0.134,3.867,0.49886,-0.17098,0.8856,1.113,0.56425,-0.3965,758.565,0,0,1,1
24-May-2018 12:57:37,605.6,0.502866666666667,0.459244444444444,-0.696044444444444,0.383571428571429,0.0982857142857144,0.306285714285714,86.997,-0.82574,0.16634,-0.56506,0.961111111111112,18.4535555555556,24.4277777777778,137.851,0.0992333333333333,-0.793166666666667,0.690483333333333,-0.7062,-0.8,-0.134,3.867,0.49886,-0.17098,0.8856,1.113,0.56425,-0.3965,758.565,0,0,1,1
24-May-2018 12:57:38,2047,0.4801,0.5011,-0.685875,-4.0425,-2.365875,-0.538875,86.997,-0.7893,0.082475,-0.6104,47.5766666666667,-20.7655555555556,16.6713333333333,146.781,0.0723166666666667,-0.76365,0.7383,4.168625,-0.751875,2.1875,4.08033333333333,0.491516666666667,-0.175766666666667,0.890066666666666,-1.69842857142857,0.505428571428571,-0.418285714285714,761.185,0,0,1,1
24-May-2018 12:57:38,2047,0.4801,0.5011,-0.685875,-4.0425,-2.365875,-0.538875,86.997,-0.7893,0.082475,-0.6104,47.5766666666667,-20.7655555555556,16.6713333333333,146.781,0.0723166666666667,-0.76365,0.7383,4.168625,-0.751875,2.1875,4.08033333333333,0.491516666666667,-0.175766666666667,0.890066666666666,-1.69842857142857,0.505428571428571,-0.418285714285714,761.185,0,0,1,1
24-May-2018 12:57:38,2047,0.4801,0.5011,-0.685875,-4.0425,-2.365875,-0.538875,86.997,-0.7893,0.082475,-0.6104,47.5766666666667,-20.7655555555556,16.6713333333333,146.781,0.0723166666666667,-0.76365,0.7383,4.168625,-0.751875,2.1875,4.08033333333333,0.491516666666667,-0.175766666666667,0.890066666666666,-1.69842857142857,0.505428571428571,-0.418285714285714,761.185,0,0,1,1
24-May-2018 12:57:38,2047,0.4801,0.5011,-0.685875,-4.0425,-2.365875,-0.538875,0,-0.7893,0.082475,-0.6104,47.5766666666667,-20.7655555555556,16.6713333333333,146.781,0.0723166666666667,-0.76365,0.7383,4.168625,-0.751875,2.1875,4.08033333333333,0.491516666666667,-0.175766666666667,0.890066666666666,-1.69842857142857,0.505428571428571,-0.418285714285714,761.185,0,0,1,1
24-May-2018 12:57:39,1838.55555555556,0.456785714285714,0.530885714285714,-0.6822,0.510166666666667,-1.71583333333333,0.162833333333333,85.401,-0.784175,0.0434,-0.6375,0.493111111111111,-7.63777777777778,-16.357,146.781,0.05924,-0.75358,0.74896,-3.46,-1.10466666666667,-2.27166666666667,4.1696,0.480866666666667,-0.168966666666667,0.905916666666667,2.988,1.15871428571429,0.0958571428571428,766.05775,1,1,1,1
24-May-2018 12:57:39,1838.55555555556,0.456785714285714,0.530885714285714,-0.6822,0.510166666666667,-1.71583333333333,0.162833333333333,85.401,-0.784175,0.0434,-0.6375,0.493111111111111,-7.63777777777778,-16.357,146.781,0.05924,-0.75358,0.74896,-3.46,-1.10466666666667,-2.27166666666667,4.1696,0.480866666666667,-0.168966666666667,0.905916666666667,2.988,1.15871428571429,0.0958571428571428,766.05775,1,1,1,1
24-May-2018 12:57:39,1838.55555555556,0.456785714285714,0.530885714285714,-0.6822,0.510166666666667,-1.71583333333333,0.162833333333333,85.401,-0.784175,0.0434,-0.6375,0.493111111111111,-7.63777777777778,-16.357,146.781,0.05924,-0.75358,0.74896,-3.46,-1.10466666666667,-2.27166666666667,4.1696,0.480866666666667,-0.168966666666667,0.905916666666667,2.988,1.15871428571429,0.0958571428571428,766.05775,1,1,1,1
24-May-2018 12:57:39,1838.55555555556,0.456785714285714,0.530885714285714,-0.6822,0.510166666666667,-1.71583333333333,0.162833333333333,85.401,-0.784175,0.0434,-0.6375,0.493111111111111,-7.63777777777778,-16.357,146.781,0.05924,-0.75358,0.74896,-3.46,-1.10466666666667,-2.27166666666667,4.1696,0.480866666666667,-0.168966666666667,0.905916666666667,2.988,1.15871428571429,0.0958571428571428,766.05775,1,1,1,1
24-May-2018 12:57:40,1363.125,0.449933333333333,0.522666666666667,-0.681333333333333,4.451,1.0514,0.8548,85.9532,-0.821875,0.02955,-0.691175,-2.4065,11.4005,-28.7666666666667,146.781,0.0870571428571429,-0.780014285714286,0.711042857142857,-3.106,-0.994,-1.4718,4.011,0.4754,-0.1337,0.901466666666667,3.57733333333333,0.9045,0.559,772.614,0,0,1,1
24-May-2018 12:57:40,1363.125,0.449933333333333,0.522666666666667,-0.681333333333333,4.451,1.0514,0.8548,85.9532,-0.821875,0.02955,-0.691175,-2.4065,11.4005,-28.7666666666667,146.781,0.0870571428571429,-0.780014285714286,0.711042857142857,-3.106,-0.994,-1.4718,4.011,0.4754,-0.1337,0.901466666666667,3.57733333333333,0.9045,0.559,772.614,0,0,1,1
24-May-2018 12:57:40,1363.125,0.449933333333333,0.522666666666667,-0.681333333333333,4.451,1.0514,0.8548,85.9532,-0.821875,0.02955,-0.691175,-2.4065,11.4005,-28.7666666666667,146.781,0.0870571428571429,-0.780014285714286,0.711042857142857,-3.106,-0.994,-1.4718,4.011,0.4754,-0.1337,0.901466666666667,3.57733333333333,0.9045,0.559,772.614,0,0,1,1
24-May-2018 12:57:40,1363.125,0.449933333333333,0.522666666666667,-0.681333333333333,4.451,1.0514,0.8548,85.9532,-0.821875,0.02955,-0.691175,-2.4065,11.4005,-28.7666666666667,146.781,0.0870571428571429,-0.780014285714286,0.711042857142857,-3.106,-0.994,-1.4718,4.011,0.4754,-0.1337,0.901466666666667,3.57733333333333,0.9045,0.559,772.614,0,0,1,1
24-May-2018 12:57:41,1043.42857142857,0.484155555555556,0.474088888888889,-0.701411111111111,4.5234,1.5994,0.8538,90.5706666666667,-0.8731,-0.072575,-0.6905,13.6994,12.6803,-18.8,143.125,0.0782,-0.773928571428571,0.721671428571429,3.618,-0.699833333333333,2.37816666666667,3.9172,0.47756,-0.12822,0.9032,0.0957142857142858,0.365857142857143,-0.226571428571429,771.0718,0,0,1,1
24-May-2018 12:57:41,1043.42857142857,0.484155555555556,0.474088888888889,-0.701411111111111,4.5234,1.5994,0.8538,90.5706666666667,-0.8731,-0.072575,-0.6905,13.6994,12.6803,-18.8,143.125,0.0782,-0.773928571428571,0.721671428571429,3.618,-0.699833333333333,2.37816666666667,3.9172,0.47756,-0.12822,0.9032,0.0957142857142858,0.365857142857143,-0.226571428571429,771.0718,0,0,1,1
24-May-2018 12:57:41,1043.42857142857,0.484155555555556,0.474088888888889,-0.701411111111111,4.5234,1.5994,0.8538,90.5706666666667,-0.8731,-0.072575,-0.6905,13.6994,12.6803,-18.8,143.125,0.0782,-0.773928571428571,0.721671428571429,3.618,-0.699833333333333,2.37816666666667,3.9172,0.47756,-0.12822,0.9032,0.0957142857142858,0.365857142857143,-0.226571428571429,771.0718,0,0,1,1
24-May-2018 12:57:41,1043.42857142857,0.484155555555556,0.474088888888889,-0.701411111111111,4.5234,1.5994,0.8538,90.5706666666667,-0.8731,-0.072575,-0.6905,13.6994,12.6803,-18.8,143.125,0.0782,-0.773928571428571,0.721671428571429,3.618,-0.699833333333333,2.37816666666667,3.9172,0.47756,-0.12822,0.9032,0.0957142857142858,0.365857142857143,-0.226571428571429,771.0718,0,0,1,1
24-May-2018 12:57:42,832,0.486733333333333,0.461733333333333,-0.704216666666667,-0.859428571428571,-1.26885714285714,0.297142857142857,92.258,-0.81255,-0.189725,-0.5598,-5.11625,17.284875,-25.6875,143.125,0.0679428571428571,-0.760685714285714,0.739871428571429,-4.118,-1.5106,-2.618,3.9744,0.477833333333333,-0.129516666666667,0.899133333333333,0.695,0.1098,0.7926,770.25975,1,1,1,1
24-May-2018 12:57:42,832,0.486733333333333,0.461733333333333,-0.704216666666667,-0.859428571428571,-1.26885714285714,0.297142857142857,92.258,-0.81255,-0.189725,-0.5598,-5.11625,17.284875,-25.6875,143.125,0.0679428571428571,-0.760685714285714,0.739871428571429,-4.118,-1.5106,-2.618,3.9744,0.477833333333333,-0.129516666666667,0.899133333333333,0.695,0.1098,0.7926,770.25975,1,1,1,1
24-May-2018 12:57:42,832,0.486733333333333,0.461733333333333,-0.704216666666667,-0.859428571428571,-1.26885714285714,0.297142857142857,92.258,-0.81255,-0.189725,-0.5598,-5.11625,17.284875,-25.6875,143.125,0.0679428571428571,-0.760685714285714,0.739871428571429,-4.118,-1.5106,-2.618,3.9744,0.477833333333333,-0.129516666666667,0.899133333333333,0.695,0.1098,0.7926,770.25975,1,1,1,1
24-May-2018 12:57:42,832,0.486733333333333,0.461733333333333,-0.704216666666667,-0.859428571428571,-1.26885714285714,0.297142857142857,92.258,-0.81255,-0.189725,-0.5598,-5.11625,17.284875,-25.6875,143.125,0.0679428571428571,-0.760685714285714,0.739871428571429,-4.118,-1.5106,-2.618,3.9744,0.477833333333333,-0.129516666666667,0.899133333333333,0.695,0.1098,0.7926,770.25975,1,1,1,1
24-May-2018 12:57:43,607.9,0.461942857142857,0.503571428571429,-0.689085714285714,0.115857142857143,-0.172285714285714,0.367714285714286,90.5073333333333,-0.74164,-0.17994,-0.6507,13.6448,12.219,-4.5818,143.125,0.0919142857142857,-0.782785714285714,0.7023,0.272571428571429,-1.12971428571429,0.0984285714285715,3.872,0.47655,-0.147133333333333,0.89815,-0.139571428571429,0.601142857142857,-0.104571428571429,770.62825,0,0,1,1
24-May-2018 12:57:43,607.9,0.461942857142857,0.503571428571429,-0.689085714285714,0.115857142857143,-0.172285714285714,0.367714285714286,90.5073333333333,-0.74164,-0.17994,-0.6507,13.6448,12.219,-4.5818,143.125,0.0919142857142857,-0.782785714285714,0.7023,0.272571428571429,-1.12971428571429,0.0984285714285715,3.872,0.47655,-0.147133333333333,0.89815,-0.139571428571429,0.601142857142857,-0.104571428571429,770.62825,0,0,1,1
24-May-2018 12:57:43,607.9,0.461942857142857,0.503571428571429,-0.689085714285714,0.115857142857143,-0.172285714285714,0.367714285714286,90.5073333333333,-0.74164,-0.17994,-0.6507,13.6448,12.219,-4.5818,143.125,0.0919142857142857,-0.782785714285714,0.7023,0.272571428571429,-1.12971428571429,0.0984285714285715,3.872,0.47655,-0.147133333333333,0.89815,-0.139571428571429,0.601142857142857,-0.104571428571429,770.62825,0,0,1,1
24-May-2018 12:57:43,607.9,0.461942857142857,0.503571428571429,-0.689085714285714,0.115857142857143,-0.172285714285714,0.367714285714286,90.5073333333333,-0.74164,-0.17994,-0.6507,13.6448,12.219,-4.5818,143.125,0.0919142857142857,-0.782785714285714,0.7023,0.272571428571429,-1.12971428571429,0.0984285714285715,3.872,0.47655,-0.147133333333333,0.89815,-0.139571428571429,0.601142857142857,-0.104571428571429,770.62825,0,0,1,1
24-May-2018 12:57:44,453.4,0.484,0.475928571428571,-0.702885714285714,4.50233333333333,1.42516666666667,0.599833333333333,92.08625,-0.73315,-0.24275,-0.69335,49.495,3.79575,45.0725,153.15025,0.0715666666666667,-0.7604,0.737533333333333,2.2684,-0.8152,1.1106,4.1382,0.465433333333333,-0.162716666666667,0.89865,6.14114285714286,1.71614285714286,0.383285714285714,770.638333333333,0,0,1,1
24-May-2018 12:57:44,453.4,0.484,0.475928571428571,-0.702885714285714,4.50233333333333,1.42516666666667,0.599833333333333,92.08625,-0.73315,-0.24275,-0.69335,49.495,3.79575,45.0725,153.15025,0.0715666666666667,-0.7604,0.737533333333333,2.2684,-0.8152,1.1106,4.1382,0.465433333333333,-0.162716666666667,0.89865,6.14114285714286,1.71614285714286,0.383285714285714,770.638333333333,0,0,1,1
24-May-2018 12:57:44,453.4,0.484,0.475928571428571,-0.702885714285714,4.50233333333333,1.42516666666667,0.599833333333333,92.08625,-0.73315,-0.24275,-0.69335,49.495,3.79575,45.0725,153.15025,0.0715666666666667,-0.7604,0.737533333333333,2.2684,-0.8152,1.1106,4.1382,0.465433333333333,-0.162716666666667,0.89865,6.14114285714286,1.71614285714286,0.383285714285714,770.638333333333,0,0,1,1
24-May-2018 12:57:44,453.4,0.484,0.475928571428571,-0.702885714285714,4.50233333333333,1.42516666666667,0.599833333333333,92.08625,-0.73315,-0.24275,-0.69335,49.495,3.79575,45.0725,153.15025,0.0715666666666667,-0.7604,0.737533333333333,2.2684,-0.8152,1.1106,4.1382,0.465433333333333,-0.162716666666667,0.89865,6.14114285714286,1.71614285714286,0.383285714285714,770.638333333333,0,0,1,1
24-May-2018 12:57:45,400,0.4850625,0.473575,-0.70185,-2.72822222222222,-1.11566666666667,-0.0518888888888889,91.848,-0.788625,-0.217175,-0.703675,64.2114285714286,26.5822857142857,83.4014285714286,156.492,0.0699666666666667,-0.758016666666667,0.74205,-2.57428571428571,-1.35728571428571,-1.34471428571429,4.0862,0.4714,0.0081,0.9227,-2.94442857142857,-2.41271428571429,-4.47742857142857,781.4565,0,0,1,1
24-May-2018 12:57:45,400,0.4850625,0.473575,-0.70185,-2.72822222222222,-1.11566666666667,-0.0518888888888889,91.848,-0.788625,-0.217175,-0.703675,64.2114285714286,26.5822857142857,83.4014285714286,156.492,0.0699666666666667,-0.758016666666667,0.74205,-2.57428571428571,-1.35728571428571,-1.34471428571429,4.0862,0.4714,0.0081,0.9227,-2.94442857142857,-2.41271428571429,-4.47742857142857,781.4565,0,0,1,1
24-May-2018 12:57:45,400,0.4850625,0.473575,-0.70185,-2.72822222222222,-1.11566666666667,-0.0518888888888889,91.848,-0.788625,-0.217175,-0.703675,64.2114285714286,26.5822857142857,83.4014285714286,156.492,0.0699666666666667,-0.758016666666667,0.74205,-2.57428571428571,-1.35728571428571,-1.34471428571429,4.0862,0.4714,0.0081,0.9227,-2.94442857142857,-2.41271428571429,-4.47742857142857,781.4565,0,0,1,1
24-May-2018 12:57:45,400,0.4850625,0.473575,-0.70185,-2.72822222222222,-1.11566666666667,-0.0518888888888889,91.848,-0.788625,-0.217175,-0.703675,64.2114285714286,26.5822857142857,83.4014285714286,156.492,0.0699666666666667,-0.758016666666667,0.74205,-2.57428571428571,-1.35728571428571,-1.34471428571429,4.0862,0.4714,0.0081,0.9227,-2.94442857142857,-2.41271428571429,-4.47742857142857,781.4565,0,0,1,1
24-May-2018 12:57:46,305.428571428571,0.468175,0.5083875,-0.69065,2.6305,0.367,0.694625,91.848,-0.77842,-0.05214,-0.6984,73.3966666666667,29.7177777777778,104.902222222222,156.492,0.08188,-0.77196,0.71874,0.445,0.32075,0.124625,3.731,0.463614285714286,-0.110457142857143,0.915957142857143,1.16883333333333,0.884166666666667,1.20933333333333,790.9075,0,0,1,1
24-May-2018 12:57:46,305.428571428571,0.468175,0.5083875,-0.69065,2.6305,0.367,0.694625,91.848,-0.77842,-0.05214,-0.6984,73.3966666666667,29.7177777777778,104.902222222222,156.492,0.08188,-0.77196,0.71874,0.445,0.32075,0.124625,3.731,0.463614285714286,-0.110457142857143,0.915957142857143,1.16883333333333,0.884166666666667,1.20933333333333,790.9075,0,0,1,1
24-May-2018 12:57:46,305.428571428571,0.468175,0.5083875,-0.69065,2.6305,0.367,0.694625,91.848,-0.77842,-0.05214,-0.6984,73.3966666666667,29.7177777777778,104.902222222222,156.492,0.08188,-0.77196,0.71874,0.445,0.32075,0.124625,3.731,0.463614285714286,-0.110457142857143,0.915957142857143,1.16883333333333,0.884166666666667,1.20933333333333,790.9075,0,0,1,1
24-May-2018 12:57:46,305.428571428571,0.468175,0.5083875,-0.69065,2.6305,0.367,0.694625,91.848,-0.77842,-0.05214,-0.6984,73.3966666666667,29.7177777777778,104.902222222222,156.492,0.08188,-0.77196,0.71874,0.445,0.32075,0.124625,3.731,0.463614285714286,-0.110457142857143,0.915957142857143,1.16883333333333,0.884166666666667,1.20933333333333,790.9075,0,0,1,1
24-May-2018 12:57:47,229.333333333333,0.488657142857143,0.469128571428571,-0.707585714285714,3.91266666666667,2.21566666666667,0.681166666666667,91.848,-0.756875,0.008175,-0.71545,81.2685714285714,16.3528571428571,119.671428571429,160.3,0.0618,-0.750166666666667,0.753183333333333,-0.713125,-0.209375,-0.234125,3.82933333333333,0.45825,-0.1175,0.91635,-0.264333333333333,0.406666666666667,0.0813333333333333,787.71,0,0,1,1
24-May-2018 12:57:47,229.333333333333,0.488657142857143,0.469128571428571,-0.707585714285714,3.91266666666667,2.21566666666667,0.681166666666667,91.848,-0.756875,0.008175,-0.71545,81.2685714285714,16.3528571428571,119.671428571429,160.3,0.0618,-0.750166666666667,0.753183333333333,-0.713125,-0.209375,-0.234125,3.82933333333333,0.45825,-0.1175,0.91635,-0.264333333333333,0.406666666666667,0.0813333333333333,787.71,0,0,1,1
24-May-2018 12:57:47,229.333333333333,0.488657142857143,0.469128571428571,-0.707585714285714,3.91266666666667,2.21566666666667,0.681166666666667,91.848,-0.756875,0.008175,-0.71545,81.2685714285714,16.3528571428571,119.671428571429,160.3,0.0618,-0.750166666666667,0.753183333333333,-0.713125,-0.209375,-0.234125,3.82933333333333,0.45825,-0.1175,0.91635,-0.264333333333333,0.406666666666667,0.0813333333333333,787.71,0,0,1,1
24-May-2018 12:57:47,229.333333333333,0.488657142857143,0.469128571428571,-0.707585714285714,3.91266666666667,2.21566666666667,0.681166666666667,91.848,-0.756875,0.008175,-0.71545,81.2685714285714,16.3528571428571,119.671428571429,160.3,0.0618,-0.750166666666667,0.753183333333333,-0.713125,-0.209375,-0.234125,3.82933333333333,0.45825,-0.1175,0.91635,-0.264333333333333,0.406666666666667,0.0813333333333333,787.71,0,0,1,1
24-May-2018 12:57:48,6,0.4992,0.455644444444444,-0.704822222222222,0.306777777777778,1.14622222222222,0.333888888888889,91.848,-0.681375,0.122125,-0.753325,70.6666666666667,-1.311,89.9522222222222,162.204,0.0890857142857143,-0.779385714285714,0.710628571428571,-4.32333333333333,-0.961666666666667,-3.155,3.7718,0.459725,-0.1351875,0.9105,-0.6175,0.44975,0.297375,787.451,0,0,1,1
24-May-2018 12:57:48,6,0.4992,0.455644444444444,-0.704822222222222,0.306777777777778,1.14622222222222,0.333888888888889,91.848,-0.681375,0.122125,-0.753325,70.6666666666667,-1.311,89.9522222222222,162.204,0.0890857142857143,-0.779385714285714,0.710628571428571,-4.32333333333333,-0.961666666666667,-3.155,3.7718,0.459725,-0.1351875,0.9105,-0.6175,0.44975,0.297375,787.451,0,0,1,1
24-May-2018 12:57:48,6,0.4992,0.455644444444444,-0.704822222222222,0.306777777777778,1.14622222222222,0.333888888888889,91.848,-0.681375,0.122125,-0.753325,70.6666666666667,-1.311,89.9522222222222,162.204,0.0890857142857143,-0.779385714285714,0.710628571428571,-4.32333333333333,-0.961666666666667,-3.155,3.7718,0.459725,-0.1351875,0.9105,-0.6175,0.44975,0.297375,787.451,0,0,1,1
24-May-2018 12:57:48,6,0.4992,0.455644444444444,-0.704822222222222,0.306777777777778,1.14622222222222,0.333888888888889,91.848,-0.681375,0.122125,-0.753325,70.6666666666667,-1.311,89.9522222222222,162.204,0.0890857142857143,-0.779385714285714,0.710628571428571,-4.32333333333333,-0.961666666666667,-3.155,3.7718,0.459725,-0.1351875,0.9105,-0.6175,0.44975,0.297375,787.451,0,0,1,1
24-May-2018 12:57:49,-586.2,0.4853,0.485285714285714,-0.693642857142857,-2.91316666666667,-1.66666666666667,-0.180833333333333,92.489,-0.644725,0.0975,-0.81695,54.9575,20.716625,59.78375,158.625,0.08275,-0.775475,0.713275,3.23171428571429,-0.962428571428571,1.85528571428571,3.5574,0.459683333333333,-0.139866666666667,0.911266666666667,0.853857142857143,0.958428571428571,-0.244,785.375666666667,1,1,1,1
24-May-2018 12:57:49,-586.2,0.4853,0.485285714285714,-0.693642857142857,-2.91316666666667,-1.66666666666667,-0.180833333333333,92.489,-0.644725,0.0975,-0.81695,54.9575,20.716625,59.78375,158.625,0.08275,-0.775475,0.713275,3.23171428571429,-0.962428571428571,1.85528571428571,3.5574,0.459683333333333,-0.139866666666667,0.911266666666667,0.853857142857143,0.958428571428571,-0.244,785.375666666667,1,1,1,1
24-May-2018 12:57:49,-586.2,0.4853,0.485285714285714,-0.693642857142857,-2.91316666666667,-1.66666666666667,-0.180833333333333,92.489,-0.644725,0.0975,-0.81695,54.9575,20.716625,59.78375,158.625,0.08275,-0.775475,0.713275,3.23171428571429,-0.962428571428571,1.85528571428571,3.5574,0.459683333333333,-0.139866666666667,0.911266666666667,0.853857142857143,0.958428571428571,-0.244,785.375666666667,1,1,1,1
24-May-2018 12:57:49,-586.2,0.4853,0.485285714285714,-0.693642857142857,-2.91316666666667,-1.66666666666667,-0.180833333333333,92.489,-0.644725,0.0975,-0.81695,54.9575,20.716625,59.78375,158.625,0.08275,-0.775475,0.713275,3.23171428571429,-0.962428571428571,1.85528571428571,3.5574,0.459683333333333,-0.139866666666667,0.911266666666667,0.853857142857143,0.958428571428571,-0.244,785.375666666667,1,1,1,1
24-May-2018 12:57:50,-932.285714285714,0.4794,0.4794,-0.6973,7.3475,2.835,1.616,92.489,-0.6107,0.136,-0.9716,27.345,29.63,51.58,155.046,0.0701,-0.756466666666667,0.7448,3.23171428571429,-0.962428571428571,1.85528571428571,3.816,0.4509,-0.1543,0.8959,-2.8355,-0.244,0.305,787.297,0,0,1,1
24-May-2018 12:57:50,-932.285714285714,0.4794,0.4794,-0.6973,7.3475,2.835,1.616,92.489,-0.6107,0.136,-0.9716,27.345,29.63,51.58,155.046,0.0701,-0.756466666666667,0.7448,3.23171428571429,-0.962428571428571,1.85528571428571,3.816,0.4509,-0.1543,0.8959,-2.8355,-0.244,0.305,787.297,0,0,1,1
24-May-2018 12:57:50,-932.285714285714,0.4794,0.4794,-0.6973,7.3475,2.835,1.616,92.489,-0.6107,0.136,-0.9716,27.345,29.63,51.58,155.046,0.0701,-0.756466666666667,0.7448,3.23171428571429,-0.962428571428571,1.85528571428571,3.816,0.4509,-0.1543,0.8959,-2.8355,-0.244,0.305,787.297,0,0,1,1
24-May-2018 12:57:50,-932.285714285714,0.4794,0.4794,-0.6973,7.3475,2.835,1.616,92.489,-0.6107,0.136,-0.9716,27.345,29.63,51.58,155.046,0.0701,-0.756466666666667,0.7448,0,0,0,3.816,0.4509,-0.1543,0.8959,-2.8355,-0.244,0.305,787.297,0,0,1,1
24-May-2018 12:57:51,590.7,0.492475,0.4609,-0.7061,3.47566666666667,1.58833333333333,0.164,92.55,-0.518025,0.152325,-0.941225,34.7085714285714,-5.00971428571429,46.24,155.046,0.0609333333333333,-0.749533333333333,0.7521,-0.906222222222222,-0.411111111111111,-0.688,3.884,0.455975,-0.1374,0.914225,0.6405,0.22875,-0.10675,787.63425,0,0,1,1
24-May-2018 12:57:51,590.7,0.492475,0.4609,-0.7061,3.47566666666667,1.58833333333333,0.164,92.55,-0.518025,0.152325,-0.941225,34.7085714285714,-5.00971428571429,46.24,155.046,0.0609333333333333,-0.749533333333333,0.7521,-0.906222222222222,-0.411111111111111,-0.688,3.884,0.455975,-0.1374,0.914225,0.6405,0.22875,-0.10675,787.63425,0,0,1,1
24-May-2018 12:57:51,590.7,0.492475,0.4609,-0.7061,3.47566666666667,1.58833333333333,0.164,92.55,-0.518025,0.152325,-0.941225,34.7085714285714,-5.00971428571429,46.24,155.046,0.0609333333333333,-0.749533333333333,0.7521,-0.906222222222222,-0.411111111111111,-0.688,3.884,0.455975,-0.1374,0.914225,0.6405,0.22875,-0.10675,787.63425,0,0,1,1
24-May-2018 12:57:51,590.7,0.492475,0.4609,-0.7061,3.47566666666667,1.58833333333333,0.164,92.55,-0.518025,0.152325,-0.941225,34.7085714285714,-5.00971428571429,46.24,155.046,0.0609333333333333,-0.749533333333333,0.7521,-0.906222222222222,-0.411111111111111,-0.688,3.884,0.455975,-0.1374,0.914225,0.6405,0.22875,-0.10675,787.63425,0,0,1,1
24-May-2018 12:57:52,356.666666666667,0.488371428571429,0.465085714285714,-0.7066,-1.70475,-1.345625,0.0105,93.0585,-0.49525,0.0981,-0.90805,32.0675,-7.352,27.145,157.07025,0.0754666666666667,-0.768316666666667,0.727866666666667,-4.496,-1.348,-2.604,3.72266666666667,0.45934,-0.14708,0.91386,-0.108444444444444,0.393111111111111,0.237222222222222,787.185,1,1,1,1
24-May-2018 12:57:52,356.666666666667,0.488371428571429,0.465085714285714,-0.7066,-1.70475,-1.345625,0.0105,93.0585,-0.49525,0.0981,-0.90805,32.0675,-7.352,27.145,157.07025,0.0754666666666667,-0.768316666666667,0.727866666666667,-4.496,-1.348,-2.604,3.72266666666667,0.45934,-0.14708,0.91386,-0.108444444444444,0.393111111111111,0.237222222222222,787.185,1,1,1,1
24-May-2018 12:57:52,356.666666666667,0.488371428571429,0.465085714285714,-0.7066,-1.70475,-1.345625,0.0105,93.0585,-0.49525,0.0981,-0.90805,32.0675,-7.352,27.145,157.07025,0.0754666666666667,-0.768316666666667,0.727866666666667,-4.496,-1.348,-2.604,3.72266666666667,0.45934,-0.14708,0.91386,-0.108444444444444,0.393111111111111,0.237222222222222,787.185,1,1,1,1
24-May-2018 12:57:52,356.666666666667,0.488371428571429,0.465085714285714,-0.7066,-1.70475,-1.345625,0.0105,93.0585,-0.49525,0.0981,-0.90805,32.0675,-7.352,27.145,157.07025,0.0754666666666667,-0.768316666666667,0.727866666666667,-4.496,-1.348,-2.604,3.72266666666667,0.45934,-0.14708,0.91386,-0.108444444444444,0.393111111111111,0.237222222222222,787.185,1,1,1,1
24-May-2018 12:57:53,-66.875,0.463416666666667,0.510083333333333,-0.690983333333333,-1.16633333333333,-1.22683333333333,0.0618333333333333,91.09975,-0.51264,0.0794,-0.92338,24.6375,-7.45375,2.463125,163.143,0.0941714285714286,-0.782457142857143,0.702957142857143,1.3052,-0.922,1.122,3.65133333333333,0.45905,-0.145883333333333,0.92715,2.0366,-0.3168,-0.805,787.04125,0,0,1,1
24-May-2018 12:57:53,-66.875,0.463416666666667,0.510083333333333,-0.690983333333333,-1.16633333333333,-1.22683333333333,0.0618333333333333,91.09975,-0.51264,0.0794,-0.92338,24.6375,-7.45375,2.463125,163.143,0.0941714285714286,-0.782457142857143,0.702957142857143,1.3052,-0.922,1.122,3.65133333333333,0.45905,-0.145883333333333,0.92715,2.0366,-0.3168,-0.805,787.04125,0,0,1,1
24-May-2018 12:57:53,-66.875,0.463416666666667,0.510083333333333,-0.690983333333333,-1.16633333333333,-1.22683333333333,0.0618333333333333,91.09975,-0.51264,0.0794,-0.92338,24.6375,-7.45375,2.463125,163.143,0.0941714285714286,-0.782457142857143,0.702957142857143,1.3052,-0.922,1.122,3.65133333333333,0.45905,-0.145883333333333,0.92715,2.0366,-0.3168,-0.805,787.04125,0,0,1,1
24-May-2018 12:57:53,-66.875,0.463416666666667,0.510083333333333,-0.690983333333333,-1.16633333333333,-1.22683333333333,0.0618333333333333,91.09975,-0.51264,0.0794,-0.92338,24.6375,-7.45375,2.463125,163.143,0.0941714285714286,-0.782457142857143,0.702957142857143,1.3052,-0.922,1.122,3.65133333333333,0.45905,-0.145883333333333,0.92715,2.0366,-0.3168,-0.805,787.04125,0,0,1,1
24-May-2018 12:57:54,461.625,0.4815625,0.47725,-0.702475,4.32942857142857,1.90785714285714,0.731857142857143,91.523,-0.586275,0.023525,-0.940375,35.2455555555556,2.528,-0.857444444444444,163.143,0.06625,-0.750883333333333,0.7535,0.445285714285714,-0.686714285714286,0.455285714285714,3.762,0.4796625,-0.132425,0.8952375,1.06716666666667,1.02633333333333,0.315,775.8995,0,0,1,1
24-May-2018 12:57:54,461.625,0.4815625,0.47725,-0.702475,4.32942857142857,1.90785714285714,0.731857142857143,91.523,-0.586275,0.023525,-0.940375,35.2455555555556,2.528,-0.857444444444444,163.143,0.06625,-0.750883333333333,0.7535,0.445285714285714,-0.686714285714286,0.455285714285714,3.762,0.4796625,-0.132425,0.8952375,1.06716666666667,1.02633333333333,0.315,775.8995,0,0,1,1
24-May-2018 12:57:54,461.625,0.4815625,0.47725,-0.702475,4.32942857142857,1.90785714285714,0.731857142857143,91.523,-0.586275,0.023525,-0.940375,35.2455555555556,2.528,-0.857444444444444,163.143,0.06625,-0.750883333333333,0.7535,0.445285714285714,-0.686714285714286,0.455285714285714,3.762,0.4796625,-0.132425,0.8952375,1.06716666666667,1.02633333333333,0.315,775.8995,0,0,1,1
24-May-2018 12:57:54,461.625,0.4815625,0.47725,-0.702475,4.32942857142857,1.90785714285714,0.731857142857143,91.523,-0.586275,0.023525,-0.940375,35.2455555555556,2.528,-0.857444444444444,163.143,0.06625,-0.750883333333333,0.7535,0.445285714285714,-0.686714285714286,0.455285714285714,3.762,0.4796625,-0.132425,0.8952375,1.06716666666667,1.02633333333333,0.315,775.8995,0,0,1,1
24-May-2018 12:57:55,345.9,0.492671428571429,0.450242857142857,-0.710171428571429,1.02814285714286,0.315428571428571,0.618714285714286,92.80675,-0.65752,-0.10582,-0.8213,23.6992,-3.0093,-0.0884999999999999,163.143,0.0825,-0.768457142857143,0.725128571428571,-2.24166666666667,-0.739166666666667,-1.46916666666667,3.8938,0.456775,-0.1739,0.917875,-4.3295,2.0885,2.65225,788.2215,0,0,1,1
24-May-2018 12:57:55,345.9,0.492671428571429,0.450242857142857,-0.710171428571429,1.02814285714286,0.315428571428571,0.618714285714286,92.80675,-0.65752,-0.10582,-0.8213,23.6992,-3.0093,-0.0884999999999999,163.143,0.0825,-0.768457142857143,0.725128571428571,-2.24166666666667,-0.739166666666667,-1.46916666666667,3.8938,0.456775,-0.1739,0.917875,-4.3295,2.0885,2.65225,788.2215,0,0,1,1
24-May-2018 12:57:55,345.9,0.492671428571429,0.450242857142857,-0.710171428571429,1.02814285714286,0.315428571428571,0.618714285714286,92.80675,-0.65752,-0.10582,-0.8213,23.6992,-3.0093,-0.0884999999999999,163.143,0.0825,-0.768457142857143,0.725128571428571,-2.24166666666667,-0.739166666666667,-1.46916666666667,3.8938,0.456775,-0.1739,0.917875,-4.3295,2.0885,2.65225,788.2215,0,0,1,1
24-May-2018 12:57:55,345.9,0.492671428571429,0.450242857142857,-0.710171428571429,1.02814285714286,0.315428571428571,0.618714285714286,92.80675,-0.65752,-0.10582,-0.8213,23.6992,-3.0093,-0.0884999999999999,163.143,0.0825,-0.768457142857143,0.725128571428571,-2.24166666666667,-0.739166666666667,-1.46916666666667,3.8938,0.456775,-0.1739,0.917875,-4.3295,2.0885,2.65225,788.2215,0,0,1,1
24-May-2018 12:57:56,-255.4,0.4719125,0.490725,-0.6988375,-3.46375,-1.895,-0.25425,92.348,-0.64064,-0.15668,-0.78468,-4.42477777777778,-8.50788888888889,-7.28433333333333,159.745,0.0757,-0.761175,0.7361625,2.6102,0.1726,1.3656,3.9946,0.429175,-0.064725,0.90835,23.3638333333333,1.626,-0.558833333333333,795.0525,0,0,1,1
24-May-2018 12:57:56,-255.4,0.4719125,0.490725,-0.6988375,-3.46375,-1.895,-0.25425,92.348,-0.64064,-0.15668,-0.78468,-4.42477777777778,-8.50788888888889,-7.28433333333333,159.745,0.0757,-0.761175,0.7361625,2.6102,0.1726,1.3656,3.9946,0.429175,-0.064725,0.90835,23.3638333333333,1.626,-0.558833333333333,795.0525,0,0,1,1
24-May-2018 12:57:56,-255.4,0.4719125,0.490725,-0.6988375,-3.46375,-1.895,-0.25425,92.348,-0.64064,-0.15668,-0.78468,-4.42477777777778,-8.50788888888889,-7.28433333333333,159.745,0.0757,-0.761175,0.7361625,2.6102,0.1726,1.3656,3.9946,0.429175,-0.064725,0.90835,23.3638333333333,1.626,-0.558833333333333,795.0525,0,0,1,1
24-May-2018 12:57:56,-255.4,0.4719125,0.490725,-0.6988375,-3.46375,-1.895,-0.25425,92.348,-0.64064,-0.15668,-0.78468,-4.42477777777778,-8.50788888888889,-7.28433333333333,159.745,0.0757,-0.761175,0.7361625,2.6102,0.1726,1.3656,3.9946,0.429175,-0.064725,0.90835,23.3638333333333,1.626,-0.558833333333333,795.0525,0,0,1,1
24-May-2018 12:57:57,-2048,0.467344444444444,0.497877777777778,-0.697911111111111,4.877875,2.019875,0.808125,92.348,-0.5943,-0.09315,-0.805675,0.503555555555556,-14.6722222222222,17.7271111111111,159.745,0.0754,-0.75365,0.73805,-1.612125,-0.798375,-1.6195,3.9922,0.44638,-0.09458,0.91938,-3.98957142857143,0.418,0.714428571428571,796.3695,0,0,1,1
24-May-2018 12:57:57,-2048,0.467344444444444,0.497877777777778,-0.697911111111111,4.877875,2.019875,0.808125,92.348,-0.5943,-0.09315,-0.805675,0.503555555555556,-14.6722222222222,17.7271111111111,159.745,0.0754,-0.75365,0.73805,-1.612125,-0.798375,-1.6195,3.9922,0.44638,-0.09458,0.91938,-3.98957142857143,0.418,0.714428571428571,796.3695,0,0,1,1
24-May-2018 12:57:57,-2048,0.467344444444444,0.497877777777778,-0.697911111111111,4.877875,2.019875,0.808125,92.348,-0.5943,-0.09315,-0.805675,0.503555555555556,-14.6722222222222,17.7271111111111,159.745,0.0754,-0.75365,0.73805,-1.612125,-0.798375,-1.6195,3.9922,0.44638,-0.09458,0.91938,-3.98957142857143,0.418,0.714428571428571,796.3695,0,0,1,1
24-May-2018 12:57:57,-2048,0.467344444444444,0.497877777777778,-0.697911111111111,4.877875,2.019875,0.808125,92.348,-0.5943,-0.09315,-0.805675,0.503555555555556,-14.6722222222222,17.7271111111111,159.745,0.0754,-0.75365,0.73805,-1.612125,-0.798375,-1.6195,3.9922,0.44638,-0.09458,0.91938,-3.98957142857143,0.418,0.714428571428571,796.3695,0,0,1,1
24-May-2018 12:57:58,-2048,0.48885,0.454183333333333,-0.710616666666667,2.56133333333333,0.732833333333333,0.234666666666667,92.348,-0.621025,-0.0896,-0.8185,13.6422222222222,-6.58255555555555,41.7433333333333,157.385666666667,0.0950166666666667,-0.77265,0.714633333333333,1.0065,-1.2675,0.854,3.942,0.45085,-0.0905,0.9285,-0.315,0.5995,0.640333333333333,793.711,0,0,1,1
24-May-2018 12:57:58,-2048,0.48885,0.454183333333333,-0.710616666666667,2.56133333333333,0.732833333333333,0.234666666666667,92.348,-0.621025,-0.0896,-0.8185,13.6422222222222,-6.58255555555555,41.7433333333333,157.385666666667,0.0950166666666667,-0.77265,0.714633333333333,1.0065,-1.2675,0.854,3.942,0.45085,-0.0905,0.9285,-0.315,0.5995,0.640333333333333,793.711,0,0,1,1
24-May-2018 12:57:58,-2048,0.48885,0.454183333333333,-0.710616666666667,2.56133333333333,0.732833333333333,0.234666666666667,92.348,-0.621025,-0.0896,-0.8185,13.6422222222222,-6.58255555555555,41.7433333333333,157.385666666667,0.0950166666666667,-0.77265,0.714633333333333,1.0065,-1.2675,0.854,3.942,0.45085,-0.0905,0.9285,-0.315,0.5995,0.640333333333333,793.711,0,0,1,1
24-May-2018 12:57:58,-2048,0.48885,0.454183333333333,-0.710616666666667,2.56133333333333,0.732833333333333,0.234666666666667,92.348,-0.621025,-0.0896,-0.8185,13.6422222222222,-6.58255555555555,41.7433333333333,157.385666666667,0.0950166666666667,-0.77265,0.714633333333333,1.0065,-1.2675,0.854,3.942,0.45085,-0.0905,0.9285,-0.315,0.5995,0.640333333333333,793.711,0,0,1,1
24-May-2018 12:57:59,-285.571428571429,0.487111111111111,0.465477777777778,-0.704422222222222,-2.342125,-0.8825,-0.021125,92.348,-0.72472,-0.05116,-0.87558,0.240555555555556,10.6891111111111,34.0744444444444,152.667,0.0654666666666667,-0.746516666666667,0.75965,1.19514285714286,-0.574285714285714,0.984428571428571,4.1195,0.448116666666667,-0.0880333333333333,0.930816666666667,-0.3965,0.44225,-0.57925,793.342,1,1,1,1
24-May-2018 12:57:59,-285.571428571429,0.487111111111111,0.465477777777778,-0.704422222222222,-2.342125,-0.8825,-0.021125,92.348,-0.72472,-0.05116,-0.87558,0.240555555555556,10.6891111111111,34.0744444444444,152.667,0.0654666666666667,-0.746516666666667,0.75965,1.19514285714286,-0.574285714285714,0.984428571428571,4.1195,0.448116666666667,-0.0880333333333333,0.930816666666667,-0.3965,0.44225,-0.57925,793.342,1,1,1,1
24-May-2018 12:57:59,-285.571428571429,0.487111111111111,0.465477777777778,-0.704422222222222,-2.342125,-0.8825,-0.021125,92.348,-0.72472,-0.05116,-0.87558,0.240555555555556,10.6891111111111,34.0744444444444,152.667,0.0654666666666667,-0.746516666666667,0.75965,1.19514285714286,-0.574285714285714,0.984428571428571,4.1195,0.448116666666667,-0.0880333333333333,0.930816666666667,-0.3965,0.44225,-0.57925,793.342,1,1,1,1
24-May-2018 12:57:59,-285.571428571429,0.487111111111111,0.465477777777778,-0.704422222222222,-2.342125,-0.8825,-0.021125,92.348,-0.72472,-0.05116,-0.87558,0.240555555555556,10.6891111111111,34.0744444444444,152.667,0.0654666666666667,-0.746516666666667,0.75965,1.19514285714286,-0.574285714285714,0.984428571428571,4.1195,0.448116666666667,-0.0880333333333333,0.930816666666667,-0.3965,0.44225,-0.57925,793.342,1,1,1,1
24-May-2018 12:58:00,1181.875,0.47596,0.48564,-0.69526,2.250625,1.20575,0.572625,91.2665,-0.70444,0.16722,-0.73388,-13.2006666666667,5.76011111111111,23.2744444444444,152.667,0.0768,-0.758575,0.738375,-4.285,-0.666833333333333,-3.005,4.0795,0.44305,-0.09785,0.91835,-2.26485714285714,1.34142857142857,1.13257142857143,793.556,0,0,1,1
24-May-2018 12:58:00,1181.875,0.47596,0.48564,-0.69526,2.250625,1.20575,0.572625,91.2665,-0.70444,0.16722,-0.73388,-13.2006666666667,5.76011111111111,23.2744444444444,152.667,0.0768,-0.758575,0.738375,-4.285,-0.666833333333333,-3.005,4.0795,0.44305,-0.09785,0.91835,-2.26485714285714,1.34142857142857,1.13257142857143,793.556,0,0,1,1
24-May-2018 12:58:00,1181.875,0.47596,0.48564,-0.69526,2.250625,1.20575,0.572625,91.2665,-0.70444,0.16722,-0.73388,-13.2006666666667,5.76011111111111,23.2744444444444,152.667,0.0768,-0.758575,0.738375,-4.285,-0.666833333333333,-3.005,4.0795,0.44305,-0.09785,0.91835,-2.26485714285714,1.34142857142857,1.13257142857143,793.556,0,0,1,1
24-May-2018 12:58:00,1181.875,0.47596,0.48564,-0.69526,2.250625,1.20575,0.572625,91.2665,-0.70444,0.16722,-0.73388,-13.2006666666667,5.76011111111111,23.2744444444444,152.667,0.0768,-0.758575,0.738375,-4.285,-0.666833333333333,-3.005,4.0795,0.44305,-0.09785,0.91835,-2.26485714285714,1.34142857142857,1.13257142857143,793.556,0,0,1,1
24-May-2018 12:58:01,2034.11111111111,0.49736,0.45836,-0.7095,1.64683333333333,0.845166666666667,0.500166666666667,93.2268,-0.716375,0.1651,-0.77445,29.2144444444444,-12.8532222222222,25.5588888888889,153.163,0.09016,-0.7737,0.71438,4.492,0.306,2.45933333333333,3.87075,0.4506,-0.093425,0.926775,0.589333333333333,-0.122,0.579166666666667,792.463333333333,0,0,1,1
24-May-2018 12:58:01,2034.11111111111,0.49736,0.45836,-0.7095,1.64683333333333,0.845166666666667,0.500166666666667,93.2268,-0.716375,0.1651,-0.77445,29.2144444444444,-12.8532222222222,25.5588888888889,153.163,0.09016,-0.7737,0.71438,4.492,0.306,2.45933333333333,3.87075,0.4506,-0.093425,0.926775,0.589333333333333,-0.122,0.579166666666667,792.463333333333,0,0,1,1
24-May-2018 12:58:01,2034.11111111111,0.49736,0.45836,-0.7095,1.64683333333333,0.845166666666667,0.500166666666667,93.2268,-0.716375,0.1651,-0.77445,29.2144444444444,-12.8532222222222,25.5588888888889,153.163,0.09016,-0.7737,0.71438,4.492,0.306,2.45933333333333,3.87075,0.4506,-0.093425,0.926775,0.589333333333333,-0.122,0.579166666666667,792.463333333333,0,0,1,1
24-May-2018 12:58:01,2034.11111111111,0.49736,0.45836,-0.7095,1.64683333333333,0.845166666666667,0.500166666666667,93.2268,-0.716375,0.1651,-0.77445,29.2144444444444,-12.8532222222222,25.5588888888889,153.163,0.09016,-0.7737,0.71438,4.492,0.306,2.45933333333333,3.87075,0.4506,-0.093425,0.926775,0.589333333333333,-0.122,0.579166666666667,792.463333333333,0,0,1,1
24-May-2018 12:58:02,1641.88888888889,0.4909625,0.4703625,-0.6949625,-3.4005,-0.0285,-0.566,93.7226666666667,-0.64315,0.13465,-0.741975,17.822,-22.3,6.40266666666666,153.659,0.06256,-0.74606,0.7596,0.559833333333334,-0.576333333333333,0.4375,3.9375,0.45005,-0.094825,0.92215,0.843333333333333,-1.85037170770859e-17,-0.609833333333333,791.775666666667,0,0,1,1
24-May-2018 12:58:02,1641.88888888889,0.4909625,0.4703625,-0.6949625,-3.4005,-0.0285,-0.566,93.7226666666667,-0.64315,0.13465,-0.741975,17.822,-22.3,6.40266666666666,153.659,0.06256,-0.74606,0.7596,0.559833333333334,-0.576333333333333,0.4375,3.9375,0.45005,-0.094825,0.92215,0.843333333333333,-1.85037170770859e-17,-0.609833333333333,791.775666666667,0,0,1,1
24-May-2018 12:58:02,1641.88888888889,0.4909625,0.4703625,-0.6949625,-3.4005,-0.0285,-0.566,93.7226666666667,-0.64315,0.13465,-0.741975,17.822,-22.3,6.40266666666666,153.659,0.06256,-0.74606,0.7596,0.559833333333334,-0.576333333333333,0.4375,3.9375,0.45005,-0.094825,0.92215,0.843333333333333,-1.85037170770859e-17,-0.609833333333333,791.775666666667,0,0,1,1
24-May-2018 12:58:02,1641.88888888889,0.4909625,0.4703625,-0.6949625,-3.4005,-0.0285,-0.566,93.7226666666667,-0.64315,0.13465,-0.741975,17.822,-22.3,6.40266666666666,153.659,0.06256,-0.74606,0.7596,0.559833333333334,-0.576333333333333,0.4375,3.9375,0.45005,-0.094825,0.92215,0.843333333333333,-1.85037170770859e-17,-0.609833333333333,791.775666666667,0,0,1,1
24-May-2018 12:58:03,1232.28571428571,0.484516666666667,0.4812,-0.695383333333333,3.04085714285714,0.969571428571429,0.767285714285714,91.17625,-0.67054,0.12122,-0.76962,5.39144444444444,-2.92433333333333,-15.8355555555556,153.659,0.0758166666666667,-0.75995,0.737483333333333,-3.766,-0.5588,-2.422,3.99933333333333,0.46055,-0.095025,0.91165,-0.1675,-0.79275,0.36575,788.4535,1,1,1,1
24-May-2018 12:58:03,1232.28571428571,0.484516666666667,0.4812,-0.695383333333333,3.04085714285714,0.969571428571429,0.767285714285714,91.17625,-0.67054,0.12122,-0.76962,5.39144444444444,-2.92433333333333,-15.8355555555556,153.659,0.0758166666666667,-0.75995,0.737483333333333,-3.766,-0.5588,-2.422,3.99933333333333,0.46055,-0.095025,0.91165,-0.1675,-0.79275,0.36575,788.4535,1,1,1,1
24-May-2018 12:58:03,1232.28571428571,0.484516666666667,0.4812,-0.695383333333333,3.04085714285714,0.969571428571429,0.767285714285714,91.17625,-0.67054,0.12122,-0.76962,5.39144444444444,-2.92433333333333,-15.8355555555556,153.659,0.0758166666666667,-0.75995,0.737483333333333,-3.766,-0.5588,-2.422,3.99933333333333,0.46055,-0.095025,0.91165,-0.1675,-0.79275,0.36575,788.4535,1,1,1,1
24-May-2018 12:58:03,1232.28571428571,0.484516666666667,0.4812,-0.695383333333333,3.04085714285714,0.969571428571429,0.767285714285714,91.17625,-0.67054,0.12122,-0.76962,5.39144444444444,-2.92433333333333,-15.8355555555556,153.659,0.0758166666666667,-0.75995,0.737483333333333,-3.766,-0.5588,-2.422,3.99933333333333,0.46055,-0.095025,0.91165,-0.1675,-0.79275,0.36575,788.4535,1,1,1,1
24-May-2018 12:58:04,930,0.5056375,0.451375,-0.70275,0.584571428571429,0.133,0.218285714285714,93.6653333333333,-0.79282,0.03072,-0.89584,25.3544444444444,13.0811111111111,-14.3298888888889,144.723,0.0938666666666667,-0.77895,0.71085,0.928,-0.4484,0.5136,3.83333333333333,0.440011111111111,-0.109488888888889,0.9268,5.01016666666667,1.85966666666667,0.8435,788.4535,0,0,1,1
24-May-2018 12:58:04,930,0.5056375,0.451375,-0.70275,0.584571428571429,0.133,0.218285714285714,93.6653333333333,-0.79282,0.03072,-0.89584,25.3544444444444,13.0811111111111,-14.3298888888889,144.723,0.0938666666666667,-0.77895,0.71085,0.928,-0.4484,0.5136,3.83333333333333,0.440011111111111,-0.109488888888889,0.9268,5.01016666666667,1.85966666666667,0.8435,788.4535,0,0,1,1
24-May-2018 12:58:04,930,0.5056375,0.451375,-0.70275,0.584571428571429,0.133,0.218285714285714,93.6653333333333,-0.79282,0.03072,-0.89584,25.3544444444444,13.0811111111111,-14.3298888888889,144.723,0.0938666666666667,-0.77895,0.71085,0.928,-0.4484,0.5136,3.83333333333333,0.440011111111111,-0.109488888888889,0.9268,5.01016666666667,1.85966666666667,0.8435,788.4535,0,0,1,1
24-May-2018 12:58:04,930,0.5056375,0.451375,-0.70275,0.584571428571429,0.133,0.218285714285714,93.6653333333333,-0.79282,0.03072,-0.89584,25.3544444444444,13.0811111111111,-14.3298888888889,144.723,0.0938666666666667,-0.77895,0.71085,0.928,-0.4484,0.5136,3.83333333333333,0.440011111111111,-0.109488888888889,0.9268,5.01016666666667,1.85966666666667,0.8435,0,0,0,1,1
24-May-2018 12:58:05,679.777777777778,0.481057142857143,0.483185714285714,-0.697571428571429,-1.443,-1.96428571428571,-0.240714285714286,93.0613333333333,-0.694975,-0.098475,-0.6249,33.2811111111111,14.3497777777778,-0.575111111111111,135.787,0.0709857142857143,-0.757928571428572,0.742671428571429,-0.27375,0.07725,-0.22675,3.8906,0.42982,-0.0815,0.93438,0.67075,0.5185,0.0915,796.337,0,0,1,1
24-May-2018 12:58:05,679.777777777778,0.481057142857143,0.483185714285714,-0.697571428571429,-1.443,-1.96428571428571,-0.240714285714286,93.0613333333333,-0.694975,-0.098475,-0.6249,33.2811111111111,14.3497777777778,-0.575111111111111,135.787,0.0709857142857143,-0.757928571428572,0.742671428571429,-0.27375,0.07725,-0.22675,3.8906,0.42982,-0.0815,0.93438,0.67075,0.5185,0.0915,796.337,0,0,1,1
24-May-2018 12:58:05,679.777777777778,0.481057142857143,0.483185714285714,-0.697571428571429,-1.443,-1.96428571428571,-0.240714285714286,93.0613333333333,-0.694975,-0.098475,-0.6249,33.2811111111111,14.3497777777778,-0.575111111111111,135.787,0.0709857142857143,-0.757928571428572,0.742671428571429,-0.27375,0.07725,-0.22675,3.8906,0.42982,-0.0815,0.93438,0.67075,0.5185,0.0915,796.337,0,0,1,1
24-May-2018 12:58:05,679.777777777778,0.481057142857143,0.483185714285714,-0.697571428571429,-1.443,-1.96428571428571,-0.240714285714286,93.0613333333333,-0.694975,-0.098475,-0.6249,33.2811111111111,14.3497777777778,-0.575111111111111,135.787,0.0709857142857143,-0.757928571428572,0.742671428571429,-0.27375,0.07725,-0.22675,3.8906,0.42982,-0.0815,0.93438,0.67075,0.5185,0.0915,796.337,0,0,1,1
24-May-2018 12:58:06,493.2,0.482316666666667,0.463933333333333,-0.710183333333333,5.061,2.857,0.8945,91.932,-0.744875,-0.14855,-0.702425,-15.3271111111111,-24.6913333333333,-16.334,135.787,0.0952,-0.78414,0.70302,-3.61114285714286,-1.18128571428571,-1.98271428571429,3.833,0.432342857142857,-0.0973571428571429,0.929742857142857,-1.23475,0.2135,0.92975,796.736,0,0,1,1
24-May-2018 12:58:06,493.2,0.482316666666667,0.463933333333333,-0.710183333333333,5.061,2.857,0.8945,91.932,-0.744875,-0.14855,-0.702425,-15.3271111111111,-24.6913333333333,-16.334,135.787,0.0952,-0.78414,0.70302,-3.61114285714286,-1.18128571428571,-1.98271428571429,3.833,0.432342857142857,-0.0973571428571429,0.929742857142857,-1.23475,0.2135,0.92975,796.736,0,0,1,1
24-May-2018 12:58:06,493.2,0.482316666666667,0.463933333333333,-0.710183333333333,5.061,2.857,0.8945,91.932,-0.744875,-0.14855,-0.702425,-15.3271111111111,-24.6913333333333,-16.334,135.787,0.0952,-0.78414,0.70302,-3.61114285714286,-1.18128571428571,-1.98271428571429,3.833,0.432342857142857,-0.0973571428571429,0.929742857142857,-1.23475,0.2135,0.92975,796.736,0,0,1,1
24-May-2018 12:58:06,493.2,0.482316666666667,0.463933333333333,-0.710183333333333,5.061,2.857,0.8945,91.932,-0.744875,-0.14855,-0.702425,-15.3271111111111,-24.6913333333333,-16.334,135.787,0.0952,-0.78414,0.70302,-3.61114285714286,-1.18128571428571,-1.98271428571429,3.833,0.432342857142857,-0.0973571428571429,0.929742857142857,-1.23475,0.2135,0.92975,796.736,0,0,1,1
24-May-2018 12:58:07,355.6,0.496377777777778,0.446988888888889,-0.711655555555555,-0.37,0.0790000000000001,0.19225,91.932,-0.71532,-0.12496,-0.69894,-6.54588888888889,-30.4777777777778,6.03,132.561666666667,0.09175,-0.77595,0.71155,3.9635,-0.4695,2.66775,3.619,0.423766666666667,-0.1044,0.933833333333333,1.80314285714286,0.557571428571428,0.304857142857143,798.62,0,0,1,1
24-May-2018 12:58:07,355.6,0.496377777777778,0.446988888888889,-0.711655555555555,-0.37,0.0790000000000001,0.19225,91.932,-0.71532,-0.12496,-0.69894,-6.54588888888889,-30.4777777777778,6.03,132.561666666667,0.09175,-0.77595,0.71155,3.9635,-0.4695,2.66775,3.619,0.423766666666667,-0.1044,0.933833333333333,1.80314285714286,0.557571428571428,0.304857142857143,798.62,0,0,1,1
24-May-2018 12:58:07,355.6,0.496377777777778,0.446988888888889,-0.711655555555555,-0.37,0.0790000000000001,0.19225,91.932,-0.71532,-0.12496,-0.69894,-6.54588888888889,-30.4777777777778,6.03,132.561666666667,0.09175,-0.77595,0.71155,3.9635,-0.4695,2.66775,3.619,0.423766666666667,-0.1044,0.933833333333333,1.80314285714286,0.557571428571428,0.304857142857143,798.62,0,0,1,1
24-May-2018 12:58:07,355.6,0.496377777777778,0.446988888888889,-0.711655555555555,-0.37,0.0790000000000001,0.19225,91.932,-0.71532,-0.12496,-0.69894,-6.54588888888889,-30.4777777777778,6.03,132.561666666667,0.09175,-0.77595,0.71155,3.9635,-0.4695,2.66775,3.619,0.423766666666667,-0.1044,0.933833333333333,1.80314285714286,0.557571428571428,0.304857142857143,798.62,0,0,1,1
24-May-2018 12:58:08,265.111111111111,0.478088888888889,0.4902,-0.697333333333333,-2.793875,-0.5915,-0.257125,91.932,-0.72848,-0.12892,-0.71048,-8.696625,4.2605,20.095,130.949,0.0707857142857143,-0.755285714285714,0.745428571428571,-0.537714285714286,-0.772714285714286,0.011,3.863,0.41988,-0.09658,0.93714,0.427,0.559166666666667,-0.1525,798.653,1,1,1,1
24-May-2018 12:58:08,265.111111111111,0.478088888888889,0.4902,-0.697333333333333,-2.793875,-0.5915,-0.257125,91.932,-0.72848,-0.12892,-0.71048,-8.696625,4.2605,20.095,130.949,0.0707857142857143,-0.755285714285714,0.745428571428571,-0.537714285714286,-0.772714285714286,0.011,3.863,0.41988,-0.09658,0.93714,0.427,0.559166666666667,-0.1525,798.653,1,1,1,1
24-May-2018 12:58:08,265.111111111111,0.478088888888889,0.4902,-0.697333333333333,-2.793875,-0.5915,-0.257125,91.932,-0.72848,-0.12892,-0.71048,-8.696625,4.2605,20.095,130.949,0.0707857142857143,-0.755285714285714,0.745428571428571,-0.537714285714286,-0.772714285714286,0.011,3.863,0.41988,-0.09658,0.93714,0.427,0.559166666666667,-0.1525,798.653,1,1,1,1
24-May-2018 12:58:08,265.111111111111,0.478088888888889,0.4902,-0.697333333333333,-2.793875,-0.5915,-0.257125,91.932,-0.72848,-0.12892,-0.71048,-8.696625,4.2605,20.095,130.949,0.0707857142857143,-0.755285714285714,0.745428571428571,-0.537714285714286,-0.772714285714286,0.011,3.863,0.41988,-0.09658,0.93714,0.427,0.559166666666667,-0.1525,798.653,1,1,1,1
24-May-2018 12:58:09,203.222222222222,0.479688888888889,0.471666666666667,-0.703066666666667,3.52785714285714,0.366428571428571,0.879857142857143,91.932,-0.8796,0.01896,-0.79752,-27,21.61375,19.65375,130.949,0.0912,-0.775283333333333,0.713633333333333,-2.608,-0.799428571428571,-1.79914285714286,3.6495,0.41656,-0.10274,0.93762,-0.130714285714286,0.418285714285714,-0.226571428571429,800.824,0,0,1,1
24-May-2018 12:58:09,203.222222222222,0.479688888888889,0.471666666666667,-0.703066666666667,3.52785714285714,0.366428571428571,0.879857142857143,91.932,-0.8796,0.01896,-0.79752,-27,21.61375,19.65375,130.949,0.0912,-0.775283333333333,0.713633333333333,-2.608,-0.799428571428571,-1.79914285714286,3.6495,0.41656,-0.10274,0.93762,-0.130714285714286,0.418285714285714,-0.226571428571429,800.824,0,0,1,1
24-May-2018 12:58:09,203.222222222222,0.479688888888889,0.471666666666667,-0.703066666666667,3.52785714285714,0.366428571428571,0.879857142857143,91.932,-0.8796,0.01896,-0.79752,-27,21.61375,19.65375,130.949,0.0912,-0.775283333333333,0.713633333333333,-2.608,-0.799428571428571,-1.79914285714286,3.6495,0.41656,-0.10274,0.93762,-0.130714285714286,0.418285714285714,-0.226571428571429,800.824,0,0,1,1
24-May-2018 12:58:09,203.222222222222,0.479688888888889,0.471666666666667,-0.703066666666667,3.52785714285714,0.366428571428571,0.879857142857143,91.932,-0.8796,0.01896,-0.79752,-27,21.61375,19.65375,130.949,0.0912,-0.775283333333333,0.713633333333333,-2.608,-0.799428571428571,-1.79914285714286,3.6495,0.41656,-0.10274,0.93762,-0.130714285714286,0.418285714285714,-0.226571428571429,800.824,0,0,1,1
24-May-2018 12:58:10,160.333333333333,0.4842,0.470728571428571,-0.7052,-2.20016666666667,-0.434666666666667,-0.141,94.8,-0.801966666666667,0.200033333333333,-0.656533333333333,9.885,0.157875000000001,19.165,112.367,0.08315,-0.76715,0.730475,3.252,-0.0396666666666667,1.64666666666667,3.7475,0.41618,-0.10644,0.9355,0.9146,0.7808,-0.244,800.958,0,0,1,1
24-May-2018 12:58:10,160.333333333333,0.4842,0.470728571428571,-0.7052,-2.20016666666667,-0.434666666666667,-0.141,94.8,-0.801966666666667,0.200033333333333,-0.656533333333333,9.885,0.157875000000001,19.165,112.367,0.08315,-0.76715,0.730475,3.252,-0.0396666666666667,1.64666666666667,3.7475,0.41618,-0.10644,0.9355,0.9146,0.7808,-0.244,800.958,0,0,1,1
24-May-2018 12:58:10,160.333333333333,0.4842,0.470728571428571,-0.7052,-2.20016666666667,-0.434666666666667,-0.141,94.8,-0.801966666666667,0.200033333333333,-0.656533333333333,9.885,0.157875000000001,19.165,112.367,0.08315,-0.76715,0.730475,3.252,-0.0396666666666667,1.64666666666667,3.7475,0.41618,-0.10644,0.9355,0.9146,0.7808,-0.244,800.958,0,0,1,1
24-May-2018 12:58:10,160.333333333333,0.4842,0.470728571428571,-0.7052,-2.20016666666667,-0.434666666666667,-0.141,94.8,-0.801966666666667,0.200033333333333,-0.656533333333333,9.885,0.157875000000001,19.165,112.367,0.08315,-0.76715,0.730475,3.252,-0.0396666666666667,1.64666666666667,3.7475,0.41618,-0.10644,0.9355,0.9146,0.7808,-0.244,800.958,0,0,1,1
24-May-2018 12:58:11,131.857142857143,0.476,0.49155,-0.6988,3.35416666666667,1.10833333333333,0.6925,92.1235,-0.7163,0.149575,-0.670675,6.816,-14.384,-9.5625,112.367,0.07142,-0.75676,0.74762,-1.171625,-0.781875,-0.539,3.8632,0.41538,-0.10962,0.93862,0.82325,1.113,0.0305,800.088,0,0,1,1
24-May-2018 12:58:11,131.857142857143,0.476,0.49155,-0.6988,3.35416666666667,1.10833333333333,0.6925,92.1235,-0.7163,0.149575,-0.670675,6.816,-14.384,-9.5625,112.367,0.07142,-0.75676,0.74762,-1.171625,-0.781875,-0.539,3.8632,0.41538,-0.10962,0.93862,0.82325,1.113,0.0305,800.088,0,0,1,1
24-May-2018 12:58:11,131.857142857143,0.476,0.49155,-0.6988,3.35416666666667,1.10833333333333,0.6925,92.1235,-0.7163,0.149575,-0.670675,6.816,-14.384,-9.5625,112.367,0.07142,-0.75676,0.74762,-1.171625,-0.781875,-0.539,3.8632,0.41538,-0.10962,0.93862,0.82325,1.113,0.0305,800.088,0,0,1,1
24-May-2018 12:58:11,131.857142857143,0.476,0.49155,-0.6988,3.35416666666667,1.10833333333333,0.6925,92.1235,-0.7163,0.149575,-0.670675,6.816,-14.384,-9.5625,112.367,0.07142,-0.75676,0.74762,-1.171625,-0.781875,-0.539,3.8632,0.41538,-0.10962,0.93862,0.82325,1.113,0.0305,800.088,0,0,1,1
24-May-2018 12:58:12,114.857142857143,0.493266666666667,0.453966666666667,-0.70755,1.17933333333333,0.0933333333333333,0.569333333333333,94.5918,-0.77355,0.08605,-0.749033333333333,-26.9,-0.619,-45.3625,115.4435,0.09435,-0.776725,0.71535,-2.1806,-1.155,-1.5064,3.6876,0.414066666666667,-0.109366666666667,0.93905,0.416833333333333,0.233833333333333,0.0405,801.7,0,0,1,1
24-May-2018 12:58:12,114.857142857143,0.493266666666667,0.453966666666667,-0.70755,1.17933333333333,0.0933333333333333,0.569333333333333,94.5918,-0.77355,0.08605,-0.749033333333333,-26.9,-0.619,-45.3625,115.4435,0.09435,-0.776725,0.71535,-2.1806,-1.155,-1.5064,3.6876,0.414066666666667,-0.109366666666667,0.93905,0.416833333333333,0.233833333333333,0.0405,801.7,0,0,1,1
24-May-2018 12:58:12,114.857142857143,0.493266666666667,0.453966666666667,-0.70755,1.17933333333333,0.0933333333333333,0.569333333333333,94.5918,-0.77355,0.08605,-0.749033333333333,-26.9,-0.619,-45.3625,115.4435,0.09435,-0.776725,0.71535,-2.1806,-1.155,-1.5064,3.6876,0.414066666666667,-0.109366666666667,0.93905,0.416833333333333,0.233833333333333,0.0405,801.7,0,0,1,1
24-May-2018 12:58:12,114.857142857143,0.493266666666667,0.453966666666667,-0.70755,1.17933333333333,0.0933333333333333,0.569333333333333,94.5918,-0.77355,0.08605,-0.749033333333333,-26.9,-0.619,-45.3625,115.4435,0.09435,-0.776725,0.71535,-2.1806,-1.155,-1.5064,3.6876,0.414066666666667,-0.109366666666667,0.93905,0.416833333333333,0.233833333333333,0.0405,801.7,0,0,1,1
24-May-2018 12:58:13,99.75,0.477885714285714,0.4797,-0.697657142857143,-3.21666666666667,-1.77333333333333,-0.391666666666667,94.248,-0.89265,-0.095375,-0.692775,-23.9444444444444,11.62,-53.4666666666667,116.469,0.0801333333333333,-0.763266666666667,0.7327,2.50677777777778,-0.890444444444444,1.50411111111111,3.662,0.415133333333333,-0.1068,0.936533333333333,2.3048,1,-0.5368,800.936,0,0,1,1
24-May-2018 12:58:13,99.75,0.477885714285714,0.4797,-0.697657142857143,-3.21666666666667,-1.77333333333333,-0.391666666666667,94.248,-0.89265,-0.095375,-0.692775,-23.9444444444444,11.62,-53.4666666666667,116.469,0.0801333333333333,-0.763266666666667,0.7327,2.50677777777778,-0.890444444444444,1.50411111111111,3.662,0.415133333333333,-0.1068,0.936533333333333,2.3048,1,-0.5368,800.936,0,0,1,1
24-May-2018 12:58:13,99.75,0.477885714285714,0.4797,-0.697657142857143,-3.21666666666667,-1.77333333333333,-0.391666666666667,94.248,-0.89265,-0.095375,-0.692775,-23.9444444444444,11.62,-53.4666666666667,116.469,0.0801333333333333,-0.763266666666667,0.7327,2.50677777777778,-0.890444444444444,1.50411111111111,3.662,0.415133333333333,-0.1068,0.936533333333333,2.3048,1,-0.5368,800.936,0,0,1,1
24-May-2018 12:58:13,99.75,0.477885714285714,0.4797,-0.697657142857143,-3.21666666666667,-1.77333333333333,-0.391666666666667,94.248,-0.89265,-0.095375,-0.692775,-23.9444444444444,11.62,-53.4666666666667,116.469,0.0801333333333333,-0.763266666666667,0.7327,2.50677777777778,-0.890444444444444,1.50411111111111,3.662,0.415133333333333,-0.1068,0.936533333333333,2.3048,1,-0.5368,800.936,0,0,1,1
24-May-2018 12:58:14,87.75,0.483314285714286,0.4715,-0.704271428571429,3.85885714285714,1.21228571428571,0.583857142857143,93.189,-0.7991,-0.22208,-0.52908,-69.1,-1.648,-67.4625,112.832333333333,0.0742666666666667,-0.758583333333333,0.7392,-2.95466666666667,-0.932666666666667,-1.5725,3.80366666666667,0.411983333333333,-0.107216666666667,0.937516666666667,0.406666666666667,0.488,-0.0915,802.305,1,1,1,1
24-May-2018 12:58:14,87.75,0.483314285714286,0.4715,-0.704271428571429,3.85885714285714,1.21228571428571,0.583857142857143,93.189,-0.7991,-0.22208,-0.52908,-69.1,-1.648,-67.4625,112.832333333333,0.0742666666666667,-0.758583333333333,0.7392,-2.95466666666667,-0.932666666666667,-1.5725,3.80366666666667,0.411983333333333,-0.107216666666667,0.937516666666667,0.406666666666667,0.488,-0.0915,802.305,1,1,1,1
24-May-2018 12:58:14,87.75,0.483314285714286,0.4715,-0.704271428571429,3.85885714285714,1.21228571428571,0.583857142857143,93.189,-0.7991,-0.22208,-0.52908,-69.1,-1.648,-67.4625,112.832333333333,0.0742666666666667,-0.758583333333333,0.7392,-2.95466666666667,-0.932666666666667,-1.5725,3.80366666666667,0.411983333333333,-0.107216666666667,0.937516666666667,0.406666666666667,0.488,-0.0915,802.305,1,1,1,1
24-May-2018 12:58:14,87.75,0.483314285714286,0.4715,-0.704271428571429,3.85885714285714,1.21228571428571,0.583857142857143,93.189,-0.7991,-0.22208,-0.52908,-69.1,-1.648,-67.4625,112.832333333333,0.0742666666666667,-0.758583333333333,0.7392,-2.95466666666667,-0.932666666666667,-1.5725,3.80366666666667,0.411983333333333,-0.107216666666667,0.937516666666667,0.406666666666667,0.488,-0.0915,802.305,1,1,1,1
24-May-2018 12:58:15,76.8888888888889,0.493428571428571,0.458757142857143,-0.707014285714286,-0.843625,-0.63875,0.153,95.0283333333333,-0.815725,-0.22065,-0.5852,-126.17,-15.312,-101.87,111.014,0.0968428571428571,-0.779914285714286,0.707414285714286,-2.375,-1.23666666666667,-0.792,3.67366666666667,0.407525,-0.126575,0.938525,-2.28228571428571,0.496428571428571,-0.0174285714285714,804.056,0,0,1,1
24-May-2018 12:58:15,76.8888888888889,0.493428571428571,0.458757142857143,-0.707014285714286,-0.843625,-0.63875,0.153,95.0283333333333,-0.815725,-0.22065,-0.5852,-126.17,-15.312,-101.87,111.014,0.0968428571428571,-0.779914285714286,0.707414285714286,-2.375,-1.23666666666667,-0.792,3.67366666666667,0.407525,-0.126575,0.938525,-2.28228571428571,0.496428571428571,-0.0174285714285714,804.056,0,0,1,1
24-May-2018 12:58:15,76.8888888888889,0.493428571428571,0.458757142857143,-0.707014285714286,-0.843625,-0.63875,0.153,95.0283333333333,-0.815725,-0.22065,-0.5852,-126.17,-15.312,-101.87,111.014,0.0968428571428571,-0.779914285714286,0.707414285714286,-2.375,-1.23666666666667,-0.792,3.67366666666667,0.407525,-0.126575,0.938525,-2.28228571428571,0.496428571428571,-0.0174285714285714,804.056,0,0,1,1
24-May-2018 12:58:15,76.8888888888889,0.493428571428571,0.458757142857143,-0.707014285714286,-0.843625,-0.63875,0.153,95.0283333333333,-0.815725,-0.22065,-0.5852,-126.17,-15.312,-101.87,111.014,0.0968428571428571,-0.779914285714286,0.707414285714286,-2.375,-1.23666666666667,-0.792,3.67366666666667,0.407525,-0.126575,0.938525,-2.28228571428571,0.496428571428571,-0.0174285714285714,804.056,0,0,1,1
24-May-2018 12:58:16,68.3333333333333,0.472955555555556,0.494233333333333,-0.694855555555556,0.428142857142857,0.114857142857143,0.307428571428571,95.0283333333333,-0.79148,-0.10982,-0.6379,-129.555555555556,-22.3555555555556,-105.822222222222,111.014,0.0804166666666667,-0.762716666666667,0.7328,3.2074,-1.6656,1.5732,3.783,0.4,-0.135785714285714,0.938885714285714,1.5488,0.7808,0.2318,804.128,0,0,1,1
24-May-2018 12:58:16,68.3333333333333,0.472955555555556,0.494233333333333,-0.694855555555556,0.428142857142857,0.114857142857143,0.307428571428571,95.0283333333333,-0.79148,-0.10982,-0.6379,-129.555555555556,-22.3555555555556,-105.822222222222,111.014,0.0804166666666667,-0.762716666666667,0.7328,3.2074,-1.6656,1.5732,3.783,0.4,-0.135785714285714,0.938885714285714,1.5488,0.7808,0.2318,804.128,0,0,1,1
24-May-2018 12:58:16,68.3333333333333,0.472955555555556,0.494233333333333,-0.694855555555556,0.428142857142857,0.114857142857143,0.307428571428571,95.0283333333333,-0.79148,-0.10982,-0.6379,-129.555555555556,-22.3555555555556,-105.822222222222,111.014,0.0804166666666667,-0.762716666666667,0.7328,3.2074,-1.6656,1.5732,3.783,0.4,-0.135785714285714,0.938885714285714,1.5488,0.7808,0.2318,804.128,0,0,1,1
24-May-2018 12:58:16,68.3333333333333,0.472955555555556,0.494233333333333,-0.694855555555556,0.428142857142857,0.114857142857143,0.307428571428571,95.0283333333333,-0.79148,-0.10982,-0.6379,-129.555555555556,-22.3555555555556,-105.822222222222,111.014,0.0804166666666667,-0.762716666666667,0.7328,3.2074,-1.6656,1.5732,3.783,0.4,-0.135785714285714,0.938885714285714,1.5488,0.7808,0.2318,804.128,0,0,1,1
24-May-2018 12:58:17,63.6,0.488111111111111,0.4593,-0.706922222222222,3.06233333333333,0.855777777777778,0.630333333333333,95.0283333333333,-0.78736,-0.08264,-0.67258,-116.555555555556,-23.5666666666667,-84.3333333333333,143.451,0.07998,-0.76058,0.7351,-3.388,-0.9588,-2.034,3.83366666666667,0.403116666666667,-0.125733333333333,0.94045,0.0508333333333333,0.305,-0.0711666666666667,806.3215,0,0,1,1
24-May-2018 12:58:17,63.6,0.488111111111111,0.4593,-0.706922222222222,3.06233333333333,0.855777777777778,0.630333333333333,95.0283333333333,-0.78736,-0.08264,-0.67258,-116.555555555556,-23.5666666666667,-84.3333333333333,143.451,0.07998,-0.76058,0.7351,-3.388,-0.9588,-2.034,3.83366666666667,0.403116666666667,-0.125733333333333,0.94045,0.0508333333333333,0.305,-0.0711666666666667,806.3215,0,0,1,1
24-May-2018 12:58:17,63.6,0.488111111111111,0.4593,-0.706922222222222,3.06233333333333,0.855777777777778,0.630333333333333,95.0283333333333,-0.78736,-0.08264,-0.67258,-116.555555555556,-23.5666666666667,-84.3333333333333,143.451,0.07998,-0.76058,0.7351,-3.388,-0.9588,-2.034,3.83366666666667,0.403116666666667,-0.125733333333333,0.94045,0.0508333333333333,0.305,-0.0711666666666667,806.3215,0,0,1,1
24-May-2018 12:58:17,63.6,0.488111111111111,0.4593,-0.706922222222222,3.06233333333333,0.855777777777778,0.630333333333333,95.0283333333333,-0.78736,-0.08264,-0.67258,-116.555555555556,-23.5666666666667,-84.3333333333333,143.451,0.07998,-0.76058,0.7351,-3.388,-0.9588,-2.034,3.83366666666667,0.403116666666667,-0.125733333333333,0.94045,0.0508333333333333,0.305,-0.0711666666666667,806.3215,0,0,1,1
24-May-2018 12:58:18,58.7,0.48975,0.4650625,-0.7040625,-2.35477777777778,-1.23055555555556,-0.133444444444444,95.0283333333333,-0.80205,-0.06725,-0.7047,-82.7666666666667,-29.2,-65.7555555555555,143.451,0.0992,-0.7807,0.703125,-2.19,-0.621,-1.47475,3.679,0.401625,-0.13835,0.941275,-0.2074,0.4636,-0.1952,806.1775,1,1,1,1
24-May-2018 12:58:18,58.7,0.48975,0.4650625,-0.7040625,-2.35477777777778,-1.23055555555556,-0.133444444444444,95.0283333333333,-0.80205,-0.06725,-0.7047,-82.7666666666667,-29.2,-65.7555555555555,143.451,0.0992,-0.7807,0.703125,-2.19,-0.621,-1.47475,3.679,0.401625,-0.13835,0.941275,-0.2074,0.4636,-0.1952,806.1775,1,1,1,1
24-May-2018 12:58:18,58.7,0.48975,0.4650625,-0.7040625,-2.35477777777778,-1.23055555555556,-0.133444444444444,95.0283333333333,-0.80205,-0.06725,-0.7047,-82.7666666666667,-29.2,-65.7555555555555,143.451,0.0992,-0.7807,0.703125,-2.19,-0.621,-1.47475,3.679,0.401625,-0.13835,0.941275,-0.2074,0.4636,-0.1952,806.1775,1,1,1,1
24-May-2018 12:58:18,58.7,0.48975,0.4650625,-0.7040625,-2.35477777777778,-1.23055555555556,-0.133444444444444,95.0283333333333,-0.80205,-0.06725,-0.7047,-82.7666666666667,-29.2,-65.7555555555555,143.451,0.0992,-0.7807,0.703125,-2.19,-0.621,-1.47475,3.679,0.401625,-0.13835,0.941275,-0.2074,0.4636,-0.1952,806.1775,1,1,1,1
24-May-2018 12:58:19,57.7777777777778,0.46535,0.49905,-0.691325,-0.45325,-0.86775,0.32075,95.0283333333333,-0.8399,-0.1376,-0.7301,-56.55,-23.975,-50.275,143.451,0.09314,-0.7767,0.71456,3.049,-1.46,1.89,3.567,0.402533333333333,-0.151166666666667,0.934966666666667,-2.6464,0.61,-0.183,806.1775,1,1,1,1
24-May-2018 12:58:19,57.7777777777778,0.46535,0.49905,-0.691325,-0.45325,-0.86775,0.32075,95.0283333333333,-0.8399,-0.1376,-0.7301,-56.55,-23.975,-50.275,143.451,0.09314,-0.7767,0.71456,3.049,-1.46,1.89,3.567,0.402533333333333,-0.151166666666667,0.934966666666667,-2.6464,0.61,-0.183,806.1775,1,1,1,1
24-May-2018 12:58:19,57.7777777777778,0.46535,0.49905,-0.691325,-0.45325,-0.86775,0.32075,95.0283333333333,-0.8399,-0.1376,-0.7301,-56.55,-23.975,-50.275,143.451,0.09314,-0.7767,0.71456,3.049,-1.46,1.89,3.567,0.402533333333333,-0.151166666666667,0.934966666666667,-2.6464,0.61,-0.183,806.1775,1,1,1,1
24-May-2018 12:58:19,57.7777777777778,0.46535,0.49905,-0.691325,-0.45325,-0.86775,0.32075,0,-0.8399,-0.1376,-0.7301,-56.55,-23.975,-50.275,143.451,0.09314,-0.7767,0.71456,3.049,-1.46,1.89,3.567,0.402533333333333,-0.151166666666667,0.934966666666667,-2.6464,0.61,-0.183,0,1,1,1,1
24-May-2018 12:58:20,56.3333333333333,0.48402,0.47636,-0.7018,4.7924,1.9878,0.9634,93.7586666666667,-0.7305,-0.113,-0.6391,-44.2333333333333,-27.9666666666667,-39,143.451,0.07622,-0.75248,0.74808,0.5142,-0.458,0.3904,3.93166666666667,0.394483333333333,-0.148566666666667,0.940783333333333,0.929875,0.4725,-0.061,806.1,1,1,1,1
24-May-2018 12:58:20,56.3333333333333,0.48402,0.47636,-0.7018,4.7924,1.9878,0.9634,93.7586666666667,-0.7305,-0.113,-0.6391,-44.2333333333333,-27.9666666666667,-39,143.451,0.07622,-0.75248,0.74808,0.5142,-0.458,0.3904,3.93166666666667,0.394483333333333,-0.148566666666667,0.940783333333333,0.929875,0.4725,-0.061,806.1,1,1,1,1
24-May-2018 12:58:20,56.3333333333333,0.48402,0.47636,-0.7018,4.7924,1.9878,0.9634,93.7586666666667,-0.7305,-0.113,-0.6391,-44.2333333333333,-27.9666666666667,-39,143.451,0.07622,-0.75248,0.74808,0.5142,-0.458,0.3904,3.93166666666667,0.394483333333333,-0.148566666666667,0.940783333333333,0.929875,0.4725,-0.061,806.1,1,1,1,1
24-May-2018 12:58:20,56.3333333333333,0.48402,0.47636,-0.7018,4.7924,1.9878,0.9634,93.7586666666667,-0.7305,-0.113,-0.6391,-44.2333333333333,-27.9666666666667,-39,143.451,0.07622,-0.75248,0.74808,0.5142,-0.458,0.3904,3.93166666666667,0.394483333333333,-0.148566666666667,0.940783333333333,0.929875,0.4725,-0.061,806.1,1,1,1,1
24-May-2018 12:58:21,54.3333333333333,0.493416666666667,0.456533333333333,-0.708766666666667,-0.927714285714286,-0.232714285714286,0.254285714285714,94.93925,-0.7977,-0.167475,-0.64,-56.6888888888889,-11.3066666666667,-36.1333333333333,143.085,0.0784,-0.758616666666667,0.739933333333333,-4.42285714285714,-0.913,-2.44142857142857,3.8406,0.397683333333333,-0.127716666666667,0.93065,-1.72088888888889,1.23988888888889,0.00666666666666667,807.962,1,1,1,1
24-May-2018 12:58:21,54.3333333333333,0.493416666666667,0.456533333333333,-0.708766666666667,-0.927714285714286,-0.232714285714286,0.254285714285714,94.93925,-0.7977,-0.167475,-0.64,-56.6888888888889,-11.3066666666667,-36.1333333333333,143.085,0.0784,-0.758616666666667,0.739933333333333,-4.42285714285714,-0.913,-2.44142857142857,3.8406,0.397683333333333,-0.127716666666667,0.93065,-1.72088888888889,1.23988888888889,0.00666666666666667,807.962,1,1,1,1
24-May-2018 12:58:21,54.3333333333333,0.493416666666667,0.456533333333333,-0.708766666666667,-0.927714285714286,-0.232714285714286,0.254285714285714,94.93925,-0.7977,-0.167475,-0.64,-56.6888888888889,-11.3066666666667,-36.1333333333333,143.085,0.0784,-0.758616666666667,0.739933333333333,-4.42285714285714,-0.913,-2.44142857142857,3.8406,0.397683333333333,-0.127716666666667,0.93065,-1.72088888888889,1.23988888888889,0.00666666666666667,807.962,1,1,1,1
24-May-2018 12:58:21,54.3333333333333,0.493416666666667,0.456533333333333,-0.708766666666667,-0.927714285714286,-0.232714285714286,0.254285714285714,94.93925,-0.7977,-0.167475,-0.64,-56.6888888888889,-11.3066666666667,-36.1333333333333,143.085,0.0784,-0.758616666666667,0.739933333333333,-4.42285714285714,-0.913,-2.44142857142857,3.8406,0.397683333333333,-0.127716666666667,0.93065,-1.72088888888889,1.23988888888889,0.00666666666666667,807.962,1,1,1,1
24-May-2018 12:58:22,54.6,0.47185,0.492883333333333,-0.694316666666667,-0.876428571428571,-1.121,-0.0411428571428571,93.093,-0.79608,-0.10976,-0.64144,-57.6125,15.829875,-19.0725,143.085,0.0942333333333333,-0.775966666666667,0.706333333333333,2.179875,-0.727875,1.487125,3.64566666666667,0.391716666666667,-0.139966666666667,0.942383333333333,-0.7804,0.0978,0.1098,809.829714285714,1,1,1,1
24-May-2018 12:58:22,54.6,0.47185,0.492883333333333,-0.694316666666667,-0.876428571428571,-1.121,-0.0411428571428571,93.093,-0.79608,-0.10976,-0.64144,-57.6125,15.829875,-19.0725,143.085,0.0942333333333333,-0.775966666666667,0.706333333333333,2.179875,-0.727875,1.487125,3.64566666666667,0.391716666666667,-0.139966666666667,0.942383333333333,-0.7804,0.0978,0.1098,809.829714285714,1,1,1,1
24-May-2018 12:58:22,54.6,0.47185,0.492883333333333,-0.694316666666667,-0.876428571428571,-1.121,-0.0411428571428571,93.093,-0.79608,-0.10976,-0.64144,-57.6125,15.829875,-19.0725,143.085,0.0942333333333333,-0.775966666666667,0.706333333333333,2.179875,-0.727875,1.487125,3.64566666666667,0.391716666666667,-0.139966666666667,0.942383333333333,-0.7804,0.0978,0.1098,809.829714285714,1,1,1,1
24-May-2018 12:58:22,54.6,0.47185,0.492883333333333,-0.694316666666667,-0.876428571428571,-1.121,-0.0411428571428571,93.093,-0.79608,-0.10976,-0.64144,-57.6125,15.829875,-19.0725,143.085,0.0942333333333333,-0.775966666666667,0.706333333333333,2.179875,-0.727875,1.487125,3.64566666666667,0.391716666666667,-0.139966666666667,0.942383333333333,-0.7804,0.0978,0.1098,809.829714285714,1,1,1,1
24-May-2018 12:58:23,-1774,0.4857,0.472014285714286,-0.700742857142857,4.64433333333333,1.79983333333333,0.8335,93.41,-0.9243,0.0856,-0.759225,-47.89,39.0515,18.5273,145.54,0.07272,-0.75498,0.75,-0.851285714285714,-1.25857142857143,-0.286,3.78,0.392466666666667,-0.130233333333333,0.938566666666667,0.48775,0.366,-0.16775,809.989333333333,1,1,1,1
24-May-2018 12:58:23,-1774,0.4857,0.472014285714286,-0.700742857142857,4.64433333333333,1.79983333333333,0.8335,93.41,-0.9243,0.0856,-0.759225,-47.89,39.0515,18.5273,145.54,0.07272,-0.75498,0.75,-0.851285714285714,-1.25857142857143,-0.286,3.78,0.392466666666667,-0.130233333333333,0.938566666666667,0.48775,0.366,-0.16775,809.989333333333,1,1,1,1
24-May-2018 12:58:23,-1774,0.4857,0.472014285714286,-0.700742857142857,4.64433333333333,1.79983333333333,0.8335,93.41,-0.9243,0.0856,-0.759225,-47.89,39.0515,18.5273,145.54,0.07272,-0.75498,0.75,-0.851285714285714,-1.25857142857143,-0.286,3.78,0.392466666666667,-0.130233333333333,0.938566666666667,0.48775,0.366,-0.16775,809.989333333333,1,1,1,1
24-May-2018 12:58:23,-1774,0.4857,0.472014285714286,-0.700742857142857,4.64433333333333,1.79983333333333,0.8335,93.41,-0.9243,0.0856,-0.759225,-47.89,39.0515,18.5273,145.54,0.07272,-0.75498,0.75,-0.851285714285714,-1.25857142857143,-0.286,3.78,0.392466666666667,-0.130233333333333,0.938566666666667,0.48775,0.366,-0.16775,809.989333333333,1,1,1,1
24-May-2018 12:58:24,-2048,0.498571428571429,0.448571428571429,-0.706285714285714,0.349857142857143,0.00985714285714283,0.531571428571429,95.245,-0.69304,0.16238,-0.62334,-4.26677777777778,-15.3811111111111,13.2424444444444,152.905,0.0921,-0.77395,0.718366666666667,-4.0975,-1.39975,-2.2225,3.798,0.395966666666667,-0.1418,0.944266666666667,0.2438,0.3904,0.1464,811.06175,1,1,1,1
24-May-2018 12:58:24,-2048,0.498571428571429,0.448571428571429,-0.706285714285714,0.349857142857143,0.00985714285714283,0.531571428571429,95.245,-0.69304,0.16238,-0.62334,-4.26677777777778,-15.3811111111111,13.2424444444444,152.905,0.0921,-0.77395,0.718366666666667,-4.0975,-1.39975,-2.2225,3.798,0.395966666666667,-0.1418,0.944266666666667,0.2438,0.3904,0.1464,811.06175,1,1,1,1
24-May-2018 12:58:24,-2048,0.498571428571429,0.448571428571429,-0.706285714285714,0.349857142857143,0.00985714285714283,0.531571428571429,95.245,-0.69304,0.16238,-0.62334,-4.26677777777778,-15.3811111111111,13.2424444444444,152.905,0.0921,-0.77395,0.718366666666667,-4.0975,-1.39975,-2.2225,3.798,0.395966666666667,-0.1418,0.944266666666667,0.2438,0.3904,0.1464,811.06175,1,1,1,1
24-May-2018 12:58:24,-2048,0.498571428571429,0.448571428571429,-0.706285714285714,0.349857142857143,0.00985714285714283,0.531571428571429,95.245,-0.69304,0.16238,-0.62334,-4.26677777777778,-15.3811111111111,13.2424444444444,152.905,0.0921,-0.77395,0.718366666666667,-4.0975,-1.39975,-2.2225,3.798,0.395966666666667,-0.1418,0.944266666666667,0.2438,0.3904,0.1464,811.06175,1,1,1,1
24-May-2018 12:58:25,563.6,0.4821,0.482142857142857,-0.697114285714286,-2.82571428571429,-0.868428571428572,-0.242,94.016,-0.76682,0.18014,-0.6611,-14.7333333333333,-35.4333333333333,-2.50877777777778,152.905,0.08185,-0.761466666666667,0.736716666666667,2.175,-0.849833333333333,1.22966666666667,3.6515,0.39114,-0.14126,0.94038,1.113,0.6405,-0.22875,810.133666666667,1,1,1,1
24-May-2018 12:58:25,563.6,0.4821,0.482142857142857,-0.697114285714286,-2.82571428571429,-0.868428571428572,-0.242,94.016,-0.76682,0.18014,-0.6611,-14.7333333333333,-35.4333333333333,-2.50877777777778,152.905,0.08185,-0.761466666666667,0.736716666666667,2.175,-0.849833333333333,1.22966666666667,3.6515,0.39114,-0.14126,0.94038,1.113,0.6405,-0.22875,810.133666666667,1,1,1,1
24-May-2018 12:58:25,563.6,0.4821,0.482142857142857,-0.697114285714286,-2.82571428571429,-0.868428571428572,-0.242,94.016,-0.76682,0.18014,-0.6611,-14.7333333333333,-35.4333333333333,-2.50877777777778,152.905,0.08185,-0.761466666666667,0.736716666666667,2.175,-0.849833333333333,1.22966666666667,3.6515,0.39114,-0.14126,0.94038,1.113,0.6405,-0.22875,810.133666666667,1,1,1,1
24-May-2018 12:58:25,563.6,0.4821,0.482142857142857,-0.697114285714286,-2.82571428571429,-0.868428571428572,-0.242,94.016,-0.76682,0.18014,-0.6611,-14.7333333333333,-35.4333333333333,-2.50877777777778,152.905,0.08185,-0.761466666666667,0.736716666666667,2.175,-0.849833333333333,1.22966666666667,3.6515,0.39114,-0.14126,0.94038,1.113,0.6405,-0.22875,810.133666666667,1,1,1,1
24-May-2018 12:58:26,2025.44444444444,0.47605,0.478783333333333,-0.70035,4.8475,1.57616666666667,0.721833333333333,91.174,-0.769625,0.207675,-0.63435,-20.07,-7.1031,-18.34,149.074666666667,0.07168,-0.75346,0.74592,-2.605,-0.2656,-1.68,3.8645,0.38775,-0.139425,0.94255,0.305,0.671,-0.22875,811.2945,1,1,1,1
24-May-2018 12:58:26,2025.44444444444,0.47605,0.478783333333333,-0.70035,4.8475,1.57616666666667,0.721833333333333,91.174,-0.769625,0.207675,-0.63435,-20.07,-7.1031,-18.34,149.074666666667,0.07168,-0.75346,0.74592,-2.605,-0.2656,-1.68,3.8645,0.38775,-0.139425,0.94255,0.305,0.671,-0.22875,811.2945,1,1,1,1
24-May-2018 12:58:26,2025.44444444444,0.47605,0.478783333333333,-0.70035,4.8475,1.57616666666667,0.721833333333333,91.174,-0.769625,0.207675,-0.63435,-20.07,-7.1031,-18.34,149.074666666667,0.07168,-0.75346,0.74592,-2.605,-0.2656,-1.68,3.8645,0.38775,-0.139425,0.94255,0.305,0.671,-0.22875,811.2945,1,1,1,1
24-May-2018 12:58:26,2025.44444444444,0.47605,0.478783333333333,-0.70035,4.8475,1.57616666666667,0.721833333333333,91.174,-0.769625,0.207675,-0.63435,-20.07,-7.1031,-18.34,149.074666666667,0.07168,-0.75346,0.74592,-2.605,-0.2656,-1.68,3.8645,0.38775,-0.139425,0.94255,0.305,0.671,0,811.2945,1,1,1,1
24-May-2018 12:58:27,1609.55555555556,0.4931,0.450175,-0.7101,1.257875,0.474375,0.420125,91.174,-0.9017,0.137375,-0.714375,15.8877777777778,14.1514444444444,-23.6222222222222,141.414,0.0975333333333333,-0.780983333333333,0.706966666666667,-2.0464,-0.484,-0.9976,3.721,0.387116666666667,-0.148783333333333,0.944383333333333,0.332,0.481222222222222,-0.162666666666667,812.749,1,1,1,1
24-May-2018 12:58:27,1609.55555555556,0.4931,0.450175,-0.7101,1.257875,0.474375,0.420125,91.174,-0.9017,0.137375,-0.714375,15.8877777777778,14.1514444444444,-23.6222222222222,141.414,0.0975333333333333,-0.780983333333333,0.706966666666667,-2.0464,-0.484,-0.9976,3.721,0.387116666666667,-0.148783333333333,0.944383333333333,0.332,0.481222222222222,-0.162666666666667,812.749,1,1,1,1
24-May-2018 12:58:27,1609.55555555556,0.4931,0.450175,-0.7101,1.257875,0.474375,0.420125,91.174,-0.9017,0.137375,-0.714375,15.8877777777778,14.1514444444444,-23.6222222222222,141.414,0.0975333333333333,-0.780983333333333,0.706966666666667,-2.0464,-0.484,-0.9976,3.721,0.387116666666667,-0.148783333333333,0.944383333333333,0.332,0.481222222222222,-0.162666666666667,812.749,1,1,1,1
24-May-2018 12:58:27,1609.55555555556,0.4931,0.450175,-0.7101,1.257875,0.474375,0.420125,91.174,-0.9017,0.137375,-0.714375,15.8877777777778,14.1514444444444,-23.6222222222222,141.414,0.0975333333333333,-0.780983333333333,0.706966666666667,-2.0464,-0.484,-0.9976,3.721,0.387116666666667,-0.148783333333333,0.944383333333333,0.332,0.481222222222222,-0.162666666666667,812.749,1,1,1,1
24-May-2018 12:58:28,1168.44444444444,0.4819625,0.4795375,-0.697425,-2.57055555555556,-1.92666666666667,-0.219555555555556,91.174,-0.79992,-0.06088,-0.52842,59.33875,21.443625,-7.580875,141.414,0.08524,-0.76288,0.7325,2.5856,-1.532,1.7072,3.727,0.38815,-0.145366666666667,0.944283333333333,0.8904,0.5002,-0.244,810.949666666667,1,1,1,1
24-May-2018 12:58:28,1168.44444444444,0.4819625,0.4795375,-0.697425,-2.57055555555556,-1.92666666666667,-0.219555555555556,91.174,-0.79992,-0.06088,-0.52842,59.33875,21.443625,-7.580875,141.414,0.08524,-0.76288,0.7325,2.5856,-1.532,1.7072,3.727,0.38815,-0.145366666666667,0.944283333333333,0.8904,0.5002,-0.244,810.949666666667,1,1,1,1
24-May-2018 12:58:28,1168.44444444444,0.4819625,0.4795375,-0.697425,-2.57055555555556,-1.92666666666667,-0.219555555555556,91.174,-0.79992,-0.06088,-0.52842,59.33875,21.443625,-7.580875,141.414,0.08524,-0.76288,0.7325,2.5856,-1.532,1.7072,3.727,0.38815,-0.145366666666667,0.944283333333333,0.8904,0.5002,-0.244,810.949666666667,1,1,1,1
24-May-2018 12:58:28,1168.44444444444,0.4819625,0.4795375,-0.697425,-2.57055555555556,-1.92666666666667,-0.219555555555556,91.174,-0.79992,-0.06088,-0.52842,59.33875,21.443625,-7.580875,141.414,0.08524,-0.76288,0.7325,2.5856,-1.532,1.7072,3.727,0.38815,-0.145366666666667,0.944283333333333,0.8904,0.5002,-0.244,810.949666666667,1,1,1,1
24-May-2018 12:58:29,854.555555555556,0.4838375,0.4727125,-0.70235,3.69922222222222,1.34822222222222,0.759111111111111,91.174,-0.85818,-0.13832,-0.56598,8.54622222222222,-22.7555555555556,-0.383222222222222,148.914,0.07155,-0.75295,0.74985,-1.6914,-1.436,-0.5224,3.887,0.38655,-0.143466666666667,0.943333333333333,0.5124,0.488,-0.2562,811.9725,1,1,1,1
24-May-2018 12:58:29,854.555555555556,0.4838375,0.4727125,-0.70235,3.69922222222222,1.34822222222222,0.759111111111111,91.174,-0.85818,-0.13832,-0.56598,8.54622222222222,-22.7555555555556,-0.383222222222222,148.914,0.07155,-0.75295,0.74985,-1.6914,-1.436,-0.5224,3.887,0.38655,-0.143466666666667,0.943333333333333,0.5124,0.488,-0.2562,811.9725,1,1,1,1
24-May-2018 12:58:29,854.555555555556,0.4838375,0.4727125,-0.70235,3.69922222222222,1.34822222222222,0.759111111111111,91.174,-0.85818,-0.13832,-0.56598,8.54622222222222,-22.7555555555556,-0.383222222222222,148.914,0.07155,-0.75295,0.74985,-1.6914,-1.436,-0.5224,3.887,0.38655,-0.143466666666667,0.943333333333333,0.5124,0.488,-0.2562,811.9725,1,1,1,1
24-May-2018 12:58:29,854.555555555556,0.4838375,0.4727125,-0.70235,3.69922222222222,1.34822222222222,0.759111111111111,91.174,-0.85818,-0.13832,-0.56598,8.54622222222222,-22.7555555555556,-0.383222222222222,148.914,0.07155,-0.75295,0.74985,-1.6914,-1.436,-0.5224,3.887,0.38655,-0.143466666666667,0.943333333333333,0.5124,0.488,-0.2562,811.9725,1,1,1,1
24-May-2018 12:58:30,615.3,0.5005375,0.4504,-0.7084125,0.602285714285714,-0.173857142857143,0.61,94.372,-0.844575,-0.1704,-0.5207,18.0528571428571,-7.07657142857143,14.3071428571429,148.914,0.0925714285714286,-0.772671428571429,0.717271428571428,-4.235,0.1705,-2.8325,3.75633333333333,0.386266666666667,-0.145233333333333,0.943466666666667,0.2684,0.4514,-0.0366,812.4142,1,1,1,1
24-May-2018 12:58:30,615.3,0.5005375,0.4504,-0.7084125,0.602285714285714,-0.173857142857143,0.61,94.372,-0.844575,-0.1704,-0.5207,18.0528571428571,-7.07657142857143,14.3071428571429,148.914,0.0925714285714286,-0.772671428571429,0.717271428571428,-4.235,0.1705,-2.8325,3.75633333333333,0.386266666666667,-0.145233333333333,0.943466666666667,0.2684,0.4514,-0.0366,812.4142,1,1,1,1
24-May-2018 12:58:30,615.3,0.5005375,0.4504,-0.7084125,0.602285714285714,-0.173857142857143,0.61,94.372,-0.844575,-0.1704,-0.5207,18.0528571428571,-7.07657142857143,14.3071428571429,148.914,0.0925714285714286,-0.772671428571429,0.717271428571428,-4.235,0.1705,-2.8325,3.75633333333333,0.386266666666667,-0.145233333333333,0.943466666666667,0.2684,0.4514,-0.0366,812.4142,1,1,1,1
24-May-2018 12:58:30,615.3,0.5005375,0.4504,-0.7084125,0.602285714285714,-0.173857142857143,0.61,94.372,-0.844575,-0.1704,-0.5207,18.0528571428571,-7.07657142857143,14.3071428571429,148.914,0.0925714285714286,-0.772671428571429,0.717271428571428,-4.235,0.1705,-2.8325,3.75633333333333,0.386266666666667,-0.145233333333333,0.943466666666667,0.2684,0.4514,-0.0366,812.4142,1,1,1,1
