TIME,HELMET_RAW,BELT_ACC_X,BELT_ACC_Y,BELT_ACC_Z,BELT_ANG_X,BELT_ANG_Y,BELT_ANG_Z,BELT_LUMINOSITY,NECK_ACC_X,NECK_ACC_Y,NECK_ACC_Z,NECK_ANG_X,NECK_ANG_Y,NECK_ANG_Z,NECK_LUMINOSITY,PCKT_ACC_X,PCKT_ACC_Y,PCKT_ACC_Z,PCKT_ANG_X,PCKT_ANG_Y,PCKT_ANG_Z,PCKT_LUMINOSITY,WRST_ACC_X,WRST_ACC_Y,WRST_ACC_Z,WRST_ANG_X,WRST_ANG_Y,WRST_ANG_Z,WRST_LUMINOSITY,IR_1,IR_2,IR_3,IR_4
24-May-2018 12:58:31,445.444444444444,0.475066666666667,0.4905,-0.6955,-2.97,-1.1172,0.0376,93.8831666666667,-0.87924,-0.13444,-0.58882,2.752375,-3.93475,14.6375,125.622,0.08975,-0.77405,0.71675,2.927,-0.6208,1.7436,3.614,0.3885,-0.147325,0.941,1.06725,0.41175,-0.305,811.009,1,1,1,1
24-May-2018 12:58:31,445.444444444444,0.475066666666667,0.4905,-0.6955,-2.97,-1.1172,0.0376,93.8831666666667,-0.87924,-0.13444,-0.58882,2.752375,-3.93475,14.6375,125.622,0.08975,-0.77405,0.71675,2.927,-0.6208,1.7436,3.614,0.3885,-0.147325,0.941,1.06725,0.41175,-0.305,811.009,1,1,1,1
24-May-2018 12:58:31,445.444444444444,0.475066666666667,0.4905,-0.6955,-2.97,-1.1172,0.0376,93.8831666666667,-0.87924,-0.13444,-0.58882,2.752375,-3.93475,14.6375,125.622,0.08975,-0.77405,0.71675,2.927,-0.6208,1.7436,3.614,0.3885,-0.147325,0.941,1.06725,0.41175,-0.305,811.009,1,1,1,1
24-May-2018 12:58:31,445.444444444444,0.475066666666667,0.4905,-0.6955,-2.97,-1.1172,0.0376,93.8831666666667,-0.87924,-0.13444,-0.58882,2.752375,-3.93475,14.6375,125.622,0.08975,-0.77405,0.71675,2.927,-0.6208,1.7436,3.614,0.3885,-0.147325,0.941,1.06725,0.41175,-0.305,811.009,1,1,1,1
24-May-2018 12:58:32,339.25,0.4801,0.48044,-0.70328,4.12622222222222,1.68022222222222,0.819888888888889,92.293,-0.959466666666667,-0.0540333333333333,-0.6651,-4.25385714285714,24.327,31.4071428571429,125.622,0.0716,-0.7519,0.749771428571429,0.996,-0.649333333333333,0.448,3.887,0.3842,-0.144357142857143,0.944414285714286,0.5734,0.5124,-0.1586,811.6735,0,0,1,1
24-May-2018 12:58:32,339.25,0.4801,0.48044,-0.70328,4.12622222222222,1.68022222222222,0.819888888888889,92.293,-0.959466666666667,-0.0540333333333333,-0.6651,-4.25385714285714,24.327,31.4071428571429,125.622,0.0716,-0.7519,0.749771428571429,0.996,-0.649333333333333,0.448,3.887,0.3842,-0.144357142857143,0.944414285714286,0.5734,0.5124,-0.1586,811.6735,0,0,1,1
24-May-2018 12:58:32,339.25,0.4801,0.48044,-0.70328,4.12622222222222,1.68022222222222,0.819888888888889,92.293,-0.959466666666667,-0.0540333333333333,-0.6651,-4.25385714285714,24.327,31.4071428571429,125.622,0.0716,-0.7519,0.749771428571429,0.996,-0.649333333333333,0.448,3.887,0.3842,-0.144357142857143,0.944414285714286,0.5734,0.5124,-0.1586,811.6735,0,0,1,1
24-May-2018 12:58:32,339.25,0.4801,0.48044,-0.70328,4.12622222222222,1.68022222222222,0.819888888888889,92.293,-0.959466666666667,-0.0540333333333333,-0.6651,-4.25385714285714,24.327,31.4071428571429,125.622,0.0716,-0.7519,0.749771428571429,0.996,-0.649333333333333,0.448,3.887,0.3842,-0.144357142857143,0.944414285714286,0.5734,0.5124,-0.1586,811.6735,0,0,1,1
24-May-2018 12:58:33,252.5,0.497142857142857,0.449,-0.710528571428571,0.743333333333333,0.711666666666667,0.427166666666667,95.323,-0.83164,0.0583,-0.49464,-6.96,6.513875,15.103125,128.863333333333,0.0847666666666667,-0.762966666666667,0.733466666666667,-3.77666666666667,-0.768333333333333,-2.405,3.839,0.39005,-0.1474,0.94185,0.418285714285714,0.339857142857143,-0.165571428571429,811.957666666667,0,0,1,1
24-May-2018 12:58:33,252.5,0.497142857142857,0.449,-0.710528571428571,0.743333333333333,0.711666666666667,0.427166666666667,95.323,-0.83164,0.0583,-0.49464,-6.96,6.513875,15.103125,128.863333333333,0.0847666666666667,-0.762966666666667,0.733466666666667,-3.77666666666667,-0.768333333333333,-2.405,3.839,0.39005,-0.1474,0.94185,0.418285714285714,0.339857142857143,-0.165571428571429,811.957666666667,0,0,1,1
24-May-2018 12:58:33,252.5,0.497142857142857,0.449,-0.710528571428571,0.743333333333333,0.711666666666667,0.427166666666667,95.323,-0.83164,0.0583,-0.49464,-6.96,6.513875,15.103125,128.863333333333,0.0847666666666667,-0.762966666666667,0.733466666666667,-3.77666666666667,-0.768333333333333,-2.405,3.839,0.39005,-0.1474,0.94185,0.418285714285714,0.339857142857143,-0.165571428571429,811.957666666667,0,0,1,1
24-May-2018 12:58:33,252.5,0.497142857142857,0.449,-0.710528571428571,0.743333333333333,0.711666666666667,0.427166666666667,95.323,-0.83164,0.0583,-0.49464,-6.96,6.513875,15.103125,128.863333333333,0.0847666666666667,-0.762966666666667,0.733466666666667,-3.77666666666667,-0.768333333333333,-2.405,3.839,0.39005,-0.1474,0.94185,0.418285714285714,0.339857142857143,-0.165571428571429,811.957666666667,0,0,1,1
24-May-2018 12:58:34,196.2,0.4816875,0.4794125,-0.6992625,-2.28628571428571,-1.15528571428571,-0.069,94.317,-0.8725,0.0463,-0.55524,4.21622222222222,-24.6944444444444,-9.77111111111111,135.346,0.09725,-0.7785,0.7077,-1.23125,-0.48425,-0.8495,3.691,0.387275,-0.145375,0.9425,1.1464,0.488,-0.2318,810.4816,1,1,1,1
24-May-2018 12:58:34,196.2,0.4816875,0.4794125,-0.6992625,-2.28628571428571,-1.15528571428571,-0.069,94.317,-0.8725,0.0463,-0.55524,4.21622222222222,-24.6944444444444,-9.77111111111111,135.346,0.09725,-0.7785,0.7077,-1.23125,-0.48425,-0.8495,3.691,0.387275,-0.145375,0.9425,1.1464,0.488,-0.2318,810.4816,1,1,1,1
24-May-2018 12:58:34,196.2,0.4816875,0.4794125,-0.6992625,-2.28628571428571,-1.15528571428571,-0.069,94.317,-0.8725,0.0463,-0.55524,4.21622222222222,-24.6944444444444,-9.77111111111111,135.346,0.09725,-0.7785,0.7077,-1.23125,-0.48425,-0.8495,3.691,0.387275,-0.145375,0.9425,1.1464,0.488,-0.2318,810.4816,1,1,1,1
24-May-2018 12:58:34,196.2,0.4816875,0.4794125,-0.6992625,-2.28628571428571,-1.15528571428571,-0.069,94.317,-0.8725,0.0463,-0.55524,4.21622222222222,-24.6944444444444,-9.77111111111111,135.346,0.09725,-0.7785,0.7077,-1.23125,-0.48425,-0.8495,3.691,0.387275,-0.145375,0.9425,1.1464,0.488,-0.2318,810.4816,1,1,1,1
24-May-2018 12:58:35,149.5,0.489528571428571,0.463985714285714,-0.7064,4.2275,2.003,0.7115,93.826,-0.835125,0.042125,-0.5307,-34.2,-15.6111111111111,-23.3666666666667,135.346,0.08975,-0.76615,0.72645,3.06933333333333,-1.74333333333333,2.134,3.584,0.38805,-0.142625,0.943825,0.51825,0.53375,-0.01525,810.9755,0,0,1,1
24-May-2018 12:58:35,149.5,0.489528571428571,0.463985714285714,-0.7064,4.2275,2.003,0.7115,93.826,-0.835125,0.042125,-0.5307,-34.2,-15.6111111111111,-23.3666666666667,135.346,0.08975,-0.76615,0.72645,3.06933333333333,-1.74333333333333,2.134,3.584,0.38805,-0.142625,0.943825,0.51825,0.53375,-0.01525,810.9755,0,0,1,1
24-May-2018 12:58:35,149.5,0.489528571428571,0.463985714285714,-0.7064,4.2275,2.003,0.7115,93.826,-0.835125,0.042125,-0.5307,-34.2,-15.6111111111111,-23.3666666666667,135.346,0.08975,-0.76615,0.72645,3.06933333333333,-1.74333333333333,2.134,3.584,0.38805,-0.142625,0.943825,0.51825,0.53375,-0.01525,810.9755,0,0,1,1
24-May-2018 12:58:35,149.5,0.489528571428571,0.463985714285714,-0.7064,4.2275,2.003,0.7115,93.826,-0.835125,0.042125,-0.5307,-34.2,-15.6111111111111,-23.3666666666667,135.346,0.08975,-0.76615,0.72645,3.06933333333333,-1.74333333333333,2.134,3.584,0.38805,-0.142625,0.943825,0.51825,0.53375,-0.01525,810.9755,0,0,1,1
24-May-2018 12:58:36,118.3,0.497671428571429,0.446628571428571,-0.709214285714286,-0.0249999999999999,-0.0584285714285714,0.357428571428571,95.158,-0.86106,0.05698,-0.57956,-22.145,0.1135,-28.4125,131.910333333333,0.07755,-0.75625,0.74225,1.494,-0.79,1.006,3.881,0.38528,-0.14262,0.94358,0.442,0.44225,0.0610000000000001,811.807,0,0,1,1
24-May-2018 12:58:36,118.3,0.497671428571429,0.446628571428571,-0.709214285714286,-0.0249999999999999,-0.0584285714285714,0.357428571428571,95.158,-0.86106,0.05698,-0.57956,-22.145,0.1135,-28.4125,131.910333333333,0.07755,-0.75625,0.74225,1.494,-0.79,1.006,3.881,0.38528,-0.14262,0.94358,0.442,0.44225,0.0610000000000001,811.807,0,0,1,1
24-May-2018 12:58:36,118.3,0.497671428571429,0.446628571428571,-0.709214285714286,-0.0249999999999999,-0.0584285714285714,0.357428571428571,95.158,-0.86106,0.05698,-0.57956,-22.145,0.1135,-28.4125,131.910333333333,0.07755,-0.75625,0.74225,1.494,-0.79,1.006,3.881,0.38528,-0.14262,0.94358,0.442,0.44225,0.0610000000000001,811.807,0,0,1,1
24-May-2018 12:58:36,118.3,0.497671428571429,0.446628571428571,-0.709214285714286,-0.0249999999999999,-0.0584285714285714,0.357428571428571,95.158,-0.86106,0.05698,-0.57956,-22.145,0.1135,-28.4125,131.910333333333,0.07755,-0.75625,0.74225,1.494,-0.79,1.006,3.881,0.38528,-0.14262,0.94358,0.442,0.44225,0.0610000000000001,811.807,0,0,1,1
24-May-2018 12:58:37,97.3,0.477855555555556,0.4858,-0.6962,-1.588625,-1.033375,0.048,95.158,-1.05035,-0.07855,-0.606425,18.0652222222222,28.3906666666667,-29.4222222222222,125.039,0.06705,-0.7194,0.76305,-0.79,0.61,0.244,3.881,0.38855,-0.15085,0.94445,0.79275,0.22875,-0.122,811.445333333333,1,1,1,1
24-May-2018 12:58:37,97.3,0.477855555555556,0.4858,-0.6962,-1.588625,-1.033375,0.048,95.158,-1.05035,-0.07855,-0.606425,18.0652222222222,28.3906666666667,-29.4222222222222,125.039,0.06705,-0.7194,0.76305,-0.79,0.61,0.244,3.881,0.38855,-0.15085,0.94445,0.79275,0.22875,-0.122,811.445333333333,1,1,1,1
24-May-2018 12:58:37,97.3,0.477855555555556,0.4858,-0.6962,-1.588625,-1.033375,0.048,95.158,-1.05035,-0.07855,-0.606425,18.0652222222222,28.3906666666667,-29.4222222222222,125.039,0.06705,-0.7194,0.76305,-0.79,0.61,0.244,3.881,0.38855,-0.15085,0.94445,0.79275,0.22875,-0.122,811.445333333333,1,1,1,1
24-May-2018 12:58:37,97.3,0.477855555555556,0.4858,-0.6962,-1.588625,-1.033375,0.048,95.158,-1.05035,-0.07855,-0.606425,18.0652222222222,28.3906666666667,-29.4222222222222,125.039,0.06705,-0.7194,0.76305,-0.79,0.61,0.244,3.881,0.38855,-0.15085,0.94445,0.79275,0.22875,-0.122,811.445333333333,1,1,1,1
24-May-2018 12:58:38,84.625,0.482233333333333,0.470255555555556,-0.702855555555556,3.76688888888889,1.50411111111111,0.908222222222222,95.158,-0.84492,-0.19588,-0.42854,-3.4477,12.1321,-21.04,125.039,0.0559,-0.7473,0.7478,-18.1533333333333,-8.03666666666667,5.57166666666667,2.032,0.3868,-0.1413,0.953433333333333,-0.7825,-0.863666666666667,-0.112,811.475,0,0,1,1
24-May-2018 12:58:38,84.625,0.482233333333333,0.470255555555556,-0.702855555555556,3.76688888888889,1.50411111111111,0.908222222222222,95.158,-0.84492,-0.19588,-0.42854,-3.4477,12.1321,-21.04,125.039,0.0559,-0.7473,0.7478,-18.1533333333333,-8.03666666666667,5.57166666666667,2.032,0.3868,-0.1413,0.953433333333333,-0.7825,-0.863666666666667,-0.112,811.475,0,0,1,1
24-May-2018 12:58:38,84.625,0.482233333333333,0.470255555555556,-0.702855555555556,3.76688888888889,1.50411111111111,0.908222222222222,95.158,-0.84492,-0.19588,-0.42854,-3.4477,12.1321,-21.04,125.039,0.0559,-0.7473,0.7478,-18.1533333333333,-8.03666666666667,5.57166666666667,2.032,0.3868,-0.1413,0.953433333333333,-0.7825,-0.863666666666667,-0.112,811.475,0,0,1,1
24-May-2018 12:58:38,84.625,0.482233333333333,0.470255555555556,-0.702855555555556,3.76688888888889,1.50411111111111,0.908222222222222,95.158,-0.84492,-0.19588,-0.42854,-3.4477,12.1321,-21.04,125.039,0.0559,-0.7473,0.7478,-18.1533333333333,-8.03666666666667,5.57166666666667,2.032,0.3868,-0.1413,0.953433333333333,-0.7825,-0.863666666666667,-0.112,811.475,0,0,1,1
24-May-2018 12:58:39,78.625,0.3899,0.457255555555556,-0.650644444444444,-34.59375,11.343375,20.954375,95.158,-0.846425,-0.2234,-0.479775,-11.3022222222222,-15.5022222222222,-8.23333333333333,129.656,0.0559,-0.7473,0.7478,-0.52,-10.755,-1.745,1.072,0.38575,-0.14055,0.947066666666667,-0.1675,-0.1525,-0.13725,809.303,0,0,1,1
24-May-2018 12:58:39,78.625,0.3899,0.457255555555556,-0.650644444444444,-34.59375,11.343375,20.954375,95.158,-0.846425,-0.2234,-0.479775,-11.3022222222222,-15.5022222222222,-8.23333333333333,129.656,0.0559,-0.7473,0.7478,-0.52,-10.755,-1.745,1.072,0.38575,-0.14055,0.947066666666667,-0.1675,-0.1525,-0.13725,809.303,0,0,1,1
24-May-2018 12:58:39,78.625,0.3899,0.457255555555556,-0.650644444444444,-34.59375,11.343375,20.954375,95.158,-0.846425,-0.2234,-0.479775,-11.3022222222222,-15.5022222222222,-8.23333333333333,129.656,0.0559,-0.7473,0.7478,-0.52,-10.755,-1.745,1.072,0.38575,-0.14055,0.947066666666667,-0.1675,-0.1525,-0.13725,809.303,0,0,1,1
24-May-2018 12:58:39,78.625,0.3899,0.457255555555556,-0.650644444444444,-34.59375,11.343375,20.954375,95.158,-0.846425,-0.2234,-0.479775,-11.3022222222222,-15.5022222222222,-8.23333333333333,129.656,0,0,0,-0.52,-10.755,-1.745,1.072,0.38575,-0.14055,0.947066666666667,-0.1675,-0.1525,-0.13725,809.303,0,0,1,1
24-May-2018 12:58:40,52.1111111111111,0.384883333333333,0.4661,-0.755066666666667,4.04683333333333,6.423,-4.775,86.232,-0.84466,-0.227,-0.51908,20.941,-7.43025,15.918375,134.273,0.22615,-0.74195,0.7183,11.4125,8.142,-3.50033333333333,1.321,0.3853,-0.148833333333333,0.942733333333333,1.05716666666667,1.60583333333333,-0.305,812.2005,1,1,1,1
24-May-2018 12:58:40,52.1111111111111,0.384883333333333,0.4661,-0.755066666666667,4.04683333333333,6.423,-4.775,86.232,-0.84466,-0.227,-0.51908,20.941,-7.43025,15.918375,134.273,0.22615,-0.74195,0.7183,11.4125,8.142,-3.50033333333333,1.321,0.3853,-0.148833333333333,0.942733333333333,1.05716666666667,1.60583333333333,-0.305,812.2005,1,1,1,1
24-May-2018 12:58:40,52.1111111111111,0.384883333333333,0.4661,-0.755066666666667,4.04683333333333,6.423,-4.775,86.232,-0.84466,-0.227,-0.51908,20.941,-7.43025,15.918375,134.273,0.22615,-0.74195,0.7183,11.4125,8.142,-3.50033333333333,1.321,0.3853,-0.148833333333333,0.942733333333333,1.05716666666667,1.60583333333333,-0.305,812.2005,1,1,1,1
24-May-2018 12:58:40,52.1111111111111,0.384883333333333,0.4661,-0.755066666666667,4.04683333333333,6.423,-4.775,86.232,-0.84466,-0.227,-0.51908,20.941,-7.43025,15.918375,134.273,0.22615,-0.74195,0.7183,11.4125,8.142,-3.50033333333333,1.321,0.3853,-0.148833333333333,0.942733333333333,1.05716666666667,1.60583333333333,-0.305,812.2005,1,1,1,1
24-May-2018 12:58:41,-1871.33333333333,0.46144,0.49014,-0.70614,2.5,1.08225,0.397,97.765,-0.8618,-0.216075,-0.544525,46.03125,4.6485,36.01125,134.273,0.233966666666667,-0.760866666666667,0.692516666666667,0.0433333333333333,-0.727333333333333,0.305666666666667,1.2825,0.377866666666667,-0.1288,0.963,-16.128,3.4145,-0.6405,810.535,1,1,1,1
24-May-2018 12:58:41,-1871.33333333333,0.46144,0.49014,-0.70614,2.5,1.08225,0.397,97.765,-0.8618,-0.216075,-0.544525,46.03125,4.6485,36.01125,134.273,0.233966666666667,-0.760866666666667,0.692516666666667,0.0433333333333333,-0.727333333333333,0.305666666666667,1.2825,0.377866666666667,-0.1288,0.963,-16.128,3.4145,-0.6405,810.535,1,1,1,1
24-May-2018 12:58:41,-1871.33333333333,0.46144,0.49014,-0.70614,2.5,1.08225,0.397,97.765,-0.8618,-0.216075,-0.544525,46.03125,4.6485,36.01125,134.273,0.233966666666667,-0.760866666666667,0.692516666666667,0.0433333333333333,-0.727333333333333,0.305666666666667,1.2825,0.377866666666667,-0.1288,0.963,-16.128,3.4145,-0.6405,810.535,1,1,1,1
24-May-2018 12:58:41,-1871.33333333333,0.46144,0.49014,-0.70614,2.5,1.08225,0.397,97.765,-0.8618,-0.216075,-0.544525,46.03125,4.6485,36.01125,134.273,0.233966666666667,-0.760866666666667,0.692516666666667,0.0433333333333333,-0.727333333333333,0.305666666666667,1.2825,0.377866666666667,-0.1288,0.963,-16.128,3.4145,-0.6405,810.535,1,1,1,1
24-May-2018 12:58:42,-2048,0.470342857142857,0.4833,-0.714957142857143,1.83785714285714,-1.14871428571429,0.559,102.918666666667,-0.908825,-0.1359,-0.585725,77.867,24.137,66.194,130.083,0.229566666666667,-0.73935,0.712766666666667,0.6338,4.0736,0.528,1.3535,0.3829,-0.156975,0.944025,0.480375,0.465125,-0.038125,812.267,0,0,1,1
24-May-2018 12:58:42,-2048,0.470342857142857,0.4833,-0.714957142857143,1.83785714285714,-1.14871428571429,0.559,102.918666666667,-0.908825,-0.1359,-0.585725,77.867,24.137,66.194,130.083,0.229566666666667,-0.73935,0.712766666666667,0.6338,4.0736,0.528,1.3535,0.3829,-0.156975,0.944025,0.480375,0.465125,-0.038125,812.267,0,0,1,1
24-May-2018 12:58:42,-2048,0.470342857142857,0.4833,-0.714957142857143,1.83785714285714,-1.14871428571429,0.559,102.918666666667,-0.908825,-0.1359,-0.585725,77.867,24.137,66.194,130.083,0.229566666666667,-0.73935,0.712766666666667,0.6338,4.0736,0.528,1.3535,0.3829,-0.156975,0.944025,0.480375,0.465125,-0.038125,812.267,0,0,1,1
24-May-2018 12:58:42,-2048,0.470342857142857,0.4833,-0.714957142857143,1.83785714285714,-1.14871428571429,0.559,102.918666666667,-0.908825,-0.1359,-0.585725,77.867,24.137,66.194,130.083,0.229566666666667,-0.73935,0.712766666666667,0.6338,4.0736,0.528,1.3535,0.3829,-0.156975,0.944025,0.480375,0.465125,-0.038125,812.267,0,0,1,1
24-May-2018 12:58:43,-2048,0.461928571428571,0.492014285714286,-0.700057142857143,-1.36657142857143,0.106714285714286,-0.494142857142857,99.17025,-0.87984,0.00104,-0.52444,106.017777777778,20.9463333333333,91.8177777777778,125.893,0.06335,-0.68315,0.81275,-3.069,6.1352,-3.6314,3.01,0.38565,-0.165916666666667,0.932433333333333,-1.13833333333333,-0.345333333333333,0.325333333333333,812.62,0,0,1,1
24-May-2018 12:58:43,-2048,0.461928571428571,0.492014285714286,-0.700057142857143,-1.36657142857143,0.106714285714286,-0.494142857142857,99.17025,-0.87984,0.00104,-0.52444,106.017777777778,20.9463333333333,91.8177777777778,125.893,0.06335,-0.68315,0.81275,-3.069,6.1352,-3.6314,3.01,0.38565,-0.165916666666667,0.932433333333333,-1.13833333333333,-0.345333333333333,0.325333333333333,812.62,0,0,1,1
24-May-2018 12:58:43,-2048,0.461928571428571,0.492014285714286,-0.700057142857143,-1.36657142857143,0.106714285714286,-0.494142857142857,99.17025,-0.87984,0.00104,-0.52444,106.017777777778,20.9463333333333,91.8177777777778,125.893,0.06335,-0.68315,0.81275,-3.069,6.1352,-3.6314,3.01,0.38565,-0.165916666666667,0.932433333333333,-1.13833333333333,-0.345333333333333,0.325333333333333,812.62,0,0,1,1
24-May-2018 12:58:43,-2048,0.461928571428571,0.492014285714286,-0.700057142857143,-1.36657142857143,0.106714285714286,-0.494142857142857,99.17025,-0.87984,0.00104,-0.52444,106.017777777778,20.9463333333333,91.8177777777778,125.893,0.06335,-0.68315,0.81275,-3.069,6.1352,-3.6314,3.01,0.38565,-0.165916666666667,0.932433333333333,-1.13833333333333,-0.345333333333333,0.325333333333333,812.62,0,0,1,1
24-May-2018 12:58:44,-2018.66666666667,0.471685714285714,0.480142857142857,-0.704485714285714,3.00866666666667,1.33383333333333,0.6525,96.291,-0.854525,0.140975,-0.56295,102.08,21.0664444444444,107.382222222222,125.893,0.121833333333333,-0.691133333333333,0.804966666666667,1.93083333333333,-2.50683333333333,1.017,2.8074,0.365375,-0.158275,0.966475,2.28214285714286,1.64628571428571,-0.322285714285714,808.467666666667,1,1,1,1
24-May-2018 12:58:44,-2018.66666666667,0.471685714285714,0.480142857142857,-0.704485714285714,3.00866666666667,1.33383333333333,0.6525,96.291,-0.854525,0.140975,-0.56295,102.08,21.0664444444444,107.382222222222,125.893,0.121833333333333,-0.691133333333333,0.804966666666667,1.93083333333333,-2.50683333333333,1.017,2.8074,0.365375,-0.158275,0.966475,2.28214285714286,1.64628571428571,-0.322285714285714,808.467666666667,1,1,1,1
24-May-2018 12:58:44,-2018.66666666667,0.471685714285714,0.480142857142857,-0.704485714285714,3.00866666666667,1.33383333333333,0.6525,96.291,-0.854525,0.140975,-0.56295,102.08,21.0664444444444,107.382222222222,125.893,0.121833333333333,-0.691133333333333,0.804966666666667,1.93083333333333,-2.50683333333333,1.017,2.8074,0.365375,-0.158275,0.966475,2.28214285714286,1.64628571428571,-0.322285714285714,808.467666666667,1,1,1,1
24-May-2018 12:58:44,-2018.66666666667,0.471685714285714,0.480142857142857,-0.704485714285714,3.00866666666667,1.33383333333333,0.6525,96.291,-0.854525,0.140975,-0.56295,102.08,21.0664444444444,107.382222222222,125.893,0.121833333333333,-0.691133333333333,0.804966666666667,1.93083333333333,-2.50683333333333,1.017,2.8074,0.365375,-0.158275,0.966475,2.28214285714286,1.64628571428571,-0.322285714285714,808.467666666667,1,1,1,1
24-May-2018 12:58:45,-1559.55555555556,0.48116,0.46346,-0.71196,0.0623333333333333,0.865166666666667,0.173833333333333,103.9095,-0.7905,0.2536,-0.614175,82.1716666666667,14.1633333333333,115.15,134.726,0.136025,-0.66255,0.827575,-2.2626,-4.396,-0.8246,2.684,0.38125,-0.157,0.9463,0.406666666666667,0.366,-0.101666666666667,815.705,1,1,1,1
24-May-2018 12:58:45,-1559.55555555556,0.48116,0.46346,-0.71196,0.0623333333333333,0.865166666666667,0.173833333333333,103.9095,-0.7905,0.2536,-0.614175,82.1716666666667,14.1633333333333,115.15,134.726,0.136025,-0.66255,0.827575,-2.2626,-4.396,-0.8246,2.684,0.38125,-0.157,0.9463,0.406666666666667,0.366,-0.101666666666667,815.705,1,1,1,1
24-May-2018 12:58:45,-1559.55555555556,0.48116,0.46346,-0.71196,0.0623333333333333,0.865166666666667,0.173833333333333,103.9095,-0.7905,0.2536,-0.614175,82.1716666666667,14.1633333333333,115.15,134.726,0.136025,-0.66255,0.827575,-2.2626,-4.396,-0.8246,2.684,0.38125,-0.157,0.9463,0.406666666666667,0.366,-0.101666666666667,815.705,1,1,1,1
24-May-2018 12:58:45,-1559.55555555556,0.48116,0.46346,-0.71196,0.0623333333333333,0.865166666666667,0.173833333333333,103.9095,-0.7905,0.2536,-0.614175,82.1716666666667,14.1633333333333,115.15,134.726,0.136025,-0.66255,0.827575,-2.2626,-4.396,-0.8246,2.684,0.38125,-0.157,0.9463,0.406666666666667,0.366,-0.101666666666667,815.705,1,1,1,1
24-May-2018 12:58:46,1653,0.442714285714286,0.450871428571429,-0.751085714285714,5.219,13.5683333333333,2.54166666666667,106.211333333333,-0.71515,0.25085,-0.661975,94.7766666666667,-22.6411111111111,77.1233333333333,152.392,0.150466666666667,-0.691866666666667,0.790966666666667,-4.02,-1.52,-1.507,2.77633333333333,0.37102,-0.15394,0.94466,-1.26525,-0.0457500000000001,-0.183,818.106,0,0,1,1
24-May-2018 12:58:46,1653,0.442714285714286,0.450871428571429,-0.751085714285714,5.219,13.5683333333333,2.54166666666667,106.211333333333,-0.71515,0.25085,-0.661975,94.7766666666667,-22.6411111111111,77.1233333333333,152.392,0.150466666666667,-0.691866666666667,0.790966666666667,-4.02,-1.52,-1.507,2.77633333333333,0.37102,-0.15394,0.94466,-1.26525,-0.0457500000000001,-0.183,818.106,0,0,1,1
24-May-2018 12:58:46,1653,0.442714285714286,0.450871428571429,-0.751085714285714,5.219,13.5683333333333,2.54166666666667,106.211333333333,-0.71515,0.25085,-0.661975,94.7766666666667,-22.6411111111111,77.1233333333333,152.392,0.150466666666667,-0.691866666666667,0.790966666666667,-4.02,-1.52,-1.507,2.77633333333333,0.37102,-0.15394,0.94466,-1.26525,-0.0457500000000001,-0.183,818.106,0,0,1,1
24-May-2018 12:58:46,1653,0.442714285714286,0.450871428571429,-0.751085714285714,5.219,13.5683333333333,2.54166666666667,106.211333333333,-0.71515,0.25085,-0.661975,94.7766666666667,-22.6411111111111,77.1233333333333,152.392,0.150466666666667,-0.691866666666667,0.790966666666667,-4.02,-1.52,-1.507,2.77633333333333,0.37102,-0.15394,0.94466,-1.26525,-0.0457500000000001,-0.183,818.106,0,0,1,1
24-May-2018 12:58:47,2047,0.4627625,0.487875,-0.7072,0.987333333333333,0.902777777777778,0.550333333333333,106.211333333333,-0.81342,0.21724,-0.7096,97.3366666666667,-37.9184444444444,60.5244444444444,152.392,0.15176,-0.68504,0.8024,3.68925,-0.792,1.00625,2.76075,0.378625,-0.156275,0.945625,0.9045,0.467666666666667,-0.223666666666667,815.12,1,1,1,1
24-May-2018 12:58:47,2047,0.4627625,0.487875,-0.7072,0.987333333333333,0.902777777777778,0.550333333333333,106.211333333333,-0.81342,0.21724,-0.7096,97.3366666666667,-37.9184444444444,60.5244444444444,152.392,0.15176,-0.68504,0.8024,3.68925,-0.792,1.00625,2.76075,0.378625,-0.156275,0.945625,0.9045,0.467666666666667,-0.223666666666667,815.12,1,1,1,1
24-May-2018 12:58:47,2047,0.4627625,0.487875,-0.7072,0.987333333333333,0.902777777777778,0.550333333333333,106.211333333333,-0.81342,0.21724,-0.7096,97.3366666666667,-37.9184444444444,60.5244444444444,152.392,0.15176,-0.68504,0.8024,3.68925,-0.792,1.00625,2.76075,0.378625,-0.156275,0.945625,0.9045,0.467666666666667,-0.223666666666667,815.12,1,1,1,1
24-May-2018 12:58:47,2047,0.4627625,0.487875,-0.7072,0.987333333333333,0.902777777777778,0.550333333333333,106.211333333333,-0.81342,0.21724,-0.7096,97.3366666666667,-37.9184444444444,60.5244444444444,152.392,0.15176,-0.68504,0.8024,3.68925,-0.792,1.00625,2.76075,0.378625,-0.156275,0.945625,0.9045,0.467666666666667,-0.223666666666667,815.12,1,1,1,1
24-May-2018 12:58:48,1855.5,0.4826625,0.4587875,-0.714175,0.787111111111111,0.664777777777778,-0.00577777777777778,106.211333333333,-0.754725,0.174025,-0.67355,57.8371428571429,-13.0885714285714,32.1557142857143,147.7,0.149766666666667,-0.6726,0.8188,-3.56757142857143,-0.937428571428571,-1.37257142857143,2.67766666666667,0.363,-0.14848,0.95144,2.55228571428571,-0.0694285714285715,0.113142857142857,824.416,0,0,1,1
24-May-2018 12:58:48,1855.5,0.4826625,0.4587875,-0.714175,0.787111111111111,0.664777777777778,-0.00577777777777778,106.211333333333,-0.754725,0.174025,-0.67355,57.8371428571429,-13.0885714285714,32.1557142857143,147.7,0.149766666666667,-0.6726,0.8188,-3.56757142857143,-0.937428571428571,-1.37257142857143,2.67766666666667,0.363,-0.14848,0.95144,2.55228571428571,-0.0694285714285715,0.113142857142857,824.416,0,0,1,1
24-May-2018 12:58:48,1855.5,0.4826625,0.4587875,-0.714175,0.787111111111111,0.664777777777778,-0.00577777777777778,106.211333333333,-0.754725,0.174025,-0.67355,57.8371428571429,-13.0885714285714,32.1557142857143,147.7,0.149766666666667,-0.6726,0.8188,-3.56757142857143,-0.937428571428571,-1.37257142857143,2.67766666666667,0.363,-0.14848,0.95144,2.55228571428571,-0.0694285714285715,0.113142857142857,824.416,0,0,1,1
24-May-2018 12:58:48,1855.5,0.4826625,0.4587875,-0.714175,0.787111111111111,0.664777777777778,-0.00577777777777778,106.211333333333,-0.754725,0.174025,-0.67355,57.8371428571429,-13.0885714285714,32.1557142857143,147.7,0.149766666666667,-0.6726,0.8188,-3.56757142857143,-0.937428571428571,-1.37257142857143,2.67766666666667,0.363,-0.14848,0.95144,2.55228571428571,-0.0694285714285715,0.113142857142857,824.416,0,0,1,1
24-May-2018 12:58:49,1383.28571428571,0.4843,0.469,-0.7038,-2.1,-0.94,0.0005,106.211333333333,-0.75655,0.2108,-0.68415,42.84,-4.30666666666667,14.4266666666667,147.7,0.149766666666667,-0.6726,0.8188,-2.86,0.854,-0.73,2.749,0.3767,-0.1437,0.9434,-0.244,0.427,-0.061,814.92,1,1,1,1
24-May-2018 12:58:49,1383.28571428571,0.4843,0.469,-0.7038,-2.1,-0.94,0.0005,106.211333333333,-0.75655,0.2108,-0.68415,42.84,-4.30666666666667,14.4266666666667,147.7,0.149766666666667,-0.6726,0.8188,-2.86,0.854,-0.73,2.749,0.3767,-0.1437,0.9434,-0.244,0.427,-0.061,814.92,1,1,1,1
24-May-2018 12:58:49,1383.28571428571,0.4843,0.469,-0.7038,-2.1,-0.94,0.0005,106.211333333333,-0.75655,0.2108,-0.68415,42.84,-4.30666666666667,14.4266666666667,147.7,0.149766666666667,-0.6726,0.8188,-2.86,0.854,-0.73,2.749,0.3767,-0.1437,0.9434,-0.244,0.427,-0.061,814.92,1,1,1,1
24-May-2018 12:58:49,1383.28571428571,0.4843,0.469,-0.7038,-2.1,-0.94,0.0005,106.211333333333,-0.75655,0.2108,-0.68415,42.84,-4.30666666666667,14.4266666666667,0,0,0,0,-2.86,0.854,-0.73,2.749,0.3767,-0.1437,0.9434,-0.244,0.427,-0.061,814.92,1,1,1,1
24-May-2018 12:58:50,1043.22222222222,0.476483333333333,0.485933333333333,-0.695833333333333,-1.59183333333333,-0.760166666666667,-0.0286666666666667,106.211333333333,-0.77515,0.17985,-0.6997,48.655,-3.884,11.85875,145.354,0.16828,-0.70818,0.77132,2.2206,-1.1562,0.8172,2.873,0.37842,-0.15202,0.94506,0.5244,0.3416,-0.122,814.4,0,0,1,1
24-May-2018 12:58:50,1043.22222222222,0.476483333333333,0.485933333333333,-0.695833333333333,-1.59183333333333,-0.760166666666667,-0.0286666666666667,106.211333333333,-0.77515,0.17985,-0.6997,48.655,-3.884,11.85875,145.354,0.16828,-0.70818,0.77132,2.2206,-1.1562,0.8172,2.873,0.37842,-0.15202,0.94506,0.5244,0.3416,-0.122,814.4,0,0,1,1
24-May-2018 12:58:50,1043.22222222222,0.476483333333333,0.485933333333333,-0.695833333333333,-1.59183333333333,-0.760166666666667,-0.0286666666666667,106.211333333333,-0.77515,0.17985,-0.6997,48.655,-3.884,11.85875,145.354,0.16828,-0.70818,0.77132,2.2206,-1.1562,0.8172,2.873,0.37842,-0.15202,0.94506,0.5244,0.3416,-0.122,814.4,0,0,1,1
24-May-2018 12:58:50,1043.22222222222,0.476483333333333,0.485933333333333,-0.695833333333333,-1.59183333333333,-0.760166666666667,-0.0286666666666667,0,-0.77515,0.17985,-0.6997,48.655,-3.884,11.85875,145.354,0.16828,-0.70818,0.77132,2.2206,-1.1562,0.8172,2.873,0.37842,-0.15202,0.94506,0.5244,0.3416,-0.122,814.4,0,0,1,1
24-May-2018 12:58:51,844.333333333333,0.47672,0.48206,-0.69922,2.61314285714286,0.976428571428572,0.854,105.4506,-0.81746,0.12204,-0.68064,57.8775,14.906125,7.978,145.354,0.15394,-0.68242,0.80848,1.16,-0.363333333333333,0.0525,2.8652,0.2611,0.26635,0.40995,25.5013333333333,-48.0338888888889,-81.5901111111111,815.009,1,1,1,1
24-May-2018 12:58:51,844.333333333333,0.47672,0.48206,-0.69922,2.61314285714286,0.976428571428572,0.854,105.4506,-0.81746,0.12204,-0.68064,57.8775,14.906125,7.978,145.354,0.15394,-0.68242,0.80848,1.16,-0.363333333333333,0.0525,2.8652,0.2611,0.26635,0.40995,25.5013333333333,-48.0338888888889,-81.5901111111111,815.009,1,1,1,1
24-May-2018 12:58:51,844.333333333333,0.47672,0.48206,-0.69922,2.61314285714286,0.976428571428572,0.854,105.4506,-0.81746,0.12204,-0.68064,57.8775,14.906125,7.978,145.354,0.15394,-0.68242,0.80848,1.16,-0.363333333333333,0.0525,2.8652,0.2611,0.26635,0.40995,25.5013333333333,-48.0338888888889,-81.5901111111111,815.009,1,1,1,1
24-May-2018 12:58:51,844.333333333333,0.47672,0.48206,-0.69922,2.61314285714286,0.976428571428572,0.854,105.4506,-0.81746,0.12204,-0.68064,57.8775,14.906125,7.978,145.354,0.15394,-0.68242,0.80848,1.16,-0.363333333333333,0.0525,2.8652,0.2611,0.26635,0.40995,25.5013333333333,-48.0338888888889,-81.5901111111111,815.009,1,1,1,1
24-May-2018 12:58:52,748.5,0.483033333333333,0.463566666666667,-0.705116666666667,0.825,-1.42875,0.7775,109.497,-0.84488,-0.02432,-0.6137,23.7144444444444,7.64333333333333,2.89466666666667,130.894,0.167425,-0.687975,0.7935,-4.72,-1.225,-1.925,2.8365,-0.0660142857142857,0.955485714285714,-0.173242857142857,3.6485,2.00216666666667,3.28216666666667,341.2795,0,0,1,1
24-May-2018 12:58:52,748.5,0.483033333333333,0.463566666666667,-0.705116666666667,0.825,-1.42875,0.7775,109.497,-0.84488,-0.02432,-0.6137,23.7144444444444,7.64333333333333,2.89466666666667,130.894,0.167425,-0.687975,0.7935,-4.72,-1.225,-1.925,2.8365,-0.0660142857142857,0.955485714285714,-0.173242857142857,3.6485,2.00216666666667,3.28216666666667,341.2795,0,0,1,1
24-May-2018 12:58:52,748.5,0.483033333333333,0.463566666666667,-0.705116666666667,0.825,-1.42875,0.7775,109.497,-0.84488,-0.02432,-0.6137,23.7144444444444,7.64333333333333,2.89466666666667,130.894,0.167425,-0.687975,0.7935,-4.72,-1.225,-1.925,2.8365,-0.0660142857142857,0.955485714285714,-0.173242857142857,3.6485,2.00216666666667,3.28216666666667,341.2795,0,0,1,1
24-May-2018 12:58:52,748.5,0.483033333333333,0.463566666666667,-0.705116666666667,0.825,-1.42875,0.7775,109.497,-0.84488,-0.02432,-0.6137,23.7144444444444,7.64333333333333,2.89466666666667,130.894,0.167425,-0.687975,0.7935,-4.72,-1.225,-1.925,2.8365,-0.0660142857142857,0.955485714285714,-0.173242857142857,3.6485,2.00216666666667,3.28216666666667,341.2795,0,0,1,1
24-May-2018 12:58:53,600,0.48588,0.4814,-0.69598,-1.95428571428571,-0.651142857142857,-0.240714285714286,108.488,-0.835233333333333,-0.0859,-0.638133333333333,14.9333333333333,-6.85533333333333,-15.9,130.894,0.168275,-0.705325,0.770075,2.30375,-0.409,0.869,3.00966666666667,0.0263,0.98395,-0.21505,11.0975,-4.3295,21.0365,333.897,1,1,1,1
24-May-2018 12:58:53,600,0.48588,0.4814,-0.69598,-1.95428571428571,-0.651142857142857,-0.240714285714286,108.488,-0.835233333333333,-0.0859,-0.638133333333333,14.9333333333333,-6.85533333333333,-15.9,130.894,0.168275,-0.705325,0.770075,2.30375,-0.409,0.869,3.00966666666667,0.0263,0.98395,-0.21505,11.0975,-4.3295,21.0365,333.897,1,1,1,1
24-May-2018 12:58:53,600,0.48588,0.4814,-0.69598,-1.95428571428571,-0.651142857142857,-0.240714285714286,108.488,-0.835233333333333,-0.0859,-0.638133333333333,14.9333333333333,-6.85533333333333,-15.9,130.894,0.168275,-0.705325,0.770075,2.30375,-0.409,0.869,3.00966666666667,0.0263,0.98395,-0.21505,11.0975,-4.3295,21.0365,333.897,1,1,1,1
24-May-2018 12:58:53,600,0.48588,0.4814,-0.69598,-1.95428571428571,-0.651142857142857,-0.240714285714286,108.488,-0.835233333333333,-0.0859,-0.638133333333333,14.9333333333333,-6.85533333333333,-15.9,130.894,0.168275,-0.705325,0.770075,2.30375,-0.409,0.869,3.00966666666667,0.0263,0.98395,-0.21505,11.0975,-4.3295,21.0365,333.897,1,1,1,1
24-May-2018 12:58:54,436.7,0.474483333333333,0.49065,-0.6969,2.62216666666667,0.397333333333333,0.468666666666667,100.5545,-0.75334,-0.0963,-0.64712,17.818,-7.821,-2.6506,130.894,0.156233333333333,-0.666583333333333,0.817166666666667,0.864833333333333,-1.34916666666667,-0.0796666666666666,2.915,0.49105,0.3041,0.4298,-31.4837777777778,45.2914444444445,60.5757777777778,308.3655,1,1,1,1
24-May-2018 12:58:54,436.7,0.474483333333333,0.49065,-0.6969,2.62216666666667,0.397333333333333,0.468666666666667,100.5545,-0.75334,-0.0963,-0.64712,17.818,-7.821,-2.6506,130.894,0.156233333333333,-0.666583333333333,0.817166666666667,0.864833333333333,-1.34916666666667,-0.0796666666666666,2.915,0.49105,0.3041,0.4298,-31.4837777777778,45.2914444444445,60.5757777777778,308.3655,1,1,1,1
24-May-2018 12:58:54,436.7,0.474483333333333,0.49065,-0.6969,2.62216666666667,0.397333333333333,0.468666666666667,100.5545,-0.75334,-0.0963,-0.64712,17.818,-7.821,-2.6506,130.894,0.156233333333333,-0.666583333333333,0.817166666666667,0.864833333333333,-1.34916666666667,-0.0796666666666666,2.915,0.49105,0.3041,0.4298,-31.4837777777778,45.2914444444445,60.5757777777778,308.3655,1,1,1,1
24-May-2018 12:58:54,436.7,0.474483333333333,0.49065,-0.6969,2.62216666666667,0.397333333333333,0.468666666666667,100.5545,-0.75334,-0.0963,-0.64712,17.818,-7.821,-2.6506,130.894,0.156233333333333,-0.666583333333333,0.817166666666667,0.864833333333333,-1.34916666666667,-0.0796666666666666,2.915,0.49105,0.3041,0.4298,-31.4837777777778,45.2914444444445,60.5757777777778,308.3655,1,1,1,1
24-May-2018 12:58:55,323,0.486975,0.46695,-0.708625,1.77916666666667,1.76866666666667,0.976666666666667,106.344,-0.76665,-0.1457,-0.649675,14.4896666666667,-10.6966666666667,10.6337777777778,128.259333333333,0.155775,-0.673525,0.810625,-4.1125,-0.63875,-1.59475,2.71775,0.46212,-0.13484,0.9057,6.9878,1.6586,1.805,782.9515,1,1,1,1
24-May-2018 12:58:55,323,0.486975,0.46695,-0.708625,1.77916666666667,1.76866666666667,0.976666666666667,106.344,-0.76665,-0.1457,-0.649675,14.4896666666667,-10.6966666666667,10.6337777777778,128.259333333333,0.155775,-0.673525,0.810625,-4.1125,-0.63875,-1.59475,2.71775,0.46212,-0.13484,0.9057,6.9878,1.6586,1.805,782.9515,1,1,1,1
24-May-2018 12:58:55,323,0.486975,0.46695,-0.708625,1.77916666666667,1.76866666666667,0.976666666666667,106.344,-0.76665,-0.1457,-0.649675,14.4896666666667,-10.6966666666667,10.6337777777778,128.259333333333,0.155775,-0.673525,0.810625,-4.1125,-0.63875,-1.59475,2.71775,0.46212,-0.13484,0.9057,6.9878,1.6586,1.805,782.9515,1,1,1,1
24-May-2018 12:58:55,323,0.486975,0.46695,-0.708625,1.77916666666667,1.76866666666667,0.976666666666667,106.344,-0.76665,-0.1457,-0.649675,14.4896666666667,-10.6966666666667,10.6337777777778,128.259333333333,0.155775,-0.673525,0.810625,-4.1125,-0.63875,-1.59475,2.71775,0.46212,-0.13484,0.9057,6.9878,1.6586,1.805,782.9515,1,1,1,1
24-May-2018 12:58:56,238.6,0.47212,0.48472,-0.70162,-1.76428571428571,-1.45985714285714,-0.249857142857143,105.920666666667,-0.80746,-0.1133,-0.7071,-11.3688888888889,-2.714,12.6722222222222,126.942,0.169571428571429,-0.6991,0.782657142857143,0.529833333333333,-2.62666666666667,0.4075,2.8405,0.440042857142857,-0.135542857142857,0.923685714285714,0.853714285714286,1.01057142857143,-0.156857142857143,789.087,1,1,1,1
24-May-2018 12:58:56,238.6,0.47212,0.48472,-0.70162,-1.76428571428571,-1.45985714285714,-0.249857142857143,105.920666666667,-0.80746,-0.1133,-0.7071,-11.3688888888889,-2.714,12.6722222222222,126.942,0.169571428571429,-0.6991,0.782657142857143,0.529833333333333,-2.62666666666667,0.4075,2.8405,0.440042857142857,-0.135542857142857,0.923685714285714,0.853714285714286,1.01057142857143,-0.156857142857143,789.087,1,1,1,1
24-May-2018 12:58:56,238.6,0.47212,0.48472,-0.70162,-1.76428571428571,-1.45985714285714,-0.249857142857143,105.920666666667,-0.80746,-0.1133,-0.7071,-11.3688888888889,-2.714,12.6722222222222,126.942,0.169571428571429,-0.6991,0.782657142857143,0.529833333333333,-2.62666666666667,0.4075,2.8405,0.440042857142857,-0.135542857142857,0.923685714285714,0.853714285714286,1.01057142857143,-0.156857142857143,789.087,1,1,1,1
24-May-2018 12:58:56,238.6,0.47212,0.48472,-0.70162,-1.76428571428571,-1.45985714285714,-0.249857142857143,105.920666666667,-0.80746,-0.1133,-0.7071,-11.3688888888889,-2.714,12.6722222222222,126.942,0.169571428571429,-0.6991,0.782657142857143,0.529833333333333,-2.62666666666667,0.4075,2.8405,0.440042857142857,-0.135542857142857,0.923685714285714,0.853714285714286,1.01057142857143,-0.156857142857143,789.087,1,1,1,1
24-May-2018 12:58:57,-147.222222222222,0.4818375,0.47595,-0.70475,2.87583333333333,2.2665,0.569833333333333,99.06,-0.893625,-0.00945,-0.712375,-23.4222222222222,19.8143333333333,24.5,126.942,0.14028,-0.65154,0.83144,2.308,2.53,-0.179166666666667,2.71825,0.437116666666667,-0.137583333333333,0.926833333333333,-0.183,2.012,0.36575,791.524666666667,1,1,1,1
24-May-2018 12:58:57,-147.222222222222,0.4818375,0.47595,-0.70475,2.87583333333333,2.2665,0.569833333333333,99.06,-0.893625,-0.00945,-0.712375,-23.4222222222222,19.8143333333333,24.5,126.942,0.14028,-0.65154,0.83144,2.308,2.53,-0.179166666666667,2.71825,0.437116666666667,-0.137583333333333,0.926833333333333,-0.183,2.012,0.36575,791.524666666667,1,1,1,1
24-May-2018 12:58:57,-147.222222222222,0.4818375,0.47595,-0.70475,2.87583333333333,2.2665,0.569833333333333,99.06,-0.893625,-0.00945,-0.712375,-23.4222222222222,19.8143333333333,24.5,126.942,0.14028,-0.65154,0.83144,2.308,2.53,-0.179166666666667,2.71825,0.437116666666667,-0.137583333333333,0.926833333333333,-0.183,2.012,0.36575,791.524666666667,1,1,1,1
24-May-2018 12:58:57,-147.222222222222,0.4818375,0.47595,-0.70475,2.87583333333333,2.2665,0.569833333333333,99.06,-0.893625,-0.00945,-0.712375,-23.4222222222222,19.8143333333333,24.5,126.942,0.14028,-0.65154,0.83144,2.308,2.53,-0.179166666666667,2.71825,0.437116666666667,-0.137583333333333,0.926833333333333,-0.183,2.012,0.36575,791.524666666667,1,1,1,1
24-May-2018 12:58:58,-415.8,0.4897375,0.4508875,-0.71235,1.464625,-0.569125,0.945625,99.06,-0.8024,0.17984,-0.5726,-12.4304444444444,16.877,24.5144444444444,114.23,0.165925,-0.677275,0.806025,-4.24483333333333,-1.94883333333333,-0.8005,2.70566666666667,0.41762,-0.06222,0.94482,2.7074,2.3292,-1.2318,795.317666666667,0,0,1,1
24-May-2018 12:58:58,-415.8,0.4897375,0.4508875,-0.71235,1.464625,-0.569125,0.945625,99.06,-0.8024,0.17984,-0.5726,-12.4304444444444,16.877,24.5144444444444,114.23,0.165925,-0.677275,0.806025,-4.24483333333333,-1.94883333333333,-0.8005,2.70566666666667,0.41762,-0.06222,0.94482,2.7074,2.3292,-1.2318,795.317666666667,0,0,1,1
24-May-2018 12:58:58,-415.8,0.4897375,0.4508875,-0.71235,1.464625,-0.569125,0.945625,99.06,-0.8024,0.17984,-0.5726,-12.4304444444444,16.877,24.5144444444444,114.23,0.165925,-0.677275,0.806025,-4.24483333333333,-1.94883333333333,-0.8005,2.70566666666667,0.41762,-0.06222,0.94482,2.7074,2.3292,-1.2318,795.317666666667,0,0,1,1
24-May-2018 12:58:58,-415.8,0.4897375,0.4508875,-0.71235,1.464625,-0.569125,0.945625,99.06,-0.8024,0.17984,-0.5726,-12.4304444444444,16.877,24.5144444444444,114.23,0.165925,-0.677275,0.806025,-4.24483333333333,-1.94883333333333,-0.8005,2.70566666666667,0.41762,-0.06222,0.94482,2.7074,2.3292,-1.2318,795.317666666667,0,0,1,1
24-May-2018 12:58:59,106.777777777778,0.490788888888889,0.463,-0.708222222222222,-0.125444444444444,0.381222222222222,0.212111111111111,99.06,-0.796175,0.120625,-0.629425,28.282,-34.53,2.5192,114.23,0.169366666666667,-0.695533333333333,0.794833333333333,2.37833333333333,0.467666666666667,0.105666666666667,2.844,0.40154,-0.00674,0.922,-16.57,1.7835,2.37825,802.078,1,1,1,1
24-May-2018 12:58:59,106.777777777778,0.490788888888889,0.463,-0.708222222222222,-0.125444444444444,0.381222222222222,0.212111111111111,99.06,-0.796175,0.120625,-0.629425,28.282,-34.53,2.5192,114.23,0.169366666666667,-0.695533333333333,0.794833333333333,2.37833333333333,0.467666666666667,0.105666666666667,2.844,0.40154,-0.00674,0.922,-16.57,1.7835,2.37825,802.078,1,1,1,1
24-May-2018 12:58:59,106.777777777778,0.490788888888889,0.463,-0.708222222222222,-0.125444444444444,0.381222222222222,0.212111111111111,99.06,-0.796175,0.120625,-0.629425,28.282,-34.53,2.5192,114.23,0.169366666666667,-0.695533333333333,0.794833333333333,2.37833333333333,0.467666666666667,0.105666666666667,2.844,0.40154,-0.00674,0.922,-16.57,1.7835,2.37825,802.078,1,1,1,1
24-May-2018 12:58:59,106.777777777778,0.490788888888889,0.463,-0.708222222222222,-0.125444444444444,0.381222222222222,0.212111111111111,99.06,-0.796175,0.120625,-0.629425,28.282,-34.53,2.5192,114.23,0.169366666666667,-0.695533333333333,0.794833333333333,2.37833333333333,0.467666666666667,0.105666666666667,2.844,0.40154,-0.00674,0.922,-16.57,1.7835,2.37825,802.078,1,1,1,1
24-May-2018 12:59:00,377.888888888889,0.4773,0.483875,-0.6981,1.25444444444444,0.0907777777777777,0.366777777777778,99.06,-0.79478,0.12598,-0.59264,-4.94433333333333,-25.3444444444444,-6.94555555555555,114.23,0.100525,-0.64595,0.858775,5.0126,10.8906,-1.0352,2.5535,0.41138,-0.07342,0.93272,1.96133333333333,0.62,-0.304833333333333,802.078,1,1,1,1
24-May-2018 12:59:00,377.888888888889,0.4773,0.483875,-0.6981,1.25444444444444,0.0907777777777777,0.366777777777778,99.06,-0.79478,0.12598,-0.59264,-4.94433333333333,-25.3444444444444,-6.94555555555555,114.23,0.100525,-0.64595,0.858775,5.0126,10.8906,-1.0352,2.5535,0.41138,-0.07342,0.93272,1.96133333333333,0.62,-0.304833333333333,802.078,1,1,1,1
24-May-2018 12:59:00,377.888888888889,0.4773,0.483875,-0.6981,1.25444444444444,0.0907777777777777,0.366777777777778,99.06,-0.79478,0.12598,-0.59264,-4.94433333333333,-25.3444444444444,-6.94555555555555,114.23,0.100525,-0.64595,0.858775,5.0126,10.8906,-1.0352,2.5535,0.41138,-0.07342,0.93272,1.96133333333333,0.62,-0.304833333333333,802.078,1,1,1,1
24-May-2018 12:59:00,377.888888888889,0.4773,0.483875,-0.6981,1.25444444444444,0.0907777777777777,0.366777777777778,99.06,-0.79478,0.12598,-0.59264,-4.94433333333333,-25.3444444444444,-6.94555555555555,114.23,0.100525,-0.64595,0.858775,5.0126,10.8906,-1.0352,2.5535,0.41138,-0.07342,0.93272,1.96133333333333,0.62,-0.304833333333333,0,1,1,1,1
24-May-2018 12:59:01,291.714285714286,0.495783333333333,0.462983333333333,-0.706016666666667,3.11942857142857,1.23828571428571,0.803142857142857,99.06,-0.873925,0.13575,-0.626875,-2.448125,-0.56325,-15.76625,107.744,0.0486,-0.62362,0.87764,-1.09333333333333,-0.486,-0.381666666666667,2.343,0.404371428571429,-0.0964714285714286,0.943457142857143,-0.566142857142857,0.618714285714286,-0.304833333333333,804.659,0,0,1,1
24-May-2018 12:59:01,291.714285714286,0.495783333333333,0.462983333333333,-0.706016666666667,3.11942857142857,1.23828571428571,0.803142857142857,99.06,-0.873925,0.13575,-0.626875,-2.448125,-0.56325,-15.76625,107.744,0.0486,-0.62362,0.87764,-1.09333333333333,-0.486,-0.381666666666667,2.343,0.404371428571429,-0.0964714285714286,0.943457142857143,-0.566142857142857,0.618714285714286,-0.304833333333333,804.659,0,0,1,1
24-May-2018 12:59:01,291.714285714286,0.495783333333333,0.462983333333333,-0.706016666666667,3.11942857142857,1.23828571428571,0.803142857142857,99.06,-0.873925,0.13575,-0.626875,-2.448125,-0.56325,-15.76625,107.744,0.0486,-0.62362,0.87764,-1.09333333333333,-0.486,-0.381666666666667,2.343,0.404371428571429,-0.0964714285714286,0.943457142857143,-0.566142857142857,0.618714285714286,-0.304833333333333,804.659,0,0,1,1
24-May-2018 12:59:01,291.714285714286,0.495783333333333,0.462983333333333,-0.706016666666667,3.11942857142857,1.23828571428571,0.803142857142857,0,-0.873925,0.13575,-0.626875,-2.448125,-0.56325,-15.76625,107.744,0.0486,-0.62362,0.87764,-1.09333333333333,-0.486,-0.381666666666667,2.343,0.404371428571429,-0.0964714285714286,0.943457142857143,-0.566142857142857,0.618714285714286,0,804.659,0,0,1,1
24-May-2018 12:59:02,229.666666666667,0.4949,0.460075,-0.716175,-0.2735,-0.202,-0.426,109.841333333333,-0.976325,0.02705,-0.6479,25.62125,26.597,-20.5,107.744,0.0766,-0.754442857142857,0.7494,-6.82933333333333,-7.468,0.124166666666667,2.598,0.401828571428571,-0.126728571428571,0.943242857142857,0.2074,0.6344,0.1708,804.3765,1,1,1,1
24-May-2018 12:59:02,229.666666666667,0.4949,0.460075,-0.716175,-0.2735,-0.202,-0.426,109.841333333333,-0.976325,0.02705,-0.6479,25.62125,26.597,-20.5,107.744,0.0766,-0.754442857142857,0.7494,-6.82933333333333,-7.468,0.124166666666667,2.598,0.401828571428571,-0.126728571428571,0.943242857142857,0.2074,0.6344,0.1708,804.3765,1,1,1,1
24-May-2018 12:59:02,229.666666666667,0.4949,0.460075,-0.716175,-0.2735,-0.202,-0.426,109.841333333333,-0.976325,0.02705,-0.6479,25.62125,26.597,-20.5,107.744,0.0766,-0.754442857142857,0.7494,-6.82933333333333,-7.468,0.124166666666667,2.598,0.401828571428571,-0.126728571428571,0.943242857142857,0.2074,0.6344,0.1708,804.3765,1,1,1,1
24-May-2018 12:59:02,229.666666666667,0.4949,0.460075,-0.716175,-0.2735,-0.202,-0.426,109.841333333333,-0.976325,0.02705,-0.6479,25.62125,26.597,-20.5,107.744,0.0766,-0.754442857142857,0.7494,-6.82933333333333,-7.468,0.124166666666667,2.598,0.401828571428571,-0.126728571428571,0.943242857142857,0.2074,0.6344,0.1708,804.3765,1,1,1,1
24-May-2018 12:59:03,1351,0.4945125,0.4768875,-0.696925,2.10516666666667,-0.394833333333333,-0.487,102.767666666667,-0.84994,-0.12178,-0.45224,28.6093333333333,13.19,-15.3555555555556,104.7645,0.06424,-0.76006,0.73966,1.6015,-0.94,1.311,3.40666666666667,0.4009,-0.11508,0.9428,1.00633333333333,0.488,-0.101666666666667,804.27425,0,0,1,1
24-May-2018 12:59:03,1351,0.4945125,0.4768875,-0.696925,2.10516666666667,-0.394833333333333,-0.487,102.767666666667,-0.84994,-0.12178,-0.45224,28.6093333333333,13.19,-15.3555555555556,104.7645,0.06424,-0.76006,0.73966,1.6015,-0.94,1.311,3.40666666666667,0.4009,-0.11508,0.9428,1.00633333333333,0.488,-0.101666666666667,804.27425,0,0,1,1
24-May-2018 12:59:03,1351,0.4945125,0.4768875,-0.696925,2.10516666666667,-0.394833333333333,-0.487,102.767666666667,-0.84994,-0.12178,-0.45224,28.6093333333333,13.19,-15.3555555555556,104.7645,0.06424,-0.76006,0.73966,1.6015,-0.94,1.311,3.40666666666667,0.4009,-0.11508,0.9428,1.00633333333333,0.488,-0.101666666666667,804.27425,0,0,1,1
24-May-2018 12:59:03,1351,0.4945125,0.4768875,-0.696925,2.10516666666667,-0.394833333333333,-0.487,102.767666666667,-0.84994,-0.12178,-0.45224,28.6093333333333,13.19,-15.3555555555556,104.7645,0.06424,-0.76006,0.73966,1.6015,-0.94,1.311,3.40666666666667,0.4009,-0.11508,0.9428,1.00633333333333,0.488,-0.101666666666667,804.27425,0,0,1,1
24-May-2018 12:59:04,1812.22222222222,0.464642857142857,0.454485714285714,-0.7022,3.712,-8.95125,1.137375,101.914,-0.828675,-0.1393,-0.53125,0.7954,-20.114,0.0979,95.826,0.0573333333333333,-0.7548,0.749266666666667,-2.53666666666667,-0.12,-1.60333333333333,3.7295,0.399683333333333,-0.108983333333333,0.943183333333333,-0.0305,0.53375,0.122,804.404,0,1,1,1
24-May-2018 12:59:04,1812.22222222222,0.464642857142857,0.454485714285714,-0.7022,3.712,-8.95125,1.137375,101.914,-0.828675,-0.1393,-0.53125,0.7954,-20.114,0.0979,95.826,0.0573333333333333,-0.7548,0.749266666666667,-2.53666666666667,-0.12,-1.60333333333333,3.7295,0.399683333333333,-0.108983333333333,0.943183333333333,-0.0305,0.53375,0.122,804.404,0,1,1,1
24-May-2018 12:59:04,1812.22222222222,0.464642857142857,0.454485714285714,-0.7022,3.712,-8.95125,1.137375,101.914,-0.828675,-0.1393,-0.53125,0.7954,-20.114,0.0979,95.826,0.0573333333333333,-0.7548,0.749266666666667,-2.53666666666667,-0.12,-1.60333333333333,3.7295,0.399683333333333,-0.108983333333333,0.943183333333333,-0.0305,0.53375,0.122,804.404,0,1,1,1
24-May-2018 12:59:04,1812.22222222222,0.464642857142857,0.454485714285714,-0.7022,3.712,-8.95125,1.137375,101.914,-0.828675,-0.1393,-0.53125,0.7954,-20.114,0.0979,95.826,0.0573333333333333,-0.7548,0.749266666666667,-2.53666666666667,-0.12,-1.60333333333333,3.7295,0.399683333333333,-0.108983333333333,0.943183333333333,-0.0305,0.53375,0.122,804.404,0,1,1,1
24-May-2018 12:59:05,1827.375,0.464514285714286,0.432,-0.745657142857143,-0.668714285714286,-0.730142857142857,0.514714285714286,111.202666666667,-0.84078,-0.1821,-0.53364,6.48355555555556,-15.2022222222222,8.12133333333333,95.826,0.0767888888888889,-0.776344444444444,0.716966666666667,-1.1105,-0.821,-0.623,3.59,0.401683333333333,-0.1028,0.938766666666667,1.59533333333333,0.366,-0.203166666666667,804.01675,0,1,1,1
24-May-2018 12:59:05,1827.375,0.464514285714286,0.432,-0.745657142857143,-0.668714285714286,-0.730142857142857,0.514714285714286,111.202666666667,-0.84078,-0.1821,-0.53364,6.48355555555556,-15.2022222222222,8.12133333333333,95.826,0.0767888888888889,-0.776344444444444,0.716966666666667,-1.1105,-0.821,-0.623,3.59,0.401683333333333,-0.1028,0.938766666666667,1.59533333333333,0.366,-0.203166666666667,804.01675,0,1,1,1
24-May-2018 12:59:05,1827.375,0.464514285714286,0.432,-0.745657142857143,-0.668714285714286,-0.730142857142857,0.514714285714286,111.202666666667,-0.84078,-0.1821,-0.53364,6.48355555555556,-15.2022222222222,8.12133333333333,95.826,0.0767888888888889,-0.776344444444444,0.716966666666667,-1.1105,-0.821,-0.623,3.59,0.401683333333333,-0.1028,0.938766666666667,1.59533333333333,0.366,-0.203166666666667,804.01675,0,1,1,1
24-May-2018 12:59:05,1827.375,0.464514285714286,0.432,-0.745657142857143,-0.668714285714286,-0.730142857142857,0.514714285714286,111.202666666667,-0.84078,-0.1821,-0.53364,6.48355555555556,-15.2022222222222,8.12133333333333,95.826,0.0767888888888889,-0.776344444444444,0.716966666666667,-1.1105,-0.821,-0.623,3.59,0.401683333333333,-0.1028,0.938766666666667,1.59533333333333,0.366,-0.203166666666667,804.01675,0,1,1,1
24-May-2018 12:59:06,1396.625,0.437857142857143,0.465942857142857,-0.727857142857143,2.37857142857143,9.34142857142857,0.107285714285714,106.318,-0.86978,-0.14206,-0.58792,-15.04,-4.54,13.5322222222222,89.7485,0.06455,-0.764375,0.73865,1.433,-0.891833333333333,1.01633333333333,3.6835,0.400857142857143,-0.106057142857143,0.944042857142857,0.3538,0.427,-0.2684,803.086,0,0,1,1
24-May-2018 12:59:06,1396.625,0.437857142857143,0.465942857142857,-0.727857142857143,2.37857142857143,9.34142857142857,0.107285714285714,106.318,-0.86978,-0.14206,-0.58792,-15.04,-4.54,13.5322222222222,89.7485,0.06455,-0.764375,0.73865,1.433,-0.891833333333333,1.01633333333333,3.6835,0.400857142857143,-0.106057142857143,0.944042857142857,0.3538,0.427,-0.2684,803.086,0,0,1,1
24-May-2018 12:59:06,1396.625,0.437857142857143,0.465942857142857,-0.727857142857143,2.37857142857143,9.34142857142857,0.107285714285714,106.318,-0.86978,-0.14206,-0.58792,-15.04,-4.54,13.5322222222222,89.7485,0.06455,-0.764375,0.73865,1.433,-0.891833333333333,1.01633333333333,3.6835,0.400857142857143,-0.106057142857143,0.944042857142857,0.3538,0.427,-0.2684,803.086,0,0,1,1
24-May-2018 12:59:06,1396.625,0.437857142857143,0.465942857142857,-0.727857142857143,2.37857142857143,9.34142857142857,0.107285714285714,106.318,-0.86978,-0.14206,-0.58792,-15.04,-4.54,13.5322222222222,89.7485,0.06455,-0.764375,0.73865,1.433,-0.891833333333333,1.01633333333333,3.6835,0.400857142857143,-0.106057142857143,0.944042857142857,0.3538,0.427,-0.2684,803.086,0,0,1,1
24-May-2018 12:59:07,818.25,0.486166666666667,0.463666666666667,-0.7062,2.236,0.665444444444445,0.847111111111111,95.2555,-0.95325,-0.053175,-0.614925,-27.6333333333333,15.364,17.38,83.671,0.05745,-0.75555,0.746075,-1.27783333333333,-0.11,-0.8215,3.691,0.39764,-0.1078,0.94504,0.863833333333333,0.589666666666667,-0.0406666666666667,803.932,1,1,1,1
24-May-2018 12:59:07,818.25,0.486166666666667,0.463666666666667,-0.7062,2.236,0.665444444444445,0.847111111111111,95.2555,-0.95325,-0.053175,-0.614925,-27.6333333333333,15.364,17.38,83.671,0.05745,-0.75555,0.746075,-1.27783333333333,-0.11,-0.8215,3.691,0.39764,-0.1078,0.94504,0.863833333333333,0.589666666666667,-0.0406666666666667,803.932,1,1,1,1
24-May-2018 12:59:07,818.25,0.486166666666667,0.463666666666667,-0.7062,2.236,0.665444444444445,0.847111111111111,95.2555,-0.95325,-0.053175,-0.614925,-27.6333333333333,15.364,17.38,83.671,0.05745,-0.75555,0.746075,-1.27783333333333,-0.11,-0.8215,3.691,0.39764,-0.1078,0.94504,0.863833333333333,0.589666666666667,-0.0406666666666667,803.932,1,1,1,1
24-May-2018 12:59:07,818.25,0.486166666666667,0.463666666666667,-0.7062,2.236,0.665444444444445,0.847111111111111,95.2555,-0.95325,-0.053175,-0.614925,-27.6333333333333,15.364,17.38,83.671,0.05745,-0.75555,0.746075,-1.27783333333333,-0.11,-0.8215,3.691,0.39764,-0.1078,0.94504,0.863833333333333,0.589666666666667,-0.0406666666666667,803.932,1,1,1,1
24-May-2018 12:59:08,-112.428571428571,0.49705,0.4509,-0.706075,-1.92214285714286,0.246,-0.067,95.2555,-0.89434,0.10852,-0.4529,-29.9666666666667,19.1917777777778,11.5013333333333,83.671,0.0802333333333333,-0.779,0.710766666666667,-3.03483333333333,-1.305,-1.8855,3.635,0.39685,-0.115375,0.943725,0.04575,0.41175,0.22875,804.714666666667,1,1,1,1
24-May-2018 12:59:08,-112.428571428571,0.49705,0.4509,-0.706075,-1.92214285714286,0.246,-0.067,95.2555,-0.89434,0.10852,-0.4529,-29.9666666666667,19.1917777777778,11.5013333333333,83.671,0.0802333333333333,-0.779,0.710766666666667,-3.03483333333333,-1.305,-1.8855,3.635,0.39685,-0.115375,0.943725,0.04575,0.41175,0.22875,804.714666666667,1,1,1,1
24-May-2018 12:59:08,-112.428571428571,0.49705,0.4509,-0.706075,-1.92214285714286,0.246,-0.067,95.2555,-0.89434,0.10852,-0.4529,-29.9666666666667,19.1917777777778,11.5013333333333,83.671,0.0802333333333333,-0.779,0.710766666666667,-3.03483333333333,-1.305,-1.8855,3.635,0.39685,-0.115375,0.943725,0.04575,0.41175,0.22875,804.714666666667,1,1,1,1
24-May-2018 12:59:08,-112.428571428571,0.49705,0.4509,-0.706075,-1.92214285714286,0.246,-0.067,95.2555,-0.89434,0.10852,-0.4529,-29.9666666666667,19.1917777777778,11.5013333333333,83.671,0.0802333333333333,-0.779,0.710766666666667,-3.03483333333333,-1.305,-1.8855,3.635,0.39685,-0.115375,0.943725,0.04575,0.41175,0.22875,804.714666666667,1,1,1,1
24-May-2018 12:59:09,-1296.9,0.4874375,0.490375,-0.685425,-0.0243333333333334,-0.194555555555556,0.191444444444444,95.2555,-0.89655,0.113625,-0.518325,0.665777777777778,-7.29288888888889,-2.60133333333333,91.3676666666667,0.07265,-0.773075,0.722125,2.3414,-1.032,1.5732,3.614,0.3969,-0.11605,0.94285,1.03671428571429,0.566428571428571,-0.226571428571429,802.997,1,1,1,1
24-May-2018 12:59:09,-1296.9,0.4874375,0.490375,-0.685425,-0.0243333333333334,-0.194555555555556,0.191444444444444,95.2555,-0.89655,0.113625,-0.518325,0.665777777777778,-7.29288888888889,-2.60133333333333,91.3676666666667,0.07265,-0.773075,0.722125,2.3414,-1.032,1.5732,3.614,0.3969,-0.11605,0.94285,1.03671428571429,0.566428571428571,-0.226571428571429,802.997,1,1,1,1
24-May-2018 12:59:09,-1296.9,0.4874375,0.490375,-0.685425,-0.0243333333333334,-0.194555555555556,0.191444444444444,95.2555,-0.89655,0.113625,-0.518325,0.665777777777778,-7.29288888888889,-2.60133333333333,91.3676666666667,0.07265,-0.773075,0.722125,2.3414,-1.032,1.5732,3.614,0.3969,-0.11605,0.94285,1.03671428571429,0.566428571428571,-0.226571428571429,802.997,1,1,1,1
24-May-2018 12:59:09,-1296.9,0.4874375,0.490375,-0.685425,-0.0243333333333334,-0.194555555555556,0.191444444444444,95.2555,-0.89655,0.113625,-0.518325,0.665777777777778,-7.29288888888889,-2.60133333333333,91.3676666666667,0.07265,-0.773075,0.722125,2.3414,-1.032,1.5732,3.614,0.3969,-0.11605,0.94285,1.03671428571429,0.566428571428571,-0.226571428571429,802.997,1,1,1,1
24-May-2018 12:59:10,-1384.5,0.49513,0.46415,-0.69725,3.49583333333333,1.01783333333333,0.9455,95.2555,-0.85584,0.09374,-0.52156,-46.65,-11.135,-26.6,95.216,0.0605333333333333,-0.758133333333333,0.741533333333333,1.768,-0.425,0.8235,3.798,0.3962,-0.10458,0.94524,0.569,0.589666666666667,0.101666666666667,804.449,1,1,1,1
24-May-2018 12:59:10,-1384.5,0.49513,0.46415,-0.69725,3.49583333333333,1.01783333333333,0.9455,95.2555,-0.85584,0.09374,-0.52156,-46.65,-11.135,-26.6,95.216,0.0605333333333333,-0.758133333333333,0.741533333333333,1.768,-0.425,0.8235,3.798,0.3962,-0.10458,0.94524,0.569,0.589666666666667,0.101666666666667,804.449,1,1,1,1
24-May-2018 12:59:10,-1384.5,0.49513,0.46415,-0.69725,3.49583333333333,1.01783333333333,0.9455,95.2555,-0.85584,0.09374,-0.52156,-46.65,-11.135,-26.6,95.216,0.0605333333333333,-0.758133333333333,0.741533333333333,1.768,-0.425,0.8235,3.798,0.3962,-0.10458,0.94524,0.569,0.589666666666667,0.101666666666667,804.449,1,1,1,1
24-May-2018 12:59:10,-1384.5,0.49513,0.46415,-0.69725,3.49583333333333,1.01783333333333,0.9455,95.2555,-0.85584,0.09374,-0.52156,-46.65,-11.135,-26.6,95.216,0.0605333333333333,-0.758133333333333,0.741533333333333,1.768,-0.425,0.8235,3.798,0.3962,-0.10458,0.94524,0.569,0.589666666666667,0.101666666666667,804.449,1,1,1,1
24-May-2018 12:59:11,-1153.66666666667,0.50888,0.4429,-0.70532,0.588,-0.0348,0.4272,102.287,-0.86696,0.11538,-0.5552,-81.3444444444444,-2.72066666666667,-53.2444444444444,93.384,0.0625833333333333,-0.7596,0.740633333333333,-1.8038,-1.0196,-1.4714,3.68933333333333,0.39608,-0.10278,0.94654,-0.4634,0.5246,-0.1098,805.169,1,1,1,1
24-May-2018 12:59:11,-1153.66666666667,0.50888,0.4429,-0.70532,0.588,-0.0348,0.4272,102.287,-0.86696,0.11538,-0.5552,-81.3444444444444,-2.72066666666667,-53.2444444444444,93.384,0.0625833333333333,-0.7596,0.740633333333333,-1.8038,-1.0196,-1.4714,3.68933333333333,0.39608,-0.10278,0.94654,-0.4634,0.5246,-0.1098,805.169,1,1,1,1
24-May-2018 12:59:11,-1153.66666666667,0.50888,0.4429,-0.70532,0.588,-0.0348,0.4272,102.287,-0.86696,0.11538,-0.5552,-81.3444444444444,-2.72066666666667,-53.2444444444444,93.384,0.0625833333333333,-0.7596,0.740633333333333,-1.8038,-1.0196,-1.4714,3.68933333333333,0.39608,-0.10278,0.94654,-0.4634,0.5246,-0.1098,805.169,1,1,1,1
24-May-2018 12:59:11,-1153.66666666667,0.50888,0.4429,-0.70532,0.588,-0.0348,0.4272,102.287,-0.86696,0.11538,-0.5552,-81.3444444444444,-2.72066666666667,-53.2444444444444,93.384,0.0625833333333333,-0.7596,0.740633333333333,-1.8038,-1.0196,-1.4714,3.68933333333333,0.39608,-0.10278,0.94654,-0.4634,0.5246,-0.1098,805.169,1,1,1,1
24-May-2018 12:59:12,-868,0.496366666666667,0.482016666666667,-0.685733333333333,-2.483,-0.2776,-0.1192,100.488666666667,-0.92924,-0.07232,-0.52698,-74.35,9.13825,-74.1125,89.72,0.0756666666666667,-0.774633333333333,0.718016666666667,0.59625,-1.4425,0.67125,3.72066666666667,0.393583333333333,-0.107,0.945766666666667,0.8052,0.61,-0.1708,804.238,0,0,1,1
24-May-2018 12:59:12,-868,0.496366666666667,0.482016666666667,-0.685733333333333,-2.483,-0.2776,-0.1192,100.488666666667,-0.92924,-0.07232,-0.52698,-74.35,9.13825,-74.1125,89.72,0.0756666666666667,-0.774633333333333,0.718016666666667,0.59625,-1.4425,0.67125,3.72066666666667,0.393583333333333,-0.107,0.945766666666667,0.8052,0.61,-0.1708,804.238,0,0,1,1
24-May-2018 12:59:12,-868,0.496366666666667,0.482016666666667,-0.685733333333333,-2.483,-0.2776,-0.1192,100.488666666667,-0.92924,-0.07232,-0.52698,-74.35,9.13825,-74.1125,89.72,0.0756666666666667,-0.774633333333333,0.718016666666667,0.59625,-1.4425,0.67125,3.72066666666667,0.393583333333333,-0.107,0.945766666666667,0.8052,0.61,-0.1708,804.238,0,0,1,1
24-May-2018 12:59:12,-868,0.496366666666667,0.482016666666667,-0.685733333333333,-2.483,-0.2776,-0.1192,100.488666666667,-0.92924,-0.07232,-0.52698,-74.35,9.13825,-74.1125,89.72,0.0756666666666667,-0.774633333333333,0.718016666666667,0.59625,-1.4425,0.67125,3.72066666666667,0.393583333333333,-0.107,0.945766666666667,0.8052,0.61,-0.1708,804.238,0,0,1,1
24-May-2018 12:59:13,-829.7,0.503016666666667,0.4753,-0.690966666666667,4.007,1.15871428571429,0.888714285714286,93.8303333333333,-0.8317,-0.180516666666667,-0.5114,-117.285714285714,-5.54371428571429,-73.8285714285714,100.960666666667,0.05884,-0.75422,0.74776,0.282,-0.812,0.1466,3.798,0.39236,-0.10134,0.94552,0.5978,0.5734,-0.0976,804.648,1,1,1,1
24-May-2018 12:59:13,-829.7,0.503016666666667,0.4753,-0.690966666666667,4.007,1.15871428571429,0.888714285714286,93.8303333333333,-0.8317,-0.180516666666667,-0.5114,-117.285714285714,-5.54371428571429,-73.8285714285714,100.960666666667,0.05884,-0.75422,0.74776,0.282,-0.812,0.1466,3.798,0.39236,-0.10134,0.94552,0.5978,0.5734,-0.0976,804.648,1,1,1,1
24-May-2018 12:59:13,-829.7,0.503016666666667,0.4753,-0.690966666666667,4.007,1.15871428571429,0.888714285714286,93.8303333333333,-0.8317,-0.180516666666667,-0.5114,-117.285714285714,-5.54371428571429,-73.8285714285714,100.960666666667,0.05884,-0.75422,0.74776,0.282,-0.812,0.1466,3.798,0.39236,-0.10134,0.94552,0.5978,0.5734,-0.0976,804.648,1,1,1,1
24-May-2018 12:59:13,-829.7,0.503016666666667,0.4753,-0.690966666666667,4.007,1.15871428571429,0.888714285714286,93.8303333333333,-0.8317,-0.180516666666667,-0.5114,-117.285714285714,-5.54371428571429,-73.8285714285714,100.960666666667,0.05884,-0.75422,0.74776,0.282,-0.812,0.1466,3.798,0.39236,-0.10134,0.94552,0.5978,0.5734,-0.0976,804.648,1,1,1,1
24-May-2018 12:59:14,-629.222222222222,0.509466666666667,0.447833333333333,-0.6994,1.32183333333333,-0.0285,0.630333333333333,100.6815,-0.83826,-0.12048,-0.6123,-97,-19.0625,-56.3875,123.442,0.067025,-0.763825,0.737175,-3.35,-0.421333333333333,-2.10833333333333,3.685,0.3942,-0.109066666666667,0.944733333333333,0.1586,0.3416,-0.1708,805.782333333333,0,0,1,1
24-May-2018 12:59:14,-629.222222222222,0.509466666666667,0.447833333333333,-0.6994,1.32183333333333,-0.0285,0.630333333333333,100.6815,-0.83826,-0.12048,-0.6123,-97,-19.0625,-56.3875,123.442,0.067025,-0.763825,0.737175,-3.35,-0.421333333333333,-2.10833333333333,3.685,0.3942,-0.109066666666667,0.944733333333333,0.1586,0.3416,-0.1708,805.782333333333,0,0,1,1
24-May-2018 12:59:14,-629.222222222222,0.509466666666667,0.447833333333333,-0.6994,1.32183333333333,-0.0285,0.630333333333333,100.6815,-0.83826,-0.12048,-0.6123,-97,-19.0625,-56.3875,123.442,0.067025,-0.763825,0.737175,-3.35,-0.421333333333333,-2.10833333333333,3.685,0.3942,-0.109066666666667,0.944733333333333,0.1586,0.3416,-0.1708,805.782333333333,0,0,1,1
24-May-2018 12:59:14,-629.222222222222,0.509466666666667,0.447833333333333,-0.6994,1.32183333333333,-0.0285,0.630333333333333,100.6815,-0.83826,-0.12048,-0.6123,-97,-19.0625,-56.3875,123.442,0.067025,-0.763825,0.737175,-3.35,-0.421333333333333,-2.10833333333333,3.685,0.3942,-0.109066666666667,0.944733333333333,0.1586,0.3416,-0.1708,805.782333333333,0,0,1,1
24-May-2018 12:59:15,-450.857142857143,0.502885714285714,0.470585714285714,-0.688114285714286,-3.82833333333333,-0.5445,-0.503333333333333,100.181333333333,-0.8265,-0.13805,-0.614325,-80.5666666666667,-21.6211111111111,-50.3777777777778,131.408,0.0807,-0.778966666666667,0.7088,0.570166666666667,-0.7995,0.601333333333333,3.69133333333333,0.391,-0.11475,0.9479,0.27425,0.50325,0.122,805.236,0,0,1,1
24-May-2018 12:59:15,-450.857142857143,0.502885714285714,0.470585714285714,-0.688114285714286,-3.82833333333333,-0.5445,-0.503333333333333,100.181333333333,-0.8265,-0.13805,-0.614325,-80.5666666666667,-21.6211111111111,-50.3777777777778,131.408,0.0807,-0.778966666666667,0.7088,0.570166666666667,-0.7995,0.601333333333333,3.69133333333333,0.391,-0.11475,0.9479,0.27425,0.50325,0.122,805.236,0,0,1,1
24-May-2018 12:59:15,-450.857142857143,0.502885714285714,0.470585714285714,-0.688114285714286,-3.82833333333333,-0.5445,-0.503333333333333,100.181333333333,-0.8265,-0.13805,-0.614325,-80.5666666666667,-21.6211111111111,-50.3777777777778,131.408,0.0807,-0.778966666666667,0.7088,0.570166666666667,-0.7995,0.601333333333333,3.69133333333333,0.391,-0.11475,0.9479,0.27425,0.50325,0.122,805.236,0,0,1,1
24-May-2018 12:59:15,-450.857142857143,0.502885714285714,0.470585714285714,-0.688114285714286,-3.82833333333333,-0.5445,-0.503333333333333,100.181333333333,-0.8265,-0.13805,-0.614325,-80.5666666666667,-21.6211111111111,-50.3777777777778,131.408,0.0807,-0.778966666666667,0.7088,0.570166666666667,-0.7995,0.601333333333333,3.69133333333333,0.391,-0.11475,0.9479,0.27425,0.50325,0.122,805.236,0,0,1,1
24-May-2018 12:59:16,-267.625,0.499216666666667,0.48215,-0.684633333333333,3.049,0.8385,0.709125,94.1193333333333,-0.8136,-0.104133333333333,-0.6103,-61.7428571428571,-11.5404285714286,-24.7714285714286,135.391,0.0676333333333333,-0.763266666666667,0.734666666666667,1.514,-0.748333333333333,0.7625,3.774,0.392828571428571,-0.111385714285714,0.946742857142857,1.01633333333333,0.427,-0.061,804.006666666667,0,0,1,1
24-May-2018 12:59:16,-267.625,0.499216666666667,0.48215,-0.684633333333333,3.049,0.8385,0.709125,94.1193333333333,-0.8136,-0.104133333333333,-0.6103,-61.7428571428571,-11.5404285714286,-24.7714285714286,135.391,0.0676333333333333,-0.763266666666667,0.734666666666667,1.514,-0.748333333333333,0.7625,3.774,0.392828571428571,-0.111385714285714,0.946742857142857,1.01633333333333,0.427,-0.061,804.006666666667,0,0,1,1
24-May-2018 12:59:16,-267.625,0.499216666666667,0.48215,-0.684633333333333,3.049,0.8385,0.709125,94.1193333333333,-0.8136,-0.104133333333333,-0.6103,-61.7428571428571,-11.5404285714286,-24.7714285714286,135.391,0.0676333333333333,-0.763266666666667,0.734666666666667,1.514,-0.748333333333333,0.7625,3.774,0.392828571428571,-0.111385714285714,0.946742857142857,1.01633333333333,0.427,-0.061,804.006666666667,0,0,1,1
24-May-2018 12:59:16,-267.625,0.499216666666667,0.48215,-0.684633333333333,3.049,0.8385,0.709125,94.1193333333333,-0.8136,-0.104133333333333,-0.6103,-61.7428571428571,-11.5404285714286,-24.7714285714286,135.391,0.0676333333333333,-0.763266666666667,0.734666666666667,1.514,-0.748333333333333,0.7625,3.774,0.392828571428571,-0.111385714285714,0.946742857142857,1.01633333333333,0.427,-0.061,804.006666666667,0,0,1,1
24-May-2018 12:59:17,-57.6,0.5102375,0.448525,-0.6974,1.92066666666667,0.398,0.6405,99.352,-0.84206,-0.06444,-0.61962,-49.6285714285714,10.4682857142857,1.68242857142857,135.391,0.058,-0.75312,0.7497,-1.46125,-0.5305,-0.8965,3.69333333333333,0.3926,-0.107766666666667,0.9464,0.174285714285714,0.549,-0.0958571428571429,804.8205,0,0,1,1
24-May-2018 12:59:17,-57.6,0.5102375,0.448525,-0.6974,1.92066666666667,0.398,0.6405,99.352,-0.84206,-0.06444,-0.61962,-49.6285714285714,10.4682857142857,1.68242857142857,135.391,0.058,-0.75312,0.7497,-1.46125,-0.5305,-0.8965,3.69333333333333,0.3926,-0.107766666666667,0.9464,0.174285714285714,0.549,-0.0958571428571429,804.8205,0,0,1,1
24-May-2018 12:59:17,-57.6,0.5102375,0.448525,-0.6974,1.92066666666667,0.398,0.6405,99.352,-0.84206,-0.06444,-0.61962,-49.6285714285714,10.4682857142857,1.68242857142857,135.391,0.058,-0.75312,0.7497,-1.46125,-0.5305,-0.8965,3.69333333333333,0.3926,-0.107766666666667,0.9464,0.174285714285714,0.549,-0.0958571428571429,804.8205,0,0,1,1
24-May-2018 12:59:17,-57.6,0.5102375,0.448525,-0.6974,1.92066666666667,0.398,0.6405,99.352,-0.84206,-0.06444,-0.61962,-49.6285714285714,10.4682857142857,1.68242857142857,135.391,0.058,-0.75312,0.7497,-1.46125,-0.5305,-0.8965,3.69333333333333,0.3926,-0.107766666666667,0.9464,0.174285714285714,0.549,-0.0958571428571429,804.8205,0,0,1,1
24-May-2018 12:59:18,157.9,0.508522222222222,0.460277777777778,-0.6925,-3.21125,-1.1085,-0.262125,99.352,-0.9379,0.040025,-0.669575,-33.36,26.502,0.3131,137.239333333333,0.0754,-0.77308,0.7237,-1.94725,-0.4695,-1.53625,3.6645,0.39284,-0.11366,0.94762,0.447,0.569333333333333,-0.203333333333333,804.047,0,0,1,1
24-May-2018 12:59:18,157.9,0.508522222222222,0.460277777777778,-0.6925,-3.21125,-1.1085,-0.262125,99.352,-0.9379,0.040025,-0.669575,-33.36,26.502,0.3131,137.239333333333,0.0754,-0.77308,0.7237,-1.94725,-0.4695,-1.53625,3.6645,0.39284,-0.11366,0.94762,0.447,0.569333333333333,-0.203333333333333,804.047,0,0,1,1
24-May-2018 12:59:18,157.9,0.508522222222222,0.460277777777778,-0.6925,-3.21125,-1.1085,-0.262125,99.352,-0.9379,0.040025,-0.669575,-33.36,26.502,0.3131,137.239333333333,0.0754,-0.77308,0.7237,-1.94725,-0.4695,-1.53625,3.6645,0.39284,-0.11366,0.94762,0.447,0.569333333333333,-0.203333333333333,804.047,0,0,1,1
24-May-2018 12:59:18,157.9,0.508522222222222,0.460277777777778,-0.6925,-3.21125,-1.1085,-0.262125,99.352,-0.9379,0.040025,-0.669575,-33.36,26.502,0.3131,137.239333333333,0.0754,-0.77308,0.7237,-1.94725,-0.4695,-1.53625,3.6645,0.39284,-0.11366,0.94762,0.447,0.569333333333333,-0.203333333333333,804.047,0,0,1,1
24-May-2018 12:59:19,40.1,0.499414285714286,0.483628571428571,-0.682642857142857,2.37122222222222,1.118,0.616777777777778,99.352,-0.8035,0.1864,-0.59205,3.485,10.455,23.80625,140.936,0.0663333333333333,-0.763966666666667,0.7347,1.439,-1.057,1.2318,3.72466666666667,0.391066666666667,-0.1114,0.950233333333333,0.2135,0.0915,0.01525,803.685,0,0,1,1
24-May-2018 12:59:19,40.1,0.499414285714286,0.483628571428571,-0.682642857142857,2.37122222222222,1.118,0.616777777777778,99.352,-0.8035,0.1864,-0.59205,3.485,10.455,23.80625,140.936,0.0663333333333333,-0.763966666666667,0.7347,1.439,-1.057,1.2318,3.72466666666667,0.391066666666667,-0.1114,0.950233333333333,0.2135,0.0915,0.01525,803.685,0,0,1,1
24-May-2018 12:59:19,40.1,0.499414285714286,0.483628571428571,-0.682642857142857,2.37122222222222,1.118,0.616777777777778,99.352,-0.8035,0.1864,-0.59205,3.485,10.455,23.80625,140.936,0.0663333333333333,-0.763966666666667,0.7347,1.439,-1.057,1.2318,3.72466666666667,0.391066666666667,-0.1114,0.950233333333333,0.2135,0.0915,0.01525,803.685,0,0,1,1
24-May-2018 12:59:19,40.1,0.499414285714286,0.483628571428571,-0.682642857142857,2.37122222222222,1.118,0.616777777777778,99.352,-0.8035,0.1864,-0.59205,3.485,10.455,23.80625,140.936,0.0663333333333333,-0.763966666666667,0.7347,1.439,-1.057,1.2318,3.72466666666667,0.391066666666667,-0.1114,0.950233333333333,0.2135,0.0915,0.01525,803.685,0,0,1,1
24-May-2018 12:59:20,-9.6,0.50855,0.4511625,-0.6960375,1.997,0.527875,0.617625,99.352,-0.7748,0.14066,-0.63282,13.2962222222222,-8.56111111111111,10.6267777777778,140.936,0.05862,-0.75366,0.74882,-0.665,-1.09,0.062,3.7162,0.384275,-0.11115,0.94475,-0.4725,0.243875,0.6325,806.569333333333,0,0,1,1
24-May-2018 12:59:20,-9.6,0.50855,0.4511625,-0.6960375,1.997,0.527875,0.617625,99.352,-0.7748,0.14066,-0.63282,13.2962222222222,-8.56111111111111,10.6267777777778,140.936,0.05862,-0.75366,0.74882,-0.665,-1.09,0.062,3.7162,0.384275,-0.11115,0.94475,-0.4725,0.243875,0.6325,806.569333333333,0,0,1,1
24-May-2018 12:59:20,-9.6,0.50855,0.4511625,-0.6960375,1.997,0.527875,0.617625,99.352,-0.7748,0.14066,-0.63282,13.2962222222222,-8.56111111111111,10.6267777777778,140.936,0.05862,-0.75366,0.74882,-0.665,-1.09,0.062,3.7162,0.384275,-0.11115,0.94475,-0.4725,0.243875,0.6325,806.569333333333,0,0,1,1
24-May-2018 12:59:20,-9.6,0.50855,0.4511625,-0.6960375,1.997,0.527875,0.617625,99.352,-0.7748,0.14066,-0.63282,13.2962222222222,-8.56111111111111,10.6267777777778,140.936,0.05862,-0.75366,0.74882,-0.665,-1.09,0.062,3.7162,0.384275,-0.11115,0.94475,-0.4725,0.243875,0.6325,806.569333333333,0,0,1,1
24-May-2018 12:59:21,-11.6,0.5132625,0.4556,-0.6940875,-1.82571428571429,-0.502428571428571,-0.0588571428571429,100.434,-0.752775,0.14425,-0.649025,-8.78725,-16.52375,-11.04175,145.532,0.06975,-0.765775,0.7304,-2.518125,-1.009,-1.544625,3.66933333333333,0.38652,-0.11856,0.9469,0.392,0.740571428571428,-0.0348571428571429,806.569333333333,0,0,1,1
24-May-2018 12:59:21,-11.6,0.5132625,0.4556,-0.6940875,-1.82571428571429,-0.502428571428571,-0.0588571428571429,100.434,-0.752775,0.14425,-0.649025,-8.78725,-16.52375,-11.04175,145.532,0.06975,-0.765775,0.7304,-2.518125,-1.009,-1.544625,3.66933333333333,0.38652,-0.11856,0.9469,0.392,0.740571428571428,-0.0348571428571429,806.569333333333,0,0,1,1
24-May-2018 12:59:21,-11.6,0.5132625,0.4556,-0.6940875,-1.82571428571429,-0.502428571428571,-0.0588571428571429,100.434,-0.752775,0.14425,-0.649025,-8.78725,-16.52375,-11.04175,145.532,0.06975,-0.765775,0.7304,-2.518125,-1.009,-1.544625,3.66933333333333,0.38652,-0.11856,0.9469,0.392,0.740571428571428,-0.0348571428571429,806.569333333333,0,0,1,1
24-May-2018 12:59:21,-11.6,0.5132625,0.4556,-0.6940875,-1.82571428571429,-0.502428571428571,-0.0588571428571429,100.434,-0.752775,0.14425,-0.649025,-8.78725,-16.52375,-11.04175,145.532,0.06975,-0.765775,0.7304,-2.518125,-1.009,-1.544625,3.66933333333333,0.38652,-0.11856,0.9469,0.392,0.740571428571428,-0.0348571428571429,0,0,0,1,1
24-May-2018 12:59:22,-54.8,0.49914,0.47806,-0.6836,2.78483333333333,0.762666666666667,0.843666666666667,95.495,-0.8132,0.1538,-0.6817,-6.38377777777778,-5.72333333333333,-14.2333333333333,150.128,0.0814,-0.778766666666667,0.713633333333333,0.7935,-0.636666666666667,0.5295,3.67933333333333,0.386533333333333,-0.122733333333333,0.944266666666667,0.7625,0.50325,-0.10675,804.993,1,1,1,1
24-May-2018 12:59:22,-54.8,0.49914,0.47806,-0.6836,2.78483333333333,0.762666666666667,0.843666666666667,95.495,-0.8132,0.1538,-0.6817,-6.38377777777778,-5.72333333333333,-14.2333333333333,150.128,0.0814,-0.778766666666667,0.713633333333333,0.7935,-0.636666666666667,0.5295,3.67933333333333,0.386533333333333,-0.122733333333333,0.944266666666667,0.7625,0.50325,-0.10675,804.993,1,1,1,1
24-May-2018 12:59:22,-54.8,0.49914,0.47806,-0.6836,2.78483333333333,0.762666666666667,0.843666666666667,95.495,-0.8132,0.1538,-0.6817,-6.38377777777778,-5.72333333333333,-14.2333333333333,150.128,0.0814,-0.778766666666667,0.713633333333333,0.7935,-0.636666666666667,0.5295,3.67933333333333,0.386533333333333,-0.122733333333333,0.944266666666667,0.7625,0.50325,-0.10675,804.993,1,1,1,1
24-May-2018 12:59:22,-54.8,0.49914,0.47806,-0.6836,2.78483333333333,0.762666666666667,0.843666666666667,95.495,-0.8132,0.1538,-0.6817,-6.38377777777778,-5.72333333333333,-14.2333333333333,150.128,0.0814,-0.778766666666667,0.713633333333333,0.7935,-0.636666666666667,0.5295,3.67933333333333,0.386533333333333,-0.122733333333333,0.944266666666667,0.7625,0.50325,-0.10675,804.993,1,1,1,1
24-May-2018 12:59:23,-114.777777777778,0.51146,0.45346,-0.69532,2.6952,0.7806,0.7442,99.804,-0.90042,0.07476,-0.6773,15.522875,23.039,-15.3825,150.128,0.0641,-0.76,0.738383333333334,0.2088,-1.288,0.2324,3.73666666666667,0.38458,-0.09408,0.95354,2.69825,-1.7985,0.45725,806.540333333333,0,0,1,1
24-May-2018 12:59:23,-114.777777777778,0.51146,0.45346,-0.69532,2.6952,0.7806,0.7442,99.804,-0.90042,0.07476,-0.6773,15.522875,23.039,-15.3825,150.128,0.0641,-0.76,0.738383333333334,0.2088,-1.288,0.2324,3.73666666666667,0.38458,-0.09408,0.95354,2.69825,-1.7985,0.45725,806.540333333333,0,0,1,1
24-May-2018 12:59:23,-114.777777777778,0.51146,0.45346,-0.69532,2.6952,0.7806,0.7442,99.804,-0.90042,0.07476,-0.6773,15.522875,23.039,-15.3825,150.128,0.0641,-0.76,0.738383333333334,0.2088,-1.288,0.2324,3.73666666666667,0.38458,-0.09408,0.95354,2.69825,-1.7985,0.45725,806.540333333333,0,0,1,1
24-May-2018 12:59:23,-114.777777777778,0.51146,0.45346,-0.69532,2.6952,0.7806,0.7442,99.804,-0.90042,0.07476,-0.6773,15.522875,23.039,-15.3825,150.128,0.0641,-0.76,0.738383333333334,0.2088,-1.288,0.2324,3.73666666666667,0.38458,-0.09408,0.95354,2.69825,-1.7985,0.45725,806.540333333333,0,0,1,1
24-May-2018 12:59:24,-95.625,0.5149,0.445083333333333,-0.696966666666667,0.0941666666666666,-0.4145,0.488,101.715,-0.801825,-0.062575,-0.550625,1.54422222222222,5.85577777777778,-27.2444444444444,151.844,0.06125,-0.759516666666667,0.742666666666667,-1.6125,-0.556333333333333,-0.7695,3.71666666666667,0.3847,-0.100866666666667,0.9494,1.16866666666667,-0.213333333333333,0.294666666666667,806.03925,0,0,1,1
24-May-2018 12:59:24,-95.625,0.5149,0.445083333333333,-0.696966666666667,0.0941666666666666,-0.4145,0.488,101.715,-0.801825,-0.062575,-0.550625,1.54422222222222,5.85577777777778,-27.2444444444444,151.844,0.06125,-0.759516666666667,0.742666666666667,-1.6125,-0.556333333333333,-0.7695,3.71666666666667,0.3847,-0.100866666666667,0.9494,1.16866666666667,-0.213333333333333,0.294666666666667,806.03925,0,0,1,1
24-May-2018 12:59:24,-95.625,0.5149,0.445083333333333,-0.696966666666667,0.0941666666666666,-0.4145,0.488,101.715,-0.801825,-0.062575,-0.550625,1.54422222222222,5.85577777777778,-27.2444444444444,151.844,0.06125,-0.759516666666667,0.742666666666667,-1.6125,-0.556333333333333,-0.7695,3.71666666666667,0.3847,-0.100866666666667,0.9494,1.16866666666667,-0.213333333333333,0.294666666666667,806.03925,0,0,1,1
24-May-2018 12:59:24,-95.625,0.5149,0.445083333333333,-0.696966666666667,0.0941666666666666,-0.4145,0.488,101.715,-0.801825,-0.062575,-0.550625,1.54422222222222,5.85577777777778,-27.2444444444444,151.844,0.06125,-0.759516666666667,0.742666666666667,-1.6125,-0.556333333333333,-0.7695,3.71666666666667,0.3847,-0.100866666666667,0.9494,1.16866666666667,-0.213333333333333,0.294666666666667,806.03925,0,0,1,1
24-May-2018 12:59:25,15.8333333333333,0.502733333333333,0.477933333333333,-0.684233333333333,-1.71233333333333,-1.03233333333333,-0.107666666666667,97.86,-0.796175,-0.04055,-0.624375,-17.3455555555556,-13.0322222222222,-12.5311111111111,153.56,0.075675,-0.77025,0.723775,-1.92,-1.12,-1.425,3.697,0.390166666666667,-0.136333333333333,0.944266666666667,-1.82916666666667,0.0913333333333334,1.301,803.3245,0,0,1,1
24-May-2018 12:59:25,15.8333333333333,0.502733333333333,0.477933333333333,-0.684233333333333,-1.71233333333333,-1.03233333333333,-0.107666666666667,97.86,-0.796175,-0.04055,-0.624375,-17.3455555555556,-13.0322222222222,-12.5311111111111,153.56,0.075675,-0.77025,0.723775,-1.92,-1.12,-1.425,3.697,0.390166666666667,-0.136333333333333,0.944266666666667,-1.82916666666667,0.0913333333333334,1.301,803.3245,0,0,1,1
24-May-2018 12:59:25,15.8333333333333,0.502733333333333,0.477933333333333,-0.684233333333333,-1.71233333333333,-1.03233333333333,-0.107666666666667,97.86,-0.796175,-0.04055,-0.624375,-17.3455555555556,-13.0322222222222,-12.5311111111111,153.56,0.075675,-0.77025,0.723775,-1.92,-1.12,-1.425,3.697,0.390166666666667,-0.136333333333333,0.944266666666667,-1.82916666666667,0.0913333333333334,1.301,803.3245,0,0,1,1
24-May-2018 12:59:25,15.8333333333333,0.502733333333333,0.477933333333333,-0.684233333333333,-1.71233333333333,-1.03233333333333,-0.107666666666667,97.86,-0.796175,-0.04055,-0.624375,-17.3455555555556,-13.0322222222222,-12.5311111111111,153.56,0.075675,-0.77025,0.723775,-1.92,-1.12,-1.425,3.697,0.390166666666667,-0.136333333333333,0.944266666666667,-1.82916666666667,0.0913333333333334,1.301,803.3245,0,0,1,1
24-May-2018 12:59:26,180.666666666667,0.4964,0.4839375,-0.6847125,2.05333333333333,0.0715,0.58,95.116,-0.7799,-0.087975,-0.611475,14.837125,-9.401625,10.660375,153.56,0.0360666666666667,-0.753783333333333,0.752916666666667,1.586,-0.8012,0.1616,3.67133333333333,0.3814,-0.1317,0.9486,0.162666666666667,0.894333333333333,-0.366,802.999666666667,1,1,1,1
24-May-2018 12:59:26,180.666666666667,0.4964,0.4839375,-0.6847125,2.05333333333333,0.0715,0.58,95.116,-0.7799,-0.087975,-0.611475,14.837125,-9.401625,10.660375,153.56,0.0360666666666667,-0.753783333333333,0.752916666666667,1.586,-0.8012,0.1616,3.67133333333333,0.3814,-0.1317,0.9486,0.162666666666667,0.894333333333333,-0.366,802.999666666667,1,1,1,1
24-May-2018 12:59:26,180.666666666667,0.4964,0.4839375,-0.6847125,2.05333333333333,0.0715,0.58,95.116,-0.7799,-0.087975,-0.611475,14.837125,-9.401625,10.660375,153.56,0.0360666666666667,-0.753783333333333,0.752916666666667,1.586,-0.8012,0.1616,3.67133333333333,0.3814,-0.1317,0.9486,0.162666666666667,0.894333333333333,-0.366,802.999666666667,1,1,1,1
24-May-2018 12:59:26,180.666666666667,0.4964,0.4839375,-0.6847125,2.05333333333333,0.0715,0.58,95.116,-0.7799,-0.087975,-0.611475,14.837125,-9.401625,10.660375,153.56,0.0360666666666667,-0.753783333333333,0.752916666666667,1.586,-0.8012,0.1616,3.67133333333333,0.3814,-0.1317,0.9486,0.162666666666667,0.894333333333333,-0.366,802.999666666667,1,1,1,1
24-May-2018 12:59:27,281.5,0.512728571428571,0.453085714285714,-0.694657142857143,1.51685714285714,-0.232571428571429,0.662142857142857,98.852,-0.790475,-0.101,-0.660675,1.02457142857143,7.71371428571429,21.9885714285714,147.094,0.08434,-0.76288,0.73486,-0.521,-3.1416,-0.7924,3.466,0.40995,-0.130175,0.9343,0.2196,-0.2926,-8.5244,801.81425,0,0,1,1
24-May-2018 12:59:27,281.5,0.512728571428571,0.453085714285714,-0.694657142857143,1.51685714285714,-0.232571428571429,0.662142857142857,98.852,-0.790475,-0.101,-0.660675,1.02457142857143,7.71371428571429,21.9885714285714,147.094,0.08434,-0.76288,0.73486,-0.521,-3.1416,-0.7924,3.466,0.40995,-0.130175,0.9343,0.2196,-0.2926,-8.5244,801.81425,0,0,1,1
24-May-2018 12:59:27,281.5,0.512728571428571,0.453085714285714,-0.694657142857143,1.51685714285714,-0.232571428571429,0.662142857142857,98.852,-0.790475,-0.101,-0.660675,1.02457142857143,7.71371428571429,21.9885714285714,147.094,0.08434,-0.76288,0.73486,-0.521,-3.1416,-0.7924,3.466,0.40995,-0.130175,0.9343,0.2196,-0.2926,-8.5244,801.81425,0,0,1,1
24-May-2018 12:59:27,281.5,0.512728571428571,0.453085714285714,-0.694657142857143,1.51685714285714,-0.232571428571429,0.662142857142857,98.852,-0.790475,-0.101,-0.660675,1.02457142857143,7.71371428571429,21.9885714285714,147.094,0.08434,-0.76288,0.73486,-0.521,-3.1416,-0.7924,3.466,0.40995,-0.130175,0.9343,0.2196,-0.2926,-8.5244,801.81425,0,0,1,1
24-May-2018 12:59:28,594.7,0.510325,0.452925,-0.6973375,-1.012,0.267625,-0.029,98.852,-0.84548,0.07422,-0.7322,-36.05,36.87,18.367,147.094,0.08698,-0.76154,0.72434,1.022,-0.728,0.18675,3.6055,0.42862,-0.10312,0.94136,-2.52033333333333,1.199,2.72366666666667,791.259333333333,0,0,1,1
24-May-2018 12:59:28,594.7,0.510325,0.452925,-0.6973375,-1.012,0.267625,-0.029,98.852,-0.84548,0.07422,-0.7322,-36.05,36.87,18.367,147.094,0.08698,-0.76154,0.72434,1.022,-0.728,0.18675,3.6055,0.42862,-0.10312,0.94136,-2.52033333333333,1.199,2.72366666666667,791.259333333333,0,0,1,1
24-May-2018 12:59:28,594.7,0.510325,0.452925,-0.6973375,-1.012,0.267625,-0.029,98.852,-0.84548,0.07422,-0.7322,-36.05,36.87,18.367,147.094,0.08698,-0.76154,0.72434,1.022,-0.728,0.18675,3.6055,0.42862,-0.10312,0.94136,-2.52033333333333,1.199,2.72366666666667,791.259333333333,0,0,1,1
24-May-2018 12:59:28,594.7,0.510325,0.452925,-0.6973375,-1.012,0.267625,-0.029,98.852,-0.84548,0.07422,-0.7322,-36.05,36.87,18.367,147.094,0.08698,-0.76154,0.72434,1.022,-0.728,0.18675,3.6055,0.42862,-0.10312,0.94136,-2.52033333333333,1.199,2.72366666666667,791.259333333333,0,0,1,1
24-May-2018 12:59:29,937.285714285714,0.504633333333333,0.477833333333333,-0.682455555555555,1.319125,-1.41425,0.7475,98.852,-0.74316,0.14058,-0.6256,7.89228571428571,0.745571428571428,4.74814285714286,154.172,0.0644,-0.7437,0.7538,1.1838,0.6346,1.0986,3.45633333333333,0.460675,-0.05155,0.924025,-1.8902,-1.9144,-1.3414,794.114333333333,0,1,1,1
24-May-2018 12:59:29,937.285714285714,0.504633333333333,0.477833333333333,-0.682455555555555,1.319125,-1.41425,0.7475,98.852,-0.74316,0.14058,-0.6256,7.89228571428571,0.745571428571428,4.74814285714286,154.172,0.0644,-0.7437,0.7538,1.1838,0.6346,1.0986,3.45633333333333,0.460675,-0.05155,0.924025,-1.8902,-1.9144,-1.3414,794.114333333333,0,1,1,1
24-May-2018 12:59:29,937.285714285714,0.504633333333333,0.477833333333333,-0.682455555555555,1.319125,-1.41425,0.7475,98.852,-0.74316,0.14058,-0.6256,7.89228571428571,0.745571428571428,4.74814285714286,154.172,0.0644,-0.7437,0.7538,1.1838,0.6346,1.0986,3.45633333333333,0.460675,-0.05155,0.924025,-1.8902,-1.9144,-1.3414,794.114333333333,0,1,1,1
24-May-2018 12:59:29,937.285714285714,0.504633333333333,0.477833333333333,-0.682455555555555,1.319125,-1.41425,0.7475,98.852,-0.74316,0.14058,-0.6256,7.89228571428571,0.745571428571428,4.74814285714286,154.172,0.0644,-0.7437,0.7538,1.1838,0.6346,1.0986,3.45633333333333,0.460675,-0.05155,0.924025,-1.8902,-1.9144,-1.3414,794.114333333333,0,1,1,1
24-May-2018 12:59:30,771.5,0.5189125,0.4553375,-0.6855875,-1.42585714285714,2.99757142857143,0.367142857142857,98.852,-0.734175,0.088525,-0.6928,-15.939625,-4.686875,-24.0375,164.789,0.0755166666666667,-0.749233333333333,0.746183333333333,-2.79,-1.668,-1.75,3.37933333333333,0.43854,-0.02728,0.9391,-12.57625,5.74675,6.1585,788.051,1,1,1,1
24-May-2018 12:59:30,771.5,0.5189125,0.4553375,-0.6855875,-1.42585714285714,2.99757142857143,0.367142857142857,98.852,-0.734175,0.088525,-0.6928,-15.939625,-4.686875,-24.0375,164.789,0.0755166666666667,-0.749233333333333,0.746183333333333,-2.79,-1.668,-1.75,3.37933333333333,0.43854,-0.02728,0.9391,-12.57625,5.74675,6.1585,788.051,1,1,1,1
24-May-2018 12:59:30,771.5,0.5189125,0.4553375,-0.6855875,-1.42585714285714,2.99757142857143,0.367142857142857,98.852,-0.734175,0.088525,-0.6928,-15.939625,-4.686875,-24.0375,164.789,0.0755166666666667,-0.749233333333333,0.746183333333333,-2.79,-1.668,-1.75,3.37933333333333,0.43854,-0.02728,0.9391,-12.57625,5.74675,6.1585,788.051,1,1,1,1
24-May-2018 12:59:30,771.5,0.5189125,0.4553375,-0.6855875,-1.42585714285714,2.99757142857143,0.367142857142857,98.852,-0.734175,0.088525,-0.6928,-15.939625,-4.686875,-24.0375,164.789,0.0755166666666667,-0.749233333333333,0.746183333333333,-2.79,-1.668,-1.75,3.37933333333333,0.43854,-0.02728,0.9391,-12.57625,5.74675,6.1585,788.051,1,1,1,1
