TIME,HELMET_RAW,BELT_ACC_X,BELT_ACC_Y,BELT_ACC_Z,BELT_ANG_X,BELT_ANG_Y,BELT_ANG_Z,BELT_LUMINOSITY,NECK_ACC_X,NECK_ACC_Y,NECK_ACC_Z,NECK_ANG_X,NECK_ANG_Y,NECK_ANG_Z,NECK_LUMINOSITY,PCKT_ACC_X,PCKT_ACC_Y,PCKT_ACC_Z,PCKT_ANG_X,PCKT_ANG_Y,PCKT_ANG_Z,PCKT_LUMINOSITY,WRST_ACC_X,WRST_ACC_Y,WRST_ACC_Z,WRST_ANG_X,WRST_ANG_Y,WRST_ANG_Z,WRST_LUMINOSITY,IR_1,IR_2,IR_3,IR_4
24-May-2018 14:28:40,-221.222222222222,-0.8085,-0.192214285714286,0.239885714285714,-133.728571428571,-114.651428571429,-109.5,237.2145,0,0,0,0,0,0,0,-0.762,-0.64806,0.2812,-0.771428571428571,-6.10857142857143,-0.355857142857143,1.06,0.3193125,-0.29655,1.1556125,-29.136,-13.4345,9.7155,579.938666666667,0,1,1,0
24-May-2018 14:28:40,-221.222222222222,-0.8085,-0.192214285714286,0.239885714285714,-133.728571428571,-114.651428571429,-109.5,237.2145,0,0,0,0,0,0,0,-0.762,-0.64806,0.2812,-0.771428571428571,-6.10857142857143,-0.355857142857143,1.06,0.3193125,-0.29655,1.1556125,-29.136,-13.4345,9.7155,579.938666666667,0,1,1,0
24-May-2018 14:28:40,-221.222222222222,-0.8085,-0.192214285714286,0.239885714285714,-133.728571428571,-114.651428571429,-109.5,237.2145,0,0,0,0,0,0,0,-0.762,-0.64806,0.2812,-0.771428571428571,-6.10857142857143,-0.355857142857143,1.06,0.3193125,-0.29655,1.1556125,-29.136,-13.4345,9.7155,579.938666666667,0,1,1,0
24-May-2018 14:28:40,-221.222222222222,-0.8085,-0.192214285714286,0.239885714285714,-133.728571428571,-114.651428571429,-109.5,237.2145,0,0,0,0,0,0,0,-0.762,-0.64806,0.2812,-0.771428571428571,-6.10857142857143,-0.355857142857143,1.06,0.3193125,-0.29655,1.1556125,-29.136,-13.4345,9.7155,579.938666666667,0,1,1,0
24-May-2018 14:28:41,-221.222222222222,-0.365,-0.568685714285714,0.511242857142857,68.3726666666667,154.91,55.5913333333333,114.633666666667,0,0,0,0,0,0,0,-0.7768,-0.66355,0.163025,-15.856,12.3788,-0.0846,1.1362,0.626583333333333,-0.0720666666666667,0.7283,-18.6788333333333,20.1728333333333,10.6911666666667,420.692,0,1,1,1
24-May-2018 14:28:41,-221.222222222222,-0.365,-0.568685714285714,0.511242857142857,68.3726666666667,154.91,55.5913333333333,114.633666666667,0,0,0,0,0,0,0,-0.7768,-0.66355,0.163025,-15.856,12.3788,-0.0846,1.1362,0.626583333333333,-0.0720666666666667,0.7283,-18.6788333333333,20.1728333333333,10.6911666666667,420.692,0,1,1,1
24-May-2018 14:28:41,-221.222222222222,-0.365,-0.568685714285714,0.511242857142857,68.3726666666667,154.91,55.5913333333333,114.633666666667,0,0,0,0,0,0,0,-0.7768,-0.66355,0.163025,-15.856,12.3788,-0.0846,1.1362,0.626583333333333,-0.0720666666666667,0.7283,-18.6788333333333,20.1728333333333,10.6911666666667,420.692,0,1,1,1
24-May-2018 14:28:41,-221.222222222222,-0.365,-0.568685714285714,0.511242857142857,68.3726666666667,154.91,55.5913333333333,114.633666666667,0,0,0,0,0,0,0,-0.7768,-0.66355,0.163025,-15.856,12.3788,-0.0846,1.1362,0.626583333333333,-0.0720666666666667,0.7283,-18.6788333333333,20.1728333333333,10.6911666666667,420.692,0,1,1,1
24-May-2018 14:28:42,-221.222222222222,-0.992928571428571,0.0731,0.4197,15.266625,-5.240625,9.991375,107.200333333333,0,0,0,0,0,0,0,-0.800075,-0.6276375,-0.13185,-6.21366666666667,-4.72683333333333,-3.94733333333333,0.805,0.70356,-0.09584,0.79516,22.4086666666667,-87.5993333333333,9.43233333333333,614.127666666667,1,1,1,1
24-May-2018 14:28:42,-221.222222222222,-0.992928571428571,0.0731,0.4197,15.266625,-5.240625,9.991375,107.200333333333,0,0,0,0,0,0,0,-0.800075,-0.6276375,-0.13185,-6.21366666666667,-4.72683333333333,-3.94733333333333,0.805,0.70356,-0.09584,0.79516,22.4086666666667,-87.5993333333333,9.43233333333333,614.127666666667,1,1,1,1
24-May-2018 14:28:42,-221.222222222222,-0.992928571428571,0.0731,0.4197,15.266625,-5.240625,9.991375,107.200333333333,0,0,0,0,0,0,0,-0.800075,-0.6276375,-0.13185,-6.21366666666667,-4.72683333333333,-3.94733333333333,0.805,0.70356,-0.09584,0.79516,22.4086666666667,-87.5993333333333,9.43233333333333,614.127666666667,1,1,1,1
24-May-2018 14:28:42,-221.222222222222,-0.992928571428571,0.0731,0.4197,15.266625,-5.240625,9.991375,107.200333333333,0,0,0,0,0,0,0,-0.800075,-0.6276375,-0.13185,-6.21366666666667,-4.72683333333333,-3.94733333333333,0.805,0.70356,-0.09584,0.79516,22.4086666666667,-87.5993333333333,9.43233333333333,614.127666666667,1,1,1,1
24-May-2018 14:28:43,-221.222222222222,-0.6674,-0.0899,0.560016666666667,-62.6333333333333,22.9256666666667,5.69833333333333,105.85,0,0,0,0,0,0,0,-0.7573,-0.661014285714286,0.204942857142857,17.2833333333333,-10.0383333333333,2.0725,0.9586,1.134175,-0.129125,0.20005,52.6626666666667,11.9106666666667,-33.2523333333333,508.982,1,1,1,1
24-May-2018 14:28:43,-221.222222222222,-0.6674,-0.0899,0.560016666666667,-62.6333333333333,22.9256666666667,5.69833333333333,105.85,0,0,0,0,0,0,0,-0.7573,-0.661014285714286,0.204942857142857,17.2833333333333,-10.0383333333333,2.0725,0.9586,1.134175,-0.129125,0.20005,52.6626666666667,11.9106666666667,-33.2523333333333,508.982,1,1,1,1
24-May-2018 14:28:43,-221.222222222222,-0.6674,-0.0899,0.560016666666667,-62.6333333333333,22.9256666666667,5.69833333333333,105.85,0,0,0,0,0,0,0,-0.7573,-0.661014285714286,0.204942857142857,17.2833333333333,-10.0383333333333,2.0725,0.9586,1.134175,-0.129125,0.20005,52.6626666666667,11.9106666666667,-33.2523333333333,508.982,1,1,1,1
24-May-2018 14:28:43,-221.222222222222,-0.6674,-0.0899,0.560016666666667,-62.6333333333333,22.9256666666667,5.69833333333333,105.85,0,0,0,0,0,0,0,-0.7573,-0.661014285714286,0.204942857142857,17.2833333333333,-10.0383333333333,2.0725,0.9586,1.134175,-0.129125,0.20005,52.6626666666667,11.9106666666667,-33.2523333333333,508.982,1,1,1,1
24-May-2018 14:28:44,-221.222222222222,-0.951842857142857,-0.0379,0.320042857142857,16.4671428571429,46.8614285714286,25.4192857142857,37.3303333333333,0,0,0,0,0,0,0,-0.796857142857143,-0.611628571428571,0.2854,1.11866666666667,1.42416666666667,-1.8875,1.208,1.01473333333333,-0.126733333333333,-0.119183333333333,-157.071,-14.1868888888889,63.2794444444444,354.242,1,1,1,1
24-May-2018 14:28:44,-221.222222222222,-0.951842857142857,-0.0379,0.320042857142857,16.4671428571429,46.8614285714286,25.4192857142857,37.3303333333333,0,0,0,0,0,0,0,-0.796857142857143,-0.611628571428571,0.2854,1.11866666666667,1.42416666666667,-1.8875,1.208,1.01473333333333,-0.126733333333333,-0.119183333333333,-157.071,-14.1868888888889,63.2794444444444,354.242,1,1,1,1
24-May-2018 14:28:44,-221.222222222222,-0.951842857142857,-0.0379,0.320042857142857,16.4671428571429,46.8614285714286,25.4192857142857,37.3303333333333,0,0,0,0,0,0,0,-0.796857142857143,-0.611628571428571,0.2854,1.11866666666667,1.42416666666667,-1.8875,1.208,1.01473333333333,-0.126733333333333,-0.119183333333333,-157.071,-14.1868888888889,63.2794444444444,354.242,1,1,1,1
24-May-2018 14:28:44,-221.222222222222,-0.951842857142857,-0.0379,0.320042857142857,16.4671428571429,46.8614285714286,25.4192857142857,37.3303333333333,0,0,0,0,0,0,0,-0.796857142857143,-0.611628571428571,0.2854,1.11866666666667,1.42416666666667,-1.8875,1.208,1.01473333333333,-0.126733333333333,-0.119183333333333,-157.071,-14.1868888888889,63.2794444444444,354.242,1,1,1,1
24-May-2018 14:28:45,-221.222222222222,-0.838214285714286,-0.0751857142857143,0.603028571428571,-7.86,9.88275,-12.353375,12.9643333333333,0,0,0,0,0,0,0,-0.7961,-0.6152,0.268085714285714,1.04966666666667,1.27183333333333,-0.197833333333333,1.2938,0.421414285714286,-0.617214285714286,-0.450614285714286,66.1076666666667,-47.1543333333333,33.8618333333333,287.7498,1,1,1,1
24-May-2018 14:28:45,-221.222222222222,-0.838214285714286,-0.0751857142857143,0.603028571428571,-7.86,9.88275,-12.353375,12.9643333333333,0,0,0,0,0,0,0,-0.7961,-0.6152,0.268085714285714,1.04966666666667,1.27183333333333,-0.197833333333333,1.2938,0.421414285714286,-0.617214285714286,-0.450614285714286,66.1076666666667,-47.1543333333333,33.8618333333333,287.7498,1,1,1,1
24-May-2018 14:28:45,-221.222222222222,-0.838214285714286,-0.0751857142857143,0.603028571428571,-7.86,9.88275,-12.353375,12.9643333333333,0,0,0,0,0,0,0,-0.7961,-0.6152,0.268085714285714,1.04966666666667,1.27183333333333,-0.197833333333333,1.2938,0.421414285714286,-0.617214285714286,-0.450614285714286,66.1076666666667,-47.1543333333333,33.8618333333333,287.7498,1,1,1,1
24-May-2018 14:28:45,-221.222222222222,-0.838214285714286,-0.0751857142857143,0.603028571428571,-7.86,9.88275,-12.353375,12.9643333333333,0,0,0,0,0,0,0,-0.7961,-0.6152,0.268085714285714,1.04966666666667,1.27183333333333,-0.197833333333333,1.2938,0.421414285714286,-0.617214285714286,-0.450614285714286,66.1076666666667,-47.1543333333333,33.8618333333333,287.7498,1,1,1,1
24-May-2018 14:28:46,-221.222222222222,-0.844188888888889,-0.149133333333333,0.460488888888889,-9.38428571428572,35.0314285714286,-12.4221428571429,12.9643333333333,0,0,0,0,0,0,0,-0.7887,-0.649783333333333,0.0866,-11.916,15.111,-6.31528571428572,1.165,0.46496,-0.87758,0.31164,75.8884285714286,-59.913,1.80314285714286,575.219,1,1,0,0
24-May-2018 14:28:46,-221.222222222222,-0.844188888888889,-0.149133333333333,0.460488888888889,-9.38428571428572,35.0314285714286,-12.4221428571429,12.9643333333333,0,0,0,0,0,0,0,-0.7887,-0.649783333333333,0.0866,-11.916,15.111,-6.31528571428572,1.165,0.46496,-0.87758,0.31164,75.8884285714286,-59.913,1.80314285714286,575.219,1,1,0,0
24-May-2018 14:28:46,-221.222222222222,-0.844188888888889,-0.149133333333333,0.460488888888889,-9.38428571428572,35.0314285714286,-12.4221428571429,12.9643333333333,0,0,0,0,0,0,0,-0.7887,-0.649783333333333,0.0866,-11.916,15.111,-6.31528571428572,1.165,0.46496,-0.87758,0.31164,75.8884285714286,-59.913,1.80314285714286,575.219,1,1,0,0
24-May-2018 14:28:46,-221.222222222222,-0.844188888888889,-0.149133333333333,0.460488888888889,-9.38428571428572,35.0314285714286,-12.4221428571429,12.9643333333333,0,0,0,0,0,0,0,-0.7887,-0.649783333333333,0.0866,-11.916,15.111,-6.31528571428572,1.165,0.46496,-0.87758,0.31164,75.8884285714286,-59.913,1.80314285714286,575.219,1,1,0,0
24-May-2018 14:28:47,-221.222222222222,-1.02348888888889,0.0664444444444445,-0.144444444444444,-9.86555555555555,10.8744444444444,24.499,12.9643333333333,0,0,0,0,0,0,0,-0.7562,-0.685083333333333,0.0971166666666667,23.9936666666667,-1.725,10.4771666666667,0.8674,0.333757142857143,-0.730528571428571,0.587985714285714,3.506,-12.2358333333333,5.76216666666667,705.9088,0,0,0,0
24-May-2018 14:28:47,-221.222222222222,-1.02348888888889,0.0664444444444445,-0.144444444444444,-9.86555555555555,10.8744444444444,24.499,12.9643333333333,0,0,0,0,0,0,0,-0.7562,-0.685083333333333,0.0971166666666667,23.9936666666667,-1.725,10.4771666666667,0.8674,0.333757142857143,-0.730528571428571,0.587985714285714,3.506,-12.2358333333333,5.76216666666667,705.9088,0,0,0,0
24-May-2018 14:28:47,-221.222222222222,-1.02348888888889,0.0664444444444445,-0.144444444444444,-9.86555555555555,10.8744444444444,24.499,0,0,0,0,0,0,0,0,-0.7562,-0.685083333333333,0.0971166666666667,23.9936666666667,-1.725,10.4771666666667,0.8674,0.333757142857143,-0.730528571428571,0.587985714285714,3.506,-12.2358333333333,5.76216666666667,705.9088,0,0,0,0
24-May-2018 14:28:47,-221.222222222222,-1.02348888888889,0.0664444444444445,-0.144444444444444,-9.86555555555555,10.8744444444444,24.499,0,0,0,0,0,0,0,0,-0.7562,-0.685083333333333,0.0971166666666667,23.9936666666667,-1.725,10.4771666666667,0.8674,0.333757142857143,-0.730528571428571,0.587985714285714,3.506,-12.2358333333333,5.76216666666667,705.9088,0,0,0,0
24-May-2018 14:28:48,-221.222222222222,-1.0781,0.09702,-0.00319999999999999,2.09383333333333,-9.27833333333333,-3.97166666666667,5.86271428571428,0,0,0,0,0,0,0,-0.827416666666667,-0.579866666666667,0.0666,10.0243333333333,19.0328333333333,-9.60033333333333,0.968,0.653214285714286,-0.537714285714286,0.576185714285714,-8.41475,-0.952625,-11.661625,775.185,1,1,0,0
24-May-2018 14:28:48,-221.222222222222,-1.0781,0.09702,-0.00319999999999999,2.09383333333333,-9.27833333333333,-3.97166666666667,5.86271428571428,0,0,0,0,0,0,0,-0.827416666666667,-0.579866666666667,0.0666,10.0243333333333,19.0328333333333,-9.60033333333333,0.968,0.653214285714286,-0.537714285714286,0.576185714285714,-8.41475,-0.952625,-11.661625,775.185,1,1,0,0
24-May-2018 14:28:48,-221.222222222222,-1.0781,0.09702,-0.00319999999999999,2.09383333333333,-9.27833333333333,-3.97166666666667,5.86271428571428,0,0,0,0,0,0,0,-0.827416666666667,-0.579866666666667,0.0666,10.0243333333333,19.0328333333333,-9.60033333333333,0.968,0.653214285714286,-0.537714285714286,0.576185714285714,-8.41475,-0.952625,-11.661625,775.185,1,1,0,0
24-May-2018 14:28:48,-221.222222222222,-1.0781,0.09702,-0.00319999999999999,2.09383333333333,-9.27833333333333,-3.97166666666667,5.86271428571428,0,0,0,0,0,0,0,-0.827416666666667,-0.579866666666667,0.0666,10.0243333333333,19.0328333333333,-9.60033333333333,0.968,0.653214285714286,-0.537714285714286,0.576185714285714,-8.41475,-0.952625,-11.661625,775.185,1,1,0,0
24-May-2018 14:28:49,-221.222222222222,-1.03968,0.13124,-0.0724,-5.16,6.422,9.26633333333333,3.93728571428571,0,0,0,0,0,0,0,-0.09395,-0.755883333333333,-0.324316666666667,-40.6983333333333,44.2416666666667,-81.8666666666667,0.6326,0.576914285714286,-0.731128571428571,0.200842857142857,-2.62185714285714,-7.17757142857143,-1.27185714285714,746.99925,1,1,0,0
24-May-2018 14:28:49,-221.222222222222,-1.03968,0.13124,-0.0724,-5.16,6.422,9.26633333333333,3.93728571428571,0,0,0,0,0,0,0,-0.09395,-0.755883333333333,-0.324316666666667,-40.6983333333333,44.2416666666667,-81.8666666666667,0.6326,0.576914285714286,-0.731128571428571,0.200842857142857,-2.62185714285714,-7.17757142857143,-1.27185714285714,746.99925,1,1,0,0
24-May-2018 14:28:49,-221.222222222222,-1.03968,0.13124,-0.0724,-5.16,6.422,9.26633333333333,3.93728571428571,0,0,0,0,0,0,0,-0.09395,-0.755883333333333,-0.324316666666667,-40.6983333333333,44.2416666666667,-81.8666666666667,0.6326,0.576914285714286,-0.731128571428571,0.200842857142857,-2.62185714285714,-7.17757142857143,-1.27185714285714,746.99925,1,1,0,0
24-May-2018 14:28:49,-221.222222222222,-1.03968,0.13124,-0.0724,-5.16,6.422,9.26633333333333,3.93728571428571,0,0,0,0,0,0,0,-0.09395,-0.755883333333333,-0.324316666666667,-40.6983333333333,44.2416666666667,-81.8666666666667,0.6326,0.576914285714286,-0.731128571428571,0.200842857142857,-2.62185714285714,-7.17757142857143,-1.27185714285714,746.99925,1,1,0,0
