TIME,HELMET_RAW,BELT_ACC_X,BELT_ACC_Y,BELT_ACC_Z,BELT_ANG_X,BELT_ANG_Y,BELT_ANG_Z,BELT_LUMINOSITY,NECK_ACC_X,NECK_ACC_Y,NECK_ACC_Z,NECK_ANG_X,NECK_ANG_Y,NECK_ANG_Z,NECK_LUMINOSITY,PCKT_ACC_X,PCKT_ACC_Y,PCKT_ACC_Z,PCKT_ANG_X,PCKT_ANG_Y,PCKT_ANG_Z,PCKT_LUMINOSITY,WRST_ACC_X,WRST_ACC_Y,WRST_ACC_Z,WRST_ANG_X,WRST_ANG_Y,WRST_ANG_Z,WRST_LUMINOSITY,IR_1,IR_2,IR_3,IR_4
24-May-2018 14:28:59,-221.222222222222,-0.15748,-0.22366,1.20288,-3.0916,2.196,0.5496,0.169428571428571,0,0,0,0,0,0,0,0.463633333333333,-0.449683333333333,-0.6864,3.18914285714286,-0.216571428571428,1.13528571428571,0.3255,0.39915,-0.79875,-0.465033333333333,-38.7795714285714,-6.298,1.94257142857143,425.4775,1,1,1,1
24-May-2018 14:28:59,-221.222222222222,-0.15748,-0.22366,1.20288,-3.0916,2.196,0.5496,0.169428571428571,0,0,0,0,0,0,0,0.463633333333333,-0.449683333333333,-0.6864,3.18914285714286,-0.216571428571428,1.13528571428571,0.3255,0.39915,-0.79875,-0.465033333333333,-38.7795714285714,-6.298,1.94257142857143,425.4775,1,1,1,1
24-May-2018 14:28:59,-221.222222222222,-0.15748,-0.22366,1.20288,-3.0916,2.196,0.5496,0.169428571428571,0,0,0,0,0,0,0,0.463633333333333,-0.449683333333333,-0.6864,3.18914285714286,-0.216571428571428,1.13528571428571,0.3255,0.39915,-0.79875,-0.465033333333333,-38.7795714285714,-6.298,1.94257142857143,425.4775,1,1,1,1
24-May-2018 14:28:59,-221.222222222222,-0.15748,-0.22366,1.20288,-3.0916,2.196,0.5496,0.169428571428571,0,0,0,0,0,0,0,0.463633333333333,-0.449683333333333,-0.6864,3.18914285714286,-0.216571428571428,1.13528571428571,0.3255,0.39915,-0.79875,-0.465033333333333,-38.7795714285714,-6.298,1.94257142857143,425.4775,1,1,1,1
24-May-2018 14:29:00,-221.222222222222,-0.11205,-0.120333333333333,1.01501666666667,-5.059625,4.80175,0.336375,0.169428571428571,0,0,0,0,0,0,0,-0.187228571428571,-0.695628571428571,-0.135457142857143,56.0066,-15.5506,68.862,0.6906,0.4026375,-0.8889375,-0.3733625,51.7857142857143,15.7838571428571,-11.2545714285714,454.635,0,1,1,1
24-May-2018 14:29:00,-221.222222222222,-0.11205,-0.120333333333333,1.01501666666667,-5.059625,4.80175,0.336375,0.169428571428571,0,0,0,0,0,0,0,-0.187228571428571,-0.695628571428571,-0.135457142857143,56.0066,-15.5506,68.862,0.6906,0.4026375,-0.8889375,-0.3733625,51.7857142857143,15.7838571428571,-11.2545714285714,454.635,0,1,1,1
24-May-2018 14:29:00,-221.222222222222,-0.11205,-0.120333333333333,1.01501666666667,-5.059625,4.80175,0.336375,0.169428571428571,0,0,0,0,0,0,0,-0.187228571428571,-0.695628571428571,-0.135457142857143,56.0066,-15.5506,68.862,0.6906,0.4026375,-0.8889375,-0.3733625,51.7857142857143,15.7838571428571,-11.2545714285714,454.635,0,1,1,1
24-May-2018 14:29:00,-221.222222222222,-0.11205,-0.120333333333333,1.01501666666667,-5.059625,4.80175,0.336375,0.169428571428571,0,0,0,0,0,0,0,-0.187228571428571,-0.695628571428571,-0.135457142857143,56.0066,-15.5506,68.862,0.6906,0.4026375,-0.8889375,-0.3733625,51.7857142857143,15.7838571428571,-11.2545714285714,454.635,0,1,1,1
24-May-2018 14:29:01,-221.222222222222,-0.141983333333333,-0.136383333333333,1.02471666666667,0.514857142857143,0.984428571428571,0.479285714285714,0.169428571428571,0,0,0,0,0,0,0,-0.80136,-0.56938,0.34964,14.6106666666667,-17.7166666666667,33.9383333333333,1.066,0.53018,-0.63926,-0.6881,-57.375,1.2195,9.253,376.451333333333,0,1,1,1
24-May-2018 14:29:01,-221.222222222222,-0.141983333333333,-0.136383333333333,1.02471666666667,0.514857142857143,0.984428571428571,0.479285714285714,0.169428571428571,0,0,0,0,0,0,0,-0.80136,-0.56938,0.34964,14.6106666666667,-17.7166666666667,33.9383333333333,1.066,0.53018,-0.63926,-0.6881,-57.375,1.2195,9.253,376.451333333333,0,1,1,1
24-May-2018 14:29:01,-221.222222222222,-0.141983333333333,-0.136383333333333,1.02471666666667,0.514857142857143,0.984428571428571,0.479285714285714,0.169428571428571,0,0,0,0,0,0,0,-0.80136,-0.56938,0.34964,14.6106666666667,-17.7166666666667,33.9383333333333,1.066,0.53018,-0.63926,-0.6881,-57.375,1.2195,9.253,376.451333333333,0,1,1,1
24-May-2018 14:29:01,-221.222222222222,-0.141983333333333,-0.136383333333333,1.02471666666667,0.514857142857143,0.984428571428571,0.479285714285714,0.169428571428571,0,0,0,0,0,0,0,-0.80136,-0.56938,0.34964,14.6106666666667,-17.7166666666667,33.9383333333333,1.066,0.53018,-0.63926,-0.6881,-57.375,1.2195,9.253,376.451333333333,0,1,1,1
24-May-2018 14:29:02,-221.222222222222,-0.1518,-0.13915,1.019975,0.538833333333333,0.072,0.325333333333333,0.169428571428571,0,0,0,0,0,0,0,-0.986057142857143,-0.159314285714286,0.449957142857143,0.778,17.5016666666667,-11.0085,1.0485,0.745114285714286,-0.426871428571429,-0.305614285714286,73.23925,35.89925,-58.840375,235.711,1,1,1,1
24-May-2018 14:29:02,-221.222222222222,-0.1518,-0.13915,1.019975,0.538833333333333,0.072,0.325333333333333,0.169428571428571,0,0,0,0,0,0,0,-0.986057142857143,-0.159314285714286,0.449957142857143,0.778,17.5016666666667,-11.0085,1.0485,0.745114285714286,-0.426871428571429,-0.305614285714286,73.23925,35.89925,-58.840375,235.711,1,1,1,1
24-May-2018 14:29:02,-221.222222222222,-0.1518,-0.13915,1.019975,0.538833333333333,0.072,0.325333333333333,0.169428571428571,0,0,0,0,0,0,0,-0.986057142857143,-0.159314285714286,0.449957142857143,0.778,17.5016666666667,-11.0085,1.0485,0.745114285714286,-0.426871428571429,-0.305614285714286,73.23925,35.89925,-58.840375,235.711,1,1,1,1
24-May-2018 14:29:02,-221.222222222222,-0.1518,-0.13915,1.019975,0.538833333333333,0.072,0.325333333333333,0.169428571428571,0,0,0,0,0,0,0,-0.986057142857143,-0.159314285714286,0.449957142857143,0.778,17.5016666666667,-11.0085,1.0485,0.745114285714286,-0.426871428571429,-0.305614285714286,73.23925,35.89925,-58.840375,235.711,1,1,1,1
24-May-2018 14:29:03,-221.222222222222,-0.154571428571429,-0.140157142857143,1.01848571428571,0.479285714285714,0.522857142857143,0.400857142857143,0.169428571428571,0,0,0,0,0,0,0,-0.801925,-0.494825,0.220475,-11.3614285714286,-21.7544285714286,-1.63714285714286,0.957666666666667,0.957883333333333,-0.347916666666667,0.168033333333333,-4.39775,24.276,10.70125,423.442333333333,1,1,1,1
24-May-2018 14:29:03,-221.222222222222,-0.154571428571429,-0.140157142857143,1.01848571428571,0.479285714285714,0.522857142857143,0.400857142857143,0.169428571428571,0,0,0,0,0,0,0,-0.801925,-0.494825,0.220475,-11.3614285714286,-21.7544285714286,-1.63714285714286,0.957666666666667,0.957883333333333,-0.347916666666667,0.168033333333333,-4.39775,24.276,10.70125,423.442333333333,1,1,1,1
24-May-2018 14:29:03,-221.222222222222,-0.154571428571429,-0.140157142857143,1.01848571428571,0.479285714285714,0.522857142857143,0.400857142857143,0.169428571428571,0,0,0,0,0,0,0,-0.801925,-0.494825,0.220475,-11.3614285714286,-21.7544285714286,-1.63714285714286,0.957666666666667,0.957883333333333,-0.347916666666667,0.168033333333333,-4.39775,24.276,10.70125,423.442333333333,1,1,1,1
24-May-2018 14:29:03,-221.222222222222,-0.154571428571429,-0.140157142857143,1.01848571428571,0.479285714285714,0.522857142857143,0.400857142857143,0.169428571428571,0,0,0,0,0,0,0,-0.801925,-0.494825,0.220475,-11.3614285714286,-21.7544285714286,-1.63714285714286,0.957666666666667,0.957883333333333,-0.347916666666667,0.168033333333333,-4.39775,24.276,10.70125,423.442333333333,1,1,1,1
24-May-2018 14:29:04,-221.222222222222,-0.164416666666667,-0.14115,1.01715,0.53375,0.29125,0.343125,0.169428571428571,0,0,0,0,0,0,0,-0.779971428571429,-0.705542857142857,0.0723714285714286,-22.539,21.7033333333333,-18.2618333333333,1.054,0.758883333333333,-0.257883333333333,0.573316666666667,31.626,17.5203333333333,-5.10166666666667,543.7385,1,1,1,1
24-May-2018 14:29:04,-221.222222222222,-0.164416666666667,-0.14115,1.01715,0.53375,0.29125,0.343125,0.169428571428571,0,0,0,0,0,0,0,-0.779971428571429,-0.705542857142857,0.0723714285714286,-22.539,21.7033333333333,-18.2618333333333,1.054,0.758883333333333,-0.257883333333333,0.573316666666667,31.626,17.5203333333333,-5.10166666666667,543.7385,1,1,1,1
24-May-2018 14:29:04,-221.222222222222,-0.164416666666667,-0.14115,1.01715,0.53375,0.29125,0.343125,0.169428571428571,0,0,0,0,0,0,0,-0.779971428571429,-0.705542857142857,0.0723714285714286,-22.539,21.7033333333333,-18.2618333333333,1.054,0.758883333333333,-0.257883333333333,0.573316666666667,31.626,17.5203333333333,-5.10166666666667,543.7385,1,1,1,1
24-May-2018 14:29:04,-221.222222222222,-0.164416666666667,-0.14115,1.01715,0.53375,0.29125,0.343125,0.169428571428571,0,0,0,0,0,0,0,-0.779971428571429,-0.705542857142857,0.0723714285714286,-22.539,21.7033333333333,-18.2618333333333,1.054,0.758883333333333,-0.257883333333333,0.573316666666667,31.626,17.5203333333333,-5.10166666666667,543.7385,1,1,1,1
24-May-2018 14:29:05,-221.222222222222,-0.1627,-0.140816666666667,1.01823333333333,0.6222,0.086,0.366,0.169428571428571,0,0,0,0,0,0,0,-0.7221,-0.7105,0.144328571428571,15.064,-19.2174,16.06,1.0198,0.797333333333333,-0.200633333333333,0.389116666666667,-11.4721428571429,-97.0195714285714,2.46514285714286,460.9545,1,1,1,1
24-May-2018 14:29:05,-221.222222222222,-0.1627,-0.140816666666667,1.01823333333333,0.6222,0.086,0.366,0.169428571428571,0,0,0,0,0,0,0,-0.7221,-0.7105,0.144328571428571,15.064,-19.2174,16.06,1.0198,0.797333333333333,-0.200633333333333,0.389116666666667,-11.4721428571429,-97.0195714285714,2.46514285714286,460.9545,1,1,1,1
24-May-2018 14:29:05,-221.222222222222,-0.1627,-0.140816666666667,1.01823333333333,0.6222,0.086,0.366,0.169428571428571,0,0,0,0,0,0,0,-0.7221,-0.7105,0.144328571428571,15.064,-19.2174,16.06,1.0198,0.797333333333333,-0.200633333333333,0.389116666666667,-11.4721428571429,-97.0195714285714,2.46514285714286,460.9545,1,1,1,1
24-May-2018 14:29:05,-221.222222222222,-0.1627,-0.140816666666667,1.01823333333333,0.6222,0.086,0.366,0.169428571428571,0,0,0,0,0,0,0,-0.7221,-0.7105,0.144328571428571,15.064,-19.2174,16.06,1.0198,0.797333333333333,-0.200633333333333,0.389116666666667,-11.4721428571429,-97.0195714285714,2.46514285714286,460.9545,1,1,1,1
24-May-2018 14:29:06,-221.222222222222,-0.16505,-0.1407375,1.0182625,0.636142857142857,0.357285714285714,0.392142857142857,0.169428571428571,0,0,0,0,0,0,0,-0.700216666666667,-0.718466666666667,-0.108483333333333,2.48583333333333,4.08983333333333,-2.29416666666667,0.9625,0.626116666666667,-0.405066666666667,-0.976566666666667,118.079666666667,92.0225,77.0831666666667,145.992,1,1,1,1
24-May-2018 14:29:06,-221.222222222222,-0.16505,-0.1407375,1.0182625,0.636142857142857,0.357285714285714,0.392142857142857,0.169428571428571,0,0,0,0,0,0,0,-0.700216666666667,-0.718466666666667,-0.108483333333333,2.48583333333333,4.08983333333333,-2.29416666666667,0.9625,0.626116666666667,-0.405066666666667,-0.976566666666667,118.079666666667,92.0225,77.0831666666667,145.992,1,1,1,1
24-May-2018 14:29:06,-221.222222222222,-0.16505,-0.1407375,1.0182625,0.636142857142857,0.357285714285714,0.392142857142857,0.169428571428571,0,0,0,0,0,0,0,-0.700216666666667,-0.718466666666667,-0.108483333333333,2.48583333333333,4.08983333333333,-2.29416666666667,0.9625,0.626116666666667,-0.405066666666667,-0.976566666666667,118.079666666667,92.0225,77.0831666666667,145.992,1,1,1,1
24-May-2018 14:29:06,-221.222222222222,-0.16505,-0.1407375,1.0182625,0.636142857142857,0.357285714285714,0.392142857142857,0.169428571428571,0,0,0,0,0,0,0,-0.700216666666667,-0.718466666666667,-0.108483333333333,2.48583333333333,4.08983333333333,-2.29416666666667,0.9625,0.626116666666667,-0.405066666666667,-0.976566666666667,118.079666666667,92.0225,77.0831666666667,145.992,1,1,1,1
24-May-2018 14:29:07,-221.222222222222,-0.162775,-0.1406125,1.0181125,0.630333333333333,-0.42,0.318555555555556,0.169428571428571,0,0,0,0,0,0,0,-0.7829,-0.7716,0.179616666666667,9.09666666666667,-5.73083333333333,1.38433333333333,0.9656,0.03445,-0.660466666666667,0.80975,70,-73.387,30.4268,458.020666666667,0,1,1,1
24-May-2018 14:29:07,-221.222222222222,-0.162775,-0.1406125,1.0181125,0.630333333333333,-0.42,0.318555555555556,0.169428571428571,0,0,0,0,0,0,0,-0.7829,-0.7716,0.179616666666667,9.09666666666667,-5.73083333333333,1.38433333333333,0.9656,0.03445,-0.660466666666667,0.80975,70,-73.387,30.4268,458.020666666667,0,1,1,1
24-May-2018 14:29:07,-221.222222222222,-0.162775,-0.1406125,1.0181125,0.630333333333333,-0.42,0.318555555555556,0.169428571428571,0,0,0,0,0,0,0,-0.7829,-0.7716,0.179616666666667,9.09666666666667,-5.73083333333333,1.38433333333333,0.9656,0.03445,-0.660466666666667,0.80975,70,-73.387,30.4268,458.020666666667,0,1,1,1
24-May-2018 14:29:07,-221.222222222222,-0.162775,-0.1406125,1.0181125,0.630333333333333,-0.42,0.318555555555556,0.169428571428571,0,0,0,0,0,0,0,-0.7829,-0.7716,0.179616666666667,9.09666666666667,-5.73083333333333,1.38433333333333,0.9656,0.03445,-0.660466666666667,0.80975,70,-73.387,30.4268,458.020666666667,0,1,1,1
24-May-2018 14:29:08,-221.222222222222,-0.141,-0.1436,1.01728,1.9392,-2.704,0.00119999999999998,0.169428571428571,0,0,0,0,0,0,0,-0.71784,-0.70784,-0.02744,-9.05914285714286,10.921,-5.43314285714286,0.9616,0.1459375,-0.359625,0.9444125,0.5732,-0.2684,-0.4998,425.707,0,0,1,1
24-May-2018 14:29:08,-221.222222222222,-0.141,-0.1436,1.01728,1.9392,-2.704,0.00119999999999998,0.169428571428571,0,0,0,0,0,0,0,-0.71784,-0.70784,-0.02744,-9.05914285714286,10.921,-5.43314285714286,0.9616,0.1459375,-0.359625,0.9444125,0.5732,-0.2684,-0.4998,425.707,0,0,1,1
24-May-2018 14:29:08,-221.222222222222,-0.141,-0.1436,1.01728,1.9392,-2.704,0.00119999999999998,0.169428571428571,0,0,0,0,0,0,0,-0.71784,-0.70784,-0.02744,-9.05914285714286,10.921,-5.43314285714286,0.9616,0.1459375,-0.359625,0.9444125,0.5732,-0.2684,-0.4998,425.707,0,0,1,1
24-May-2018 14:29:08,-221.222222222222,-0.141,-0.1436,1.01728,1.9392,-2.704,0.00119999999999998,0.169428571428571,0,0,0,0,0,0,0,-0.71784,-0.70784,-0.02744,-9.05914285714286,10.921,-5.43314285714286,0.9616,0.1459375,-0.359625,0.9444125,0.5732,-0.2684,-0.4998,425.707,0,0,1,1
