TIME,HELMET_RAW,BELT_ACC_X,BELT_ACC_Y,BELT_ACC_Z,BELT_ANG_X,BELT_ANG_Y,BELT_ANG_Z,BELT_LUMINOSITY,NECK_ACC_X,NECK_ACC_Y,NECK_ACC_Z,NECK_ANG_X,NECK_ANG_Y,NECK_ANG_Z,NECK_LUMINOSITY,PCKT_ACC_X,PCKT_ACC_Y,PCKT_ACC_Z,PCKT_ANG_X,PCKT_ANG_Y,PCKT_ANG_Z,PCKT_LUMINOSITY,WRST_ACC_X,WRST_ACC_Y,WRST_ACC_Z,WRST_ANG_X,WRST_ANG_Y,WRST_ANG_Z,WRST_LUMINOSITY,IR_1,IR_2,IR_3,IR_4
24-May-2018 14:28:19,-221.222222222222,0.82864,0.04056,-0.28352,9.9,11.0114,-7.284,6.12071428571429,0,0,0,0,0,0,0,0.2951,-0.5008625,-0.7331875,-0.627833333333333,-0.8715,-0.18,0.0946666666666667,1.09222857142857,-0.381171428571429,-0.0412428571428571,-1.0875,-2.43916666666667,-17.8151666666667,475.432,0,1,1,1
24-May-2018 14:28:19,-221.222222222222,0.82864,0.04056,-0.28352,9.9,11.0114,-7.284,6.12071428571429,0,0,0,0,0,0,0,0.2951,-0.5008625,-0.7331875,-0.627833333333333,-0.8715,-0.18,0.0946666666666667,1.09222857142857,-0.381171428571429,-0.0412428571428571,-1.0875,-2.43916666666667,-17.8151666666667,475.432,0,1,1,1
24-May-2018 14:28:19,-221.222222222222,0.82864,0.04056,-0.28352,9.9,11.0114,-7.284,6.12071428571429,0,0,0,0,0,0,0,0.2951,-0.5008625,-0.7331875,-0.627833333333333,-0.8715,-0.18,0.0946666666666667,1.09222857142857,-0.381171428571429,-0.0412428571428571,-1.0875,-2.43916666666667,-17.8151666666667,475.432,0,1,1,1
24-May-2018 14:28:19,-221.222222222222,0.82864,0.04056,-0.28352,9.9,11.0114,-7.284,6.12071428571429,0,0,0,0,0,0,0,0.2951,-0.5008625,-0.7331875,-0.627833333333333,-0.8715,-0.18,0.0946666666666667,1.09222857142857,-0.381171428571429,-0.0412428571428571,-1.0875,-2.43916666666667,-17.8151666666667,475.432,0,1,1,1
24-May-2018 14:28:20,-221.222222222222,0.857042857142857,-0.0960142857142857,-0.379785714285714,20.3728571428571,-2.88571428571429,4.06757142857143,5.967,0,0,0,0,0,0,0,0.296928571428571,-0.498342857142857,-0.733914285714286,-0.648571428571429,-0.911428571428571,-0.222714285714286,0.15925,1.0715,-0.3623,0.00358,-1.0244,9.3782,8.392,550.6095,0,1,1,1
24-May-2018 14:28:20,-221.222222222222,0.857042857142857,-0.0960142857142857,-0.379785714285714,20.3728571428571,-2.88571428571429,4.06757142857143,5.967,0,0,0,0,0,0,0,0.296928571428571,-0.498342857142857,-0.733914285714286,-0.648571428571429,-0.911428571428571,-0.222714285714286,0.15925,1.0715,-0.3623,0.00358,-1.0244,9.3782,8.392,550.6095,0,1,1,1
24-May-2018 14:28:20,-221.222222222222,0.857042857142857,-0.0960142857142857,-0.379785714285714,20.3728571428571,-2.88571428571429,4.06757142857143,5.967,0,0,0,0,0,0,0,0.296928571428571,-0.498342857142857,-0.733914285714286,-0.648571428571429,-0.911428571428571,-0.222714285714286,0.15925,1.0715,-0.3623,0.00358,-1.0244,9.3782,8.392,550.6095,0,1,1,1
24-May-2018 14:28:20,-221.222222222222,0.857042857142857,-0.0960142857142857,-0.379785714285714,20.3728571428571,-2.88571428571429,4.06757142857143,5.967,0,0,0,0,0,0,0,0.296928571428571,-0.498342857142857,-0.733914285714286,-0.648571428571429,-0.911428571428571,-0.222714285714286,0.15925,1.0715,-0.3623,0.00358,-1.0244,9.3782,8.392,550.6095,0,1,1,1
24-May-2018 14:28:21,-221.222222222222,0.833214285714286,-0.00931428571428572,-0.336228571428571,-18.3028571428571,10.5208571428571,-4.43542857142857,6.55925,0,0,0,0,0,0,0,0.296733333333333,-0.497416666666667,-0.734466666666667,-0.578571428571429,-0.892857142857143,-0.214285714285714,0.1558,0.97914,-0.31362,-0.06712,3.42225,-8.696625,13.864375,474.98,0,1,1,1
24-May-2018 14:28:21,-221.222222222222,0.833214285714286,-0.00931428571428572,-0.336228571428571,-18.3028571428571,10.5208571428571,-4.43542857142857,6.55925,0,0,0,0,0,0,0,0.296733333333333,-0.497416666666667,-0.734466666666667,-0.578571428571429,-0.892857142857143,-0.214285714285714,0.1558,0.97914,-0.31362,-0.06712,3.42225,-8.696625,13.864375,474.98,0,1,1,1
24-May-2018 14:28:21,-221.222222222222,0.833214285714286,-0.00931428571428572,-0.336228571428571,-18.3028571428571,10.5208571428571,-4.43542857142857,6.55925,0,0,0,0,0,0,0,0.296733333333333,-0.497416666666667,-0.734466666666667,-0.578571428571429,-0.892857142857143,-0.214285714285714,0.1558,0.97914,-0.31362,-0.06712,3.42225,-8.696625,13.864375,474.98,0,1,1,1
24-May-2018 14:28:21,-221.222222222222,0.833214285714286,-0.00931428571428572,-0.336228571428571,-18.3028571428571,10.5208571428571,-4.43542857142857,6.55925,0,0,0,0,0,0,0,0.296733333333333,-0.497416666666667,-0.734466666666667,-0.578571428571429,-0.892857142857143,-0.214285714285714,0.1558,0.97914,-0.31362,-0.06712,3.42225,-8.696625,13.864375,474.98,0,1,1,1
24-May-2018 14:28:22,-221.222222222222,0.90635,0.0923625,-0.3529375,-18.5083333333333,5.05833333333333,3.0005,6.897,0,0,0,0,0,0,0,0.2962,-0.4969,-0.73415,-0.605,-1.005,-0.18,0.157333333333333,0.97486,-0.33476,-0.18994,11.7806,6.7928,-4.683,386.2925,0,0,0,0
24-May-2018 14:28:22,-221.222222222222,0.90635,0.0923625,-0.3529375,-18.5083333333333,5.05833333333333,3.0005,6.897,0,0,0,0,0,0,0,0.2962,-0.4969,-0.73415,-0.605,-1.005,-0.18,0.157333333333333,0.97486,-0.33476,-0.18994,11.7806,6.7928,-4.683,386.2925,0,0,0,0
24-May-2018 14:28:22,-221.222222222222,0.90635,0.0923625,-0.3529375,-18.5083333333333,5.05833333333333,3.0005,6.897,0,0,0,0,0,0,0,0.2962,-0.4969,-0.73415,-0.605,-1.005,-0.18,0.157333333333333,0.97486,-0.33476,-0.18994,11.7806,6.7928,-4.683,386.2925,0,0,0,0
24-May-2018 14:28:22,-221.222222222222,0.90635,0.0923625,-0.3529375,-18.5083333333333,5.05833333333333,3.0005,6.897,0,0,0,0,0,0,0,0.2962,-0.4969,-0.73415,-0.605,-1.005,-0.18,0.157333333333333,0.97486,-0.33476,-0.18994,11.7806,6.7928,-4.683,386.2925,0,0,0,0
24-May-2018 14:28:23,-221.222222222222,0.875466666666667,0.117166666666667,-0.355783333333333,-0.435833333333333,-4.71666666666667,1.04783333333333,6.8405,0,0,0,0,0,0,0,0.296316666666667,-0.497233333333333,-0.735716666666667,-0.617142857142857,-0.884285714285714,-0.248571428571429,0.1535,0.993216666666667,-0.194716666666667,-0.0117166666666667,-9.153875,6.600375,-3.856875,409.081,0,0,1,0
24-May-2018 14:28:23,-221.222222222222,0.875466666666667,0.117166666666667,-0.355783333333333,-0.435833333333333,-4.71666666666667,1.04783333333333,6.8405,0,0,0,0,0,0,0,0.296316666666667,-0.497233333333333,-0.735716666666667,-0.617142857142857,-0.884285714285714,-0.248571428571429,0.1535,0.993216666666667,-0.194716666666667,-0.0117166666666667,-9.153875,6.600375,-3.856875,409.081,0,0,1,0
24-May-2018 14:28:23,-221.222222222222,0.875466666666667,0.117166666666667,-0.355783333333333,-0.435833333333333,-4.71666666666667,1.04783333333333,6.8405,0,0,0,0,0,0,0,0.296316666666667,-0.497233333333333,-0.735716666666667,-0.617142857142857,-0.884285714285714,-0.248571428571429,0.1535,0.993216666666667,-0.194716666666667,-0.0117166666666667,-9.153875,6.600375,-3.856875,409.081,0,0,1,0
24-May-2018 14:28:23,-221.222222222222,0.875466666666667,0.117166666666667,-0.355783333333333,-0.435833333333333,-4.71666666666667,1.04783333333333,6.8405,0,0,0,0,0,0,0,0.296316666666667,-0.497233333333333,-0.735716666666667,-0.617142857142857,-0.884285714285714,-0.248571428571429,0.1535,0.993216666666667,-0.194716666666667,-0.0117166666666667,-9.153875,6.600375,-3.856875,409.081,0,0,1,0
24-May-2018 14:28:24,-221.222222222222,0.712783333333333,-0.02455,-0.3097,11.3607142857143,-67.0857142857143,22.47,4.84666666666667,0,0,0,0,0,0,0,0.296671428571429,-0.495928571428571,-0.733914285714286,-0.484,-0.838,-0.18,0.142,0.71546,-0.54344,-0.23912,-53.5046666666667,-0.507500000000005,33.6075,423.714333333333,1,1,1,0
24-May-2018 14:28:24,-221.222222222222,0.712783333333333,-0.02455,-0.3097,11.3607142857143,-67.0857142857143,22.47,4.84666666666667,0,0,0,0,0,0,0,0.296671428571429,-0.495928571428571,-0.733914285714286,-0.484,-0.838,-0.18,0.142,0.71546,-0.54344,-0.23912,-53.5046666666667,-0.507500000000005,33.6075,423.714333333333,1,1,1,0
24-May-2018 14:28:24,-221.222222222222,0.712783333333333,-0.02455,-0.3097,11.3607142857143,-67.0857142857143,22.47,4.84666666666667,0,0,0,0,0,0,0,0.296671428571429,-0.495928571428571,-0.733914285714286,-0.484,-0.838,-0.18,0.142,0.71546,-0.54344,-0.23912,-53.5046666666667,-0.507500000000005,33.6075,423.714333333333,1,1,1,0
24-May-2018 14:28:24,-221.222222222222,0.712783333333333,-0.02455,-0.3097,11.3607142857143,-67.0857142857143,22.47,4.84666666666667,0,0,0,0,0,0,0,0.296671428571429,-0.495928571428571,-0.733914285714286,-0.484,-0.838,-0.18,0.142,0.71546,-0.54344,-0.23912,-53.5046666666667,-0.507500000000005,33.6075,423.714333333333,1,1,1,0
24-May-2018 14:28:25,-221.222222222222,0.51705,-0.21355,-1.69425,-165,-318,169.5,4.84666666666667,0,0,0,0,0,0,0,0.2986,-0.4965,-0.729,0.752333333333333,0.509,-0.686666666666667,0.142,0.6096,-0.7225,-0.70925,-23.5973333333333,97.2763333333333,65.874,423.714333333333,1,1,1,1
24-May-2018 14:28:25,-221.222222222222,0.51705,-0.21355,-1.69425,-165,-318,169.5,4.84666666666667,0,0,0,0,0,0,0,0.2986,-0.4965,-0.729,0.752333333333333,0.509,-0.686666666666667,0.142,0.6096,-0.7225,-0.70925,-23.5973333333333,97.2763333333333,65.874,423.714333333333,1,1,1,1
24-May-2018 14:28:25,-221.222222222222,0.51705,-0.21355,-1.69425,-165,-318,169.5,4.84666666666667,0,0,0,0,0,0,0,0.2986,-0.4965,-0.729,0.752333333333333,0.509,-0.686666666666667,0.142,0.6096,-0.7225,-0.70925,-23.5973333333333,97.2763333333333,65.874,423.714333333333,1,1,1,1
24-May-2018 14:28:25,-221.222222222222,0.51705,-0.21355,-1.69425,-165,-318,169.5,0,0,0,0,0,0,0,0,0.2986,-0.4965,-0.729,0.752333333333333,0.509,-0.686666666666667,0.142,0.6096,-0.7225,-0.70925,-23.5973333333333,97.2763333333333,65.874,0,1,1,1,1
24-May-2018 14:28:26,-221.222222222222,-0.118575,0.1369125,-0.76045,-45.56375,-19.246375,-1.720875,1.41,0,0,0,0,0,0,0,0.3292,-0.53814,-0.73686,7.75257142857143,-4.20242857142857,6.10685714285714,0.1348,0.712942857142857,-0.689214285714286,-0.122314285714286,53.3188571428571,35.8277142857143,27.1251428571429,284.200666666667,1,1,1,1
24-May-2018 14:28:26,-221.222222222222,-0.118575,0.1369125,-0.76045,-45.56375,-19.246375,-1.720875,1.41,0,0,0,0,0,0,0,0.3292,-0.53814,-0.73686,7.75257142857143,-4.20242857142857,6.10685714285714,0.1348,0.712942857142857,-0.689214285714286,-0.122314285714286,53.3188571428571,35.8277142857143,27.1251428571429,284.200666666667,1,1,1,1
24-May-2018 14:28:26,-221.222222222222,-0.118575,0.1369125,-0.76045,-45.56375,-19.246375,-1.720875,1.41,0,0,0,0,0,0,0,0.3292,-0.53814,-0.73686,7.75257142857143,-4.20242857142857,6.10685714285714,0.1348,0.712942857142857,-0.689214285714286,-0.122314285714286,53.3188571428571,35.8277142857143,27.1251428571429,284.200666666667,1,1,1,1
24-May-2018 14:28:26,-221.222222222222,-0.118575,0.1369125,-0.76045,-45.56375,-19.246375,-1.720875,1.41,0,0,0,0,0,0,0,0.3292,-0.53814,-0.73686,7.75257142857143,-4.20242857142857,6.10685714285714,0.1348,0.712942857142857,-0.689214285714286,-0.122314285714286,53.3188571428571,35.8277142857143,27.1251428571429,284.200666666667,1,1,1,1
24-May-2018 14:28:27,-221.222222222222,-0.07823,0.32037,-0.94465,0.81775,-0.70075,-0.028375,1.41,0,0,0,0,0,0,0,-0.414366666666667,-0.689166666666667,-0.2124,17.7694285714286,-17.8585714285714,47.3571428571428,0.7096,0.9605,-0.3873,0.139,81.7335714285714,-46.3582857142857,-8.32742857142857,596.1718,1,1,1,0
24-May-2018 14:28:27,-221.222222222222,-0.07823,0.32037,-0.94465,0.81775,-0.70075,-0.028375,1.41,0,0,0,0,0,0,0,-0.414366666666667,-0.689166666666667,-0.2124,17.7694285714286,-17.8585714285714,47.3571428571428,0.7096,0.9605,-0.3873,0.139,81.7335714285714,-46.3582857142857,-8.32742857142857,596.1718,1,1,1,0
24-May-2018 14:28:27,-221.222222222222,-0.07823,0.32037,-0.94465,0.81775,-0.70075,-0.028375,1.41,0,0,0,0,0,0,0,-0.414366666666667,-0.689166666666667,-0.2124,17.7694285714286,-17.8585714285714,47.3571428571428,0.7096,0.9605,-0.3873,0.139,81.7335714285714,-46.3582857142857,-8.32742857142857,596.1718,1,1,1,0
24-May-2018 14:28:27,-221.222222222222,-0.07823,0.32037,-0.94465,0.81775,-0.70075,-0.028375,0,0,0,0,0,0,0,0,-0.414366666666667,-0.689166666666667,-0.2124,17.7694285714286,-17.8585714285714,47.3571428571428,0.7096,0.9605,-0.3873,0.139,81.7335714285714,-46.3582857142857,-8.32742857142857,596.1718,1,1,1,0
24-May-2018 14:28:28,-221.222222222222,-0.0748857142857143,0.339542857142857,-0.936857142857143,-0.702857142857143,-0.138285714285714,0.0272857142857143,0.734,0,0,0,0,0,0,0,-0.960471428571429,-0.219228571428571,0.360585714285714,6.3528,-40.88,24.372,0.931,1.02205,-0.3927,-0.031725,-30.3138571428571,8.63242857142857,1.386,404.88875,1,1,1,1
24-May-2018 14:28:28,-221.222222222222,-0.0748857142857143,0.339542857142857,-0.936857142857143,-0.702857142857143,-0.138285714285714,0.0272857142857143,0.734,0,0,0,0,0,0,0,-0.960471428571429,-0.219228571428571,0.360585714285714,6.3528,-40.88,24.372,0.931,1.02205,-0.3927,-0.031725,-30.3138571428571,8.63242857142857,1.386,404.88875,1,1,1,1
24-May-2018 14:28:28,-221.222222222222,-0.0748857142857143,0.339542857142857,-0.936857142857143,-0.702857142857143,-0.138285714285714,0.0272857142857143,0.734,0,0,0,0,0,0,0,-0.960471428571429,-0.219228571428571,0.360585714285714,6.3528,-40.88,24.372,0.931,1.02205,-0.3927,-0.031725,-30.3138571428571,8.63242857142857,1.386,404.88875,1,1,1,1
24-May-2018 14:28:28,-221.222222222222,-0.0748857142857143,0.339542857142857,-0.936857142857143,-0.702857142857143,-0.138285714285714,0.0272857142857143,0.734,0,0,0,0,0,0,0,-0.960471428571429,-0.219228571428571,0.360585714285714,6.3528,-40.88,24.372,0.931,1.02205,-0.3927,-0.031725,-30.3138571428571,8.63242857142857,1.386,404.88875,1,1,1,1
