TIME,HELMET_RAW,BELT_ACC_X,BELT_ACC_Y,BELT_ACC_Z,BELT_ANG_X,BELT_ANG_Y,BELT_ANG_Z,BELT_LUMINOSITY,NECK_ACC_X,NECK_ACC_Y,NECK_ACC_Z,NECK_ANG_X,NECK_ANG_Y,NECK_ANG_Z,NECK_LUMINOSITY,PCKT_ACC_X,PCKT_ACC_Y,PCKT_ACC_Z,PCKT_ANG_X,PCKT_ANG_Y,PCKT_ANG_Z,PCKT_LUMINOSITY,WRST_ACC_X,WRST_ACC_Y,WRST_ACC_Z,WRST_ANG_X,WRST_ANG_Y,WRST_ANG_Z,WRST_LUMINOSITY,IR_1,IR_2,IR_3,IR_4
24-May-2018 13:21:28,52,0.8731,-0.0997571428571428,-0.365571428571429,54.692,-3.2442,-11.3062,27.1736666666667,-0.93465,-0.331375,0.10075,0.480375,0.59475,0.419375,487.989,0.447014285714286,0.873957142857143,0.300957142857143,21.341,33.234,25.832,0.0235,-0.776283333333333,-0.0747166666666667,0.616433333333333,-28.2926666666667,65.1116666666667,52.5203333333333,649.0775,1,1,1,1
24-May-2018 13:21:28,52,0.8731,-0.0997571428571428,-0.365571428571429,54.692,-3.2442,-11.3062,27.1736666666667,-0.93465,-0.331375,0.10075,0.480375,0.59475,0.419375,487.989,0.447014285714286,0.873957142857143,0.300957142857143,21.341,33.234,25.832,0.0235,-0.776283333333333,-0.0747166666666667,0.616433333333333,-28.2926666666667,65.1116666666667,52.5203333333333,649.0775,1,1,1,1
24-May-2018 13:21:28,52,0.8731,-0.0997571428571428,-0.365571428571429,54.692,-3.2442,-11.3062,27.1736666666667,-0.93465,-0.331375,0.10075,0.480375,0.59475,0.419375,487.989,0.447014285714286,0.873957142857143,0.300957142857143,21.341,33.234,25.832,0.0235,-0.776283333333333,-0.0747166666666667,0.616433333333333,-28.2926666666667,65.1116666666667,52.5203333333333,649.0775,1,1,1,1
24-May-2018 13:21:28,52,0.8731,-0.0997571428571428,-0.365571428571429,54.692,-3.2442,-11.3062,27.1736666666667,-0.93465,-0.331375,0.10075,0.480375,0.59475,0.419375,487.989,0.447014285714286,0.873957142857143,0.300957142857143,21.341,33.234,25.832,0.0235,-0.776283333333333,-0.0747166666666667,0.616433333333333,-28.2926666666667,65.1116666666667,52.5203333333333,649.0775,1,1,1,1
24-May-2018 13:21:29,52,0.901966666666667,-0.0967333333333333,-0.2843,-22.0652857142857,5.03542857142857,-5.99571428571429,29.3863333333333,-0.93434,-0.33064,0.10112,0.56425,0.28975,0.221375,488.4465,0.4523,0.765142857142857,0.272185714285714,8.705,-11.77,-53.35,0.0492,-0.935,0.05344,0.06482,-49.342,-18.76525,-10.5945,571.193,1,1,1,1
24-May-2018 13:21:29,52,0.901966666666667,-0.0967333333333333,-0.2843,-22.0652857142857,5.03542857142857,-5.99571428571429,29.3863333333333,-0.93434,-0.33064,0.10112,0.56425,0.28975,0.221375,488.4465,0.4523,0.765142857142857,0.272185714285714,8.705,-11.77,-53.35,0.0492,-0.935,0.05344,0.06482,-49.342,-18.76525,-10.5945,571.193,1,1,1,1
24-May-2018 13:21:29,52,0.901966666666667,-0.0967333333333333,-0.2843,-22.0652857142857,5.03542857142857,-5.99571428571429,29.3863333333333,-0.93434,-0.33064,0.10112,0.56425,0.28975,0.221375,488.4465,0.4523,0.765142857142857,0.272185714285714,8.705,-11.77,-53.35,0.0492,-0.935,0.05344,0.06482,-49.342,-18.76525,-10.5945,571.193,1,1,1,1
24-May-2018 13:21:29,52,0.901966666666667,-0.0967333333333333,-0.2843,-22.0652857142857,5.03542857142857,-5.99571428571429,29.3863333333333,-0.93434,-0.33064,0.10112,0.56425,0.28975,0.221375,488.4465,0.4523,0.765142857142857,0.272185714285714,8.705,-11.77,-53.35,0.0492,-0.935,0.05344,0.06482,-49.342,-18.76525,-10.5945,571.193,1,1,1,1
24-May-2018 13:21:30,52,1.00541666666667,0.0692833333333333,-0.3082,-40.5682,5.3164,7.4862,260.452666666667,-0.93415,-0.332775,0.10085,0.0151111111111111,0.298222222222222,0.162666666666667,488.599,0.277925,0.992275,0.251625,5.435,-59,9.895,0.0492,-0.973033333333333,-0.237816666666667,0.102383333333333,17.5406666666667,2.48983333333333,-10.0101666666667,606.696666666667,1,1,1,0.5
24-May-2018 13:21:30,52,1.00541666666667,0.0692833333333333,-0.3082,-40.5682,5.3164,7.4862,260.452666666667,-0.93415,-0.332775,0.10085,0.0151111111111111,0.298222222222222,0.162666666666667,488.599,0.277925,0.992275,0.251625,5.435,-59,9.895,0.0492,-0.973033333333333,-0.237816666666667,0.102383333333333,17.5406666666667,2.48983333333333,-10.0101666666667,606.696666666667,1,1,1,0.5
24-May-2018 13:21:30,52,1.00541666666667,0.0692833333333333,-0.3082,-40.5682,5.3164,7.4862,260.452666666667,-0.93415,-0.332775,0.10085,0.0151111111111111,0.298222222222222,0.162666666666667,488.599,0.277925,0.992275,0.251625,5.435,-59,9.895,0.0492,-0.973033333333333,-0.237816666666667,0.102383333333333,17.5406666666667,2.48983333333333,-10.0101666666667,606.696666666667,1,1,1,0.5
24-May-2018 13:21:30,52,1.00541666666667,0.0692833333333333,-0.3082,-40.5682,5.3164,7.4862,260.452666666667,-0.93415,-0.332775,0.10085,0.0151111111111111,0.298222222222222,0.162666666666667,488.599,0.277925,0.992275,0.251625,5.435,-59,9.895,0.0492,-0.973033333333333,-0.237816666666667,0.102383333333333,17.5406666666667,2.48983333333333,-10.0101666666667,606.696666666667,1,1,1,0.5
24-May-2018 13:21:31,52,0.8863,0.02302,-0.19446,-0.5045,-1.999,0.816,351.405,-0.93366,-0.33322,0.10114,0.386777777777778,0.373333333333333,0.359222222222222,488.599,0.378166666666667,0.778866666666667,0.108566666666667,-1.64944444444444,-7.82566666666667,-3.06733333333333,0.0492,-0.93166,-0.19456,0.33176,39.8781666666667,-41.5853333333333,-14.9491666666667,603.8015,1,1,1,0
24-May-2018 13:21:31,52,0.8863,0.02302,-0.19446,-0.5045,-1.999,0.816,351.405,-0.93366,-0.33322,0.10114,0.386777777777778,0.373333333333333,0.359222222222222,488.599,0.378166666666667,0.778866666666667,0.108566666666667,-1.64944444444444,-7.82566666666667,-3.06733333333333,0.0492,-0.93166,-0.19456,0.33176,39.8781666666667,-41.5853333333333,-14.9491666666667,603.8015,1,1,1,0
24-May-2018 13:21:31,52,0.8863,0.02302,-0.19446,-0.5045,-1.999,0.816,351.405,-0.93366,-0.33322,0.10114,0.386777777777778,0.373333333333333,0.359222222222222,488.599,0.378166666666667,0.778866666666667,0.108566666666667,-1.64944444444444,-7.82566666666667,-3.06733333333333,0.0492,-0.93166,-0.19456,0.33176,39.8781666666667,-41.5853333333333,-14.9491666666667,603.8015,1,1,1,0
24-May-2018 13:21:31,52,0.8863,0.02302,-0.19446,-0.5045,-1.999,0.816,351.405,-0.93366,-0.33322,0.10114,0.386777777777778,0.373333333333333,0.359222222222222,488.599,0.378166666666667,0.778866666666667,0.108566666666667,-1.64944444444444,-7.82566666666667,-3.06733333333333,0.0492,-0.93166,-0.19456,0.33176,39.8781666666667,-41.5853333333333,-14.9491666666667,603.8015,1,1,1,0
24-May-2018 13:21:32,52,0.393166666666667,0.0468333333333333,-0.811216666666667,4.482,-65.5975555555555,-5.56311111111111,351.405,-0.934175,-0.331725,0.101225,0.770625,-0.209875,0.22875,489.05575,0.455633333333333,0.657666666666667,0.388266666666667,-10.175,-103.5,17.75,0.0492,-0.365457142857143,-0.108742857142857,0.382357142857143,-86.4203333333333,-39.713,-47.5606666666667,734.2325,0,0,1,0.5
24-May-2018 13:21:32,52,0.393166666666667,0.0468333333333333,-0.811216666666667,4.482,-65.5975555555555,-5.56311111111111,351.405,-0.934175,-0.331725,0.101225,0.770625,-0.209875,0.22875,489.05575,0.455633333333333,0.657666666666667,0.388266666666667,-10.175,-103.5,17.75,0.0492,-0.365457142857143,-0.108742857142857,0.382357142857143,-86.4203333333333,-39.713,-47.5606666666667,734.2325,0,0,1,0.5
24-May-2018 13:21:32,52,0.393166666666667,0.0468333333333333,-0.811216666666667,4.482,-65.5975555555555,-5.56311111111111,351.405,-0.934175,-0.331725,0.101225,0.770625,-0.209875,0.22875,489.05575,0.455633333333333,0.657666666666667,0.388266666666667,-10.175,-103.5,17.75,0.0492,-0.365457142857143,-0.108742857142857,0.382357142857143,-86.4203333333333,-39.713,-47.5606666666667,734.2325,0,0,1,0.5
24-May-2018 13:21:32,52,0.393166666666667,0.0468333333333333,-0.811216666666667,4.482,-65.5975555555555,-5.56311111111111,351.405,-0.934175,-0.331725,0.101225,0.770625,-0.209875,0.22875,489.05575,0.455633333333333,0.657666666666667,0.388266666666667,-10.175,-103.5,17.75,0.0492,-0.365457142857143,-0.108742857142857,0.382357142857143,-86.4203333333333,-39.713,-47.5606666666667,734.2325,0,0,1,0.5
24-May-2018 13:21:33,51.875,0.460625,0.08685,-0.992875,-4.27285714285714,19.825,2.97185714285714,351.405,-0.932175,-0.332625,0.105225,1.1281,-0.424,0.6832,489.208,-0.123825,0.758325,-0.72925,16.86,-43.0933333333333,-30.4818333333333,0.0492,-0.65595,-0.13285,0.684975,4.9024,12.1586,8.4024,643.875666666667,1,1,1,0
24-May-2018 13:21:33,51.875,0.460625,0.08685,-0.992875,-4.27285714285714,19.825,2.97185714285714,351.405,-0.932175,-0.332625,0.105225,1.1281,-0.424,0.6832,489.208,-0.123825,0.758325,-0.72925,16.86,-43.0933333333333,-30.4818333333333,0.0492,-0.65595,-0.13285,0.684975,4.9024,12.1586,8.4024,643.875666666667,1,1,1,0
24-May-2018 13:21:33,51.875,0.460625,0.08685,-0.992875,-4.27285714285714,19.825,2.97185714285714,0,-0.932175,-0.332625,0.105225,1.1281,-0.424,0.6832,489.208,-0.123825,0.758325,-0.72925,16.86,-43.0933333333333,-30.4818333333333,0.0492,-0.65595,-0.13285,0.684975,4.9024,12.1586,8.4024,643.875666666667,1,1,1,0
24-May-2018 13:21:33,51.875,0.460625,0.08685,-0.992875,-4.27285714285714,19.825,2.97185714285714,0,-0.932175,-0.332625,0.105225,1.1281,-0.424,0.6832,489.208,-0.123825,0.758325,-0.72925,16.86,-43.0933333333333,-30.4818333333333,0.0492,-0.65595,-0.13285,0.684975,4.9024,12.1586,8.4024,643.875666666667,1,1,1,0
24-May-2018 13:21:34,51.7142857142857,0.4636,0.09515,-0.80555,0.824,0.1525,2.4695,256.7035,-0.93495,-0.33345,0.10705,1.40266666666667,0.0413333333333333,1.01666666666667,489.208,-0.20855,0.8256,-0.42095,-5.97366666666667,2.267,6.86966666666667,0.0492,-0.66985,-0.0887,0.68545,1.40233333333333,-1.30066666666667,2.39866666666667,616.859,1,1,1,0.5
24-May-2018 13:21:34,51.7142857142857,0.4636,0.09515,-0.80555,0.824,0.1525,2.4695,256.7035,-0.93495,-0.33345,0.10705,1.40266666666667,0.0413333333333333,1.01666666666667,489.208,-0.20855,0.8256,-0.42095,-5.97366666666667,2.267,6.86966666666667,0.0492,-0.66985,-0.0887,0.68545,1.40233333333333,-1.30066666666667,2.39866666666667,616.859,1,1,1,0.5
24-May-2018 13:21:34,51.7142857142857,0.4636,0.09515,-0.80555,0.824,0.1525,2.4695,256.7035,-0.93495,-0.33345,0.10705,1.40266666666667,0.0413333333333333,1.01666666666667,489.208,-0.20855,0.8256,-0.42095,-5.97366666666667,2.267,6.86966666666667,0.0492,-0.66985,-0.0887,0.68545,1.40233333333333,-1.30066666666667,2.39866666666667,616.859,1,1,1,0.5
24-May-2018 13:21:34,51.7142857142857,0.4636,0.09515,-0.80555,0.824,0.1525,2.4695,256.7035,-0.93495,-0.33345,0.10705,1.40266666666667,0.0413333333333333,1.01666666666667,489.208,-0.20855,0.8256,-0.42095,-5.97366666666667,2.267,6.86966666666667,0.0492,-0.66985,-0.0887,0.68545,1.40233333333333,-1.30066666666667,2.39866666666667,616.859,1,1,1,0.5
24-May-2018 13:21:35,35.5,0.4311,0.023125,-0.876225,7.21,-4.89125,-0.63675,258.123,-0.933033333333333,-0.329066666666667,0.108666666666667,1.5445,-0.1095,1.05733333333333,489.208,-0.128666666666667,0.831033333333333,-0.450233333333333,2.9656,3.8416,-1.666,0.0492,-0.6904,-0.109275,0.6887,-1.622,-1.5002,0.4756,612.354,1,1,1,1
24-May-2018 13:21:35,35.5,0.4311,0.023125,-0.876225,7.21,-4.89125,-0.63675,258.123,-0.933033333333333,-0.329066666666667,0.108666666666667,1.5445,-0.1095,1.05733333333333,489.208,-0.128666666666667,0.831033333333333,-0.450233333333333,2.9656,3.8416,-1.666,0.0492,-0.6904,-0.109275,0.6887,-1.622,-1.5002,0.4756,612.354,1,1,1,1
24-May-2018 13:21:35,35.5,0.4311,0.023125,-0.876225,7.21,-4.89125,-0.63675,258.123,-0.933033333333333,-0.329066666666667,0.108666666666667,1.5445,-0.1095,1.05733333333333,489.208,-0.128666666666667,0.831033333333333,-0.450233333333333,2.9656,3.8416,-1.666,0.0492,-0.6904,-0.109275,0.6887,-1.622,-1.5002,0.4756,612.354,1,1,1,1
24-May-2018 13:21:35,35.5,0.4311,0.023125,-0.876225,7.21,-4.89125,-0.63675,258.123,-0.933033333333333,-0.329066666666667,0.108666666666667,1.5445,-0.1095,1.05733333333333,489.208,-0.128666666666667,0.831033333333333,-0.450233333333333,2.9656,3.8416,-1.666,0.0492,-0.6904,-0.109275,0.6887,-1.622,-1.5002,0.4756,612.354,1,1,1,1
24-May-2018 13:21:36,19,0.4462,0.02255,-0.867325,1.2215,1.00625,-0.5775,262.728,-0.931525,-0.324925,0.109425,2.073,-0.0411428571428571,1.21085714285714,491.447,-0.16276,0.81854,-0.48256,-0.464833333333333,-2.17166666666667,-1.145,0.0492,-0.6754,-0.1155,0.68796,-0.461428571428571,-0.0434285714285714,-1.48085714285714,611.121,1,1,1,1
24-May-2018 13:21:36,19,0.4462,0.02255,-0.867325,1.2215,1.00625,-0.5775,262.728,-0.931525,-0.324925,0.109425,2.073,-0.0411428571428571,1.21085714285714,491.447,-0.16276,0.81854,-0.48256,-0.464833333333333,-2.17166666666667,-1.145,0.0492,-0.6754,-0.1155,0.68796,-0.461428571428571,-0.0434285714285714,-1.48085714285714,611.121,1,1,1,1
24-May-2018 13:21:36,19,0.4462,0.02255,-0.867325,1.2215,1.00625,-0.5775,262.728,-0.931525,-0.324925,0.109425,2.073,-0.0411428571428571,1.21085714285714,491.447,-0.16276,0.81854,-0.48256,-0.464833333333333,-2.17166666666667,-1.145,0.0492,-0.6754,-0.1155,0.68796,-0.461428571428571,-0.0434285714285714,-1.48085714285714,611.121,1,1,1,1
24-May-2018 13:21:36,19,0.4462,0.02255,-0.867325,1.2215,1.00625,-0.5775,262.728,-0.931525,-0.324925,0.109425,2.073,-0.0411428571428571,1.21085714285714,491.447,-0.16276,0.81854,-0.48256,-0.464833333333333,-2.17166666666667,-1.145,0.0492,-0.6754,-0.1155,0.68796,-0.461428571428571,-0.0434285714285714,-1.48085714285714,611.121,1,1,1,1
24-May-2018 13:21:37,19,0.4519,0.0313,-0.85902,0.193666666666667,0.58,0.499333333333333,260.604,-0.934275,-0.3224,0.1127,1.84425,0.724375,1.120625,491.447,-0.16382,0.81062,-0.49206,-2.085,-1.84,-0.0274999999999999,0.0492,-0.66264,-0.14094,0.70592,1.0856,0.5854,0.4148,602.705,1,0,1,1
24-May-2018 13:21:37,19,0.4519,0.0313,-0.85902,0.193666666666667,0.58,0.499333333333333,260.604,-0.934275,-0.3224,0.1127,1.84425,0.724375,1.120625,491.447,-0.16382,0.81062,-0.49206,-2.085,-1.84,-0.0274999999999999,0.0492,-0.66264,-0.14094,0.70592,1.0856,0.5854,0.4148,602.705,1,0,1,1
24-May-2018 13:21:37,19,0.4519,0.0313,-0.85902,0.193666666666667,0.58,0.499333333333333,260.604,-0.934275,-0.3224,0.1127,1.84425,0.724375,1.120625,491.447,-0.16382,0.81062,-0.49206,-2.085,-1.84,-0.0274999999999999,0.0492,-0.66264,-0.14094,0.70592,1.0856,0.5854,0.4148,602.705,1,0,1,1
24-May-2018 13:21:37,19,0.4519,0.0313,-0.85902,0.193666666666667,0.58,0.499333333333333,260.604,-0.934275,-0.3224,0.1127,1.84425,0.724375,1.120625,491.447,-0.16382,0.81062,-0.49206,-2.085,-1.84,-0.0274999999999999,0.0492,-0.66264,-0.14094,0.70592,1.0856,0.5854,0.4148,602.705,1,0,1,1
