TIME,HELMET_RAW,BELT_ACC_X,BELT_ACC_Y,BELT_ACC_Z,BELT_ANG_X,BELT_ANG_Y,BELT_ANG_Z,BELT_LUMINOSITY,NECK_ACC_X,NECK_ACC_Y,NECK_ACC_Z,NECK_ANG_X,NECK_ANG_Y,NECK_ANG_Z,NECK_LUMINOSITY,PCKT_ACC_X,PCKT_ACC_Y,PCKT_ACC_Z,PCKT_ANG_X,PCKT_ANG_Y,PCKT_ANG_Z,PCKT_LUMINOSITY,WRST_ACC_X,WRST_ACC_Y,WRST_ACC_Z,WRST_ANG_X,WRST_ANG_Y,WRST_ANG_Z,WRST_LUMINOSITY,IR_1,IR_2,IR_3,IR_4
24-May-2018 13:21:10,52,0.9498,0.15365,-0.274516666666667,-45.035,14.9528333333333,7.38516666666667,298.972,-0.92986,-0.3347,0.11566,0.62525,0.724375,0.388875,494.848,0.513125,0.829725,0.058775,-45.48,-68.74,-13.12,0.0393333333333333,-0.926183333333333,-0.218816666666667,0.0530166666666667,56.1586666666667,16.8496666666667,-0.792333333333333,552.4266,1,1,1,0
24-May-2018 13:21:10,52,0.9498,0.15365,-0.274516666666667,-45.035,14.9528333333333,7.38516666666667,298.972,-0.92986,-0.3347,0.11566,0.62525,0.724375,0.388875,494.848,0.513125,0.829725,0.058775,-45.48,-68.74,-13.12,0.0393333333333333,-0.926183333333333,-0.218816666666667,0.0530166666666667,56.1586666666667,16.8496666666667,-0.792333333333333,552.4266,1,1,1,0
24-May-2018 13:21:10,52,0.9498,0.15365,-0.274516666666667,-45.035,14.9528333333333,7.38516666666667,298.972,-0.92986,-0.3347,0.11566,0.62525,0.724375,0.388875,494.848,0.513125,0.829725,0.058775,-45.48,-68.74,-13.12,0.0393333333333333,-0.926183333333333,-0.218816666666667,0.0530166666666667,56.1586666666667,16.8496666666667,-0.792333333333333,552.4266,1,1,1,0
24-May-2018 13:21:10,52,0.9498,0.15365,-0.274516666666667,-45.035,14.9528333333333,7.38516666666667,298.972,-0.92986,-0.3347,0.11566,0.62525,0.724375,0.388875,494.848,0.513125,0.829725,0.058775,-45.48,-68.74,-13.12,0.0393333333333333,-0.926183333333333,-0.218816666666667,0.0530166666666667,56.1586666666667,16.8496666666667,-0.792333333333333,552.4266,1,1,1,0
24-May-2018 13:21:11,51.9090909090909,0.9499,0.0422,-0.2098,-34.401,-7.0862,1.124,359.267666666667,-0.9291,-0.33625,0.115225,0.874111111111111,0.630333333333333,0.257666666666667,495.682333333333,0.4453,0.780566666666667,0.234683333333333,-22.7155,-9.68666666666667,12.5176666666667,0.0393333333333333,-0.657457142857143,-0.219485714285714,0.365957142857143,29.6341666666667,-15.569,-18.3943333333333,568.902,1,1,1,0
24-May-2018 13:21:11,51.9090909090909,0.9499,0.0422,-0.2098,-34.401,-7.0862,1.124,359.267666666667,-0.9291,-0.33625,0.115225,0.874111111111111,0.630333333333333,0.257666666666667,495.682333333333,0.4453,0.780566666666667,0.234683333333333,-22.7155,-9.68666666666667,12.5176666666667,0.0393333333333333,-0.657457142857143,-0.219485714285714,0.365957142857143,29.6341666666667,-15.569,-18.3943333333333,568.902,1,1,1,0
24-May-2018 13:21:11,51.9090909090909,0.9499,0.0422,-0.2098,-34.401,-7.0862,1.124,359.267666666667,-0.9291,-0.33625,0.115225,0.874111111111111,0.630333333333333,0.257666666666667,495.682333333333,0.4453,0.780566666666667,0.234683333333333,-22.7155,-9.68666666666667,12.5176666666667,0.0393333333333333,-0.657457142857143,-0.219485714285714,0.365957142857143,29.6341666666667,-15.569,-18.3943333333333,568.902,1,1,1,0
24-May-2018 13:21:11,51.9090909090909,0.9499,0.0422,-0.2098,-34.401,-7.0862,1.124,359.267666666667,-0.9291,-0.33625,0.115225,0.874111111111111,0.630333333333333,0.257666666666667,495.682333333333,0.4453,0.780566666666667,0.234683333333333,-22.7155,-9.68666666666667,12.5176666666667,0.0393333333333333,-0.657457142857143,-0.219485714285714,0.365957142857143,29.6341666666667,-15.569,-18.3943333333333,568.902,1,1,1,0
24-May-2018 13:21:12,51.7777777777778,0.944142857142857,0.0508571428571428,-0.356657142857143,2.09125,-19.059125,6.517875,358.516,-0.92895,-0.3355,0.11365,0.5795,0.99875,0.32025,497.351,0.33105,1.39755,-0.1359,21.4,21.49,-33.964,0.0393333333333333,-0.9517,-0.2362,0.81418,-55.56225,-19.52775,-0.13725,682.0894,1,1,1,1
24-May-2018 13:21:12,51.7777777777778,0.944142857142857,0.0508571428571428,-0.356657142857143,2.09125,-19.059125,6.517875,358.516,-0.92895,-0.3355,0.11365,0.5795,0.99875,0.32025,497.351,0.33105,1.39755,-0.1359,21.4,21.49,-33.964,0.0393333333333333,-0.9517,-0.2362,0.81418,-55.56225,-19.52775,-0.13725,682.0894,1,1,1,1
24-May-2018 13:21:12,51.7777777777778,0.944142857142857,0.0508571428571428,-0.356657142857143,2.09125,-19.059125,6.517875,358.516,-0.92895,-0.3355,0.11365,0.5795,0.99875,0.32025,497.351,0.33105,1.39755,-0.1359,21.4,21.49,-33.964,0.0393333333333333,-0.9517,-0.2362,0.81418,-55.56225,-19.52775,-0.13725,682.0894,1,1,1,1
24-May-2018 13:21:12,51.7777777777778,0.944142857142857,0.0508571428571428,-0.356657142857143,2.09125,-19.059125,6.517875,358.516,-0.92895,-0.3355,0.11365,0.5795,0.99875,0.32025,497.351,0.33105,1.39755,-0.1359,21.4,21.49,-33.964,0.0393333333333333,-0.9517,-0.2362,0.81418,-55.56225,-19.52775,-0.13725,682.0894,1,1,1,1
24-May-2018 13:21:13,51.7777777777778,0.278,0.0117375,-0.8613375,-6.63285714285714,-1.12714285714286,-6.13442857142857,358.516,-0.929375,-0.33545,0.111,0.535333333333333,1.07744444444444,0.372777777777778,497.351,-0.32305,0.9219,-0.3407,2.0274,0.634,5.0852,0.07475,-0.61828,-0.26098,0.71588,3.79785714285714,6.67257142857143,3.91114285714286,667.591,1,1,1,1
24-May-2018 13:21:13,51.7777777777778,0.278,0.0117375,-0.8613375,-6.63285714285714,-1.12714285714286,-6.13442857142857,358.516,-0.929375,-0.33545,0.111,0.535333333333333,1.07744444444444,0.372777777777778,497.351,-0.32305,0.9219,-0.3407,2.0274,0.634,5.0852,0.07475,-0.61828,-0.26098,0.71588,3.79785714285714,6.67257142857143,3.91114285714286,667.591,1,1,1,1
24-May-2018 13:21:13,51.7777777777778,0.278,0.0117375,-0.8613375,-6.63285714285714,-1.12714285714286,-6.13442857142857,358.516,-0.929375,-0.33545,0.111,0.535333333333333,1.07744444444444,0.372777777777778,497.351,-0.32305,0.9219,-0.3407,2.0274,0.634,5.0852,0.07475,-0.61828,-0.26098,0.71588,3.79785714285714,6.67257142857143,3.91114285714286,667.591,1,1,1,1
24-May-2018 13:21:13,51.7777777777778,0.278,0.0117375,-0.8613375,-6.63285714285714,-1.12714285714286,-6.13442857142857,0,-0.929375,-0.33545,0.111,0.535333333333333,1.07744444444444,0.372777777777778,497.351,-0.32305,0.9219,-0.3407,2.0274,0.634,5.0852,0.07475,-0.61828,-0.26098,0.71588,3.79785714285714,6.67257142857143,3.91114285714286,667.591,1,1,1,1
24-May-2018 13:21:14,51.9,0.439875,0.08775,-0.8284625,5.35566666666667,7.55,-0.0608333333333335,246.477,-0.93074,-0.33716,0.11134,0.47275,0.9455,0.297375,495.696333333333,-0.13385,0.904533333333333,-0.3265,-0.150333333333333,-0.993833333333333,2.11416666666667,0.1205,-0.669375,-0.148325,0.708875,2.69825,3.201,3.3385,627.0082,0,0,1,1
24-May-2018 13:21:14,51.9,0.439875,0.08775,-0.8284625,5.35566666666667,7.55,-0.0608333333333335,246.477,-0.93074,-0.33716,0.11134,0.47275,0.9455,0.297375,495.696333333333,-0.13385,0.904533333333333,-0.3265,-0.150333333333333,-0.993833333333333,2.11416666666667,0.1205,-0.669375,-0.148325,0.708875,2.69825,3.201,3.3385,627.0082,0,0,1,1
24-May-2018 13:21:14,51.9,0.439875,0.08775,-0.8284625,5.35566666666667,7.55,-0.0608333333333335,246.477,-0.93074,-0.33716,0.11134,0.47275,0.9455,0.297375,495.696333333333,-0.13385,0.904533333333333,-0.3265,-0.150333333333333,-0.993833333333333,2.11416666666667,0.1205,-0.669375,-0.148325,0.708875,2.69825,3.201,3.3385,627.0082,0,0,1,1
24-May-2018 13:21:14,51.9,0.439875,0.08775,-0.8284625,5.35566666666667,7.55,-0.0608333333333335,246.477,-0.93074,-0.33716,0.11134,0.47275,0.9455,0.297375,495.696333333333,-0.13385,0.904533333333333,-0.3265,-0.150333333333333,-0.993833333333333,2.11416666666667,0.1205,-0.669375,-0.148325,0.708875,2.69825,3.201,3.3385,627.0082,0,0,1,1
24-May-2018 13:21:15,51.875,0.49838,0.04952,-0.8352,1.10883333333333,-2.38533333333333,0.915666666666667,241.8905,-0.93035,-0.336875,0.109175,0.928555555555556,0.854,0.508333333333333,494.869,-0.14165,0.9133,-0.34035,-1.8,-0.7532,-0.604,0.088,-0.652975,-0.146325,0.713675,0.557714285714286,0.583571428571429,-0.949428571428571,630.364,0,0,1,1
24-May-2018 13:21:15,51.875,0.49838,0.04952,-0.8352,1.10883333333333,-2.38533333333333,0.915666666666667,241.8905,-0.93035,-0.336875,0.109175,0.928555555555556,0.854,0.508333333333333,494.869,-0.14165,0.9133,-0.34035,-1.8,-0.7532,-0.604,0.088,-0.652975,-0.146325,0.713675,0.557714285714286,0.583571428571429,-0.949428571428571,630.364,0,0,1,1
24-May-2018 13:21:15,51.875,0.49838,0.04952,-0.8352,1.10883333333333,-2.38533333333333,0.915666666666667,241.8905,-0.93035,-0.336875,0.109175,0.928555555555556,0.854,0.508333333333333,494.869,-0.14165,0.9133,-0.34035,-1.8,-0.7532,-0.604,0.088,-0.652975,-0.146325,0.713675,0.557714285714286,0.583571428571429,-0.949428571428571,630.364,0,0,1,1
24-May-2018 13:21:15,51.875,0.49838,0.04952,-0.8352,1.10883333333333,-2.38533333333333,0.915666666666667,241.8905,-0.93035,-0.336875,0.109175,0.928555555555556,0.854,0.508333333333333,494.869,-0.14165,0.9133,-0.34035,-1.8,-0.7532,-0.604,0.088,-0.652975,-0.146325,0.713675,0.557714285714286,0.583571428571429,-0.949428571428571,630.364,0,0,1,1
24-May-2018 13:21:16,51.9,0.47085,0.04785,-0.842366666666667,0.448333333333333,-1.17616666666667,0.457666666666667,245.6244,-0.931425,-0.33555,0.107375,0.7395,0.77775,0.4575,494.869,-0.12606,0.89856,-0.32228,-0.5196,-1.779,0.0274,0.088,-0.64872,-0.1556,0.7228,0.162666666666667,-0.691333333333333,-1.118,633.2945,1,1,1,1
24-May-2018 13:21:16,51.9,0.47085,0.04785,-0.842366666666667,0.448333333333333,-1.17616666666667,0.457666666666667,245.6244,-0.931425,-0.33555,0.107375,0.7395,0.77775,0.4575,494.869,-0.12606,0.89856,-0.32228,-0.5196,-1.779,0.0274,0.088,-0.64872,-0.1556,0.7228,0.162666666666667,-0.691333333333333,-1.118,633.2945,1,1,1,1
24-May-2018 13:21:16,51.9,0.47085,0.04785,-0.842366666666667,0.448333333333333,-1.17616666666667,0.457666666666667,245.6244,-0.931425,-0.33555,0.107375,0.7395,0.77775,0.4575,494.869,-0.12606,0.89856,-0.32228,-0.5196,-1.779,0.0274,0.088,-0.64872,-0.1556,0.7228,0.162666666666667,-0.691333333333333,-1.118,633.2945,1,1,1,1
24-May-2018 13:21:16,51.9,0.47085,0.04785,-0.842366666666667,0.448333333333333,-1.17616666666667,0.457666666666667,245.6244,-0.931425,-0.33555,0.107375,0.7395,0.77775,0.4575,494.869,-0.12606,0.89856,-0.32228,-0.5196,-1.779,0.0274,0.088,-0.64872,-0.1556,0.7228,0.162666666666667,-0.691333333333333,-1.118,633.2945,1,1,1,1
24-May-2018 13:21:17,52.1,0.4714375,0.048325,-0.847575,0.803833333333333,-0.322166666666667,0.538666666666667,247.703333333333,-0.93192,-0.33606,0.10798,0.962222222222222,0.481333333333333,0.352444444444445,494.119666666667,-0.12835,0.90195,-0.330775,-0.309142857142857,-0.687714285714286,-0.0674285714285714,0.088,-0.638375,-0.15405,0.7231,0.41175,0.19825,-0.10675,634.625333333333,1,1,1,1
24-May-2018 13:21:17,52.1,0.4714375,0.048325,-0.847575,0.803833333333333,-0.322166666666667,0.538666666666667,247.703333333333,-0.93192,-0.33606,0.10798,0.962222222222222,0.481333333333333,0.352444444444445,494.119666666667,-0.12835,0.90195,-0.330775,-0.309142857142857,-0.687714285714286,-0.0674285714285714,0.088,-0.638375,-0.15405,0.7231,0.41175,0.19825,-0.10675,634.625333333333,1,1,1,1
24-May-2018 13:21:17,52.1,0.4714375,0.048325,-0.847575,0.803833333333333,-0.322166666666667,0.538666666666667,247.703333333333,-0.93192,-0.33606,0.10798,0.962222222222222,0.481333333333333,0.352444444444445,494.119666666667,-0.12835,0.90195,-0.330775,-0.309142857142857,-0.687714285714286,-0.0674285714285714,0.088,-0.638375,-0.15405,0.7231,0.41175,0.19825,-0.10675,634.625333333333,1,1,1,1
24-May-2018 13:21:17,52.1,0.4714375,0.048325,-0.847575,0.803833333333333,-0.322166666666667,0.538666666666667,247.703333333333,-0.93192,-0.33606,0.10798,0.962222222222222,0.481333333333333,0.352444444444445,494.119666666667,-0.12835,0.90195,-0.330775,-0.309142857142857,-0.687714285714286,-0.0674285714285714,0.088,-0.638375,-0.15405,0.7231,0.41175,0.19825,-0.10675,634.625333333333,1,1,1,1
24-May-2018 13:21:18,52,0.472166666666667,0.0508166666666667,-0.842366666666667,-0.571428571428571,-0.422857142857143,0.775285714285714,246.27525,-0.929725,-0.3352,0.108125,0.648125,0.358375,0.785375,492.621,-0.13732,0.90592,-0.32518,-1.764,-1.0096,-0.3018,0.088,-0.6466,-0.156771428571429,0.721142857142857,0.357285714285714,0.618428571428572,0.0435714285714286,633.391666666667,0,0,1,1
24-May-2018 13:21:18,52,0.472166666666667,0.0508166666666667,-0.842366666666667,-0.571428571428571,-0.422857142857143,0.775285714285714,246.27525,-0.929725,-0.3352,0.108125,0.648125,0.358375,0.785375,492.621,-0.13732,0.90592,-0.32518,-1.764,-1.0096,-0.3018,0.088,-0.6466,-0.156771428571429,0.721142857142857,0.357285714285714,0.618428571428572,0.0435714285714286,633.391666666667,0,0,1,1
24-May-2018 13:21:18,52,0.472166666666667,0.0508166666666667,-0.842366666666667,-0.571428571428571,-0.422857142857143,0.775285714285714,246.27525,-0.929725,-0.3352,0.108125,0.648125,0.358375,0.785375,492.621,-0.13732,0.90592,-0.32518,-1.764,-1.0096,-0.3018,0.088,-0.6466,-0.156771428571429,0.721142857142857,0.357285714285714,0.618428571428572,0.0435714285714286,633.391666666667,0,0,1,1
24-May-2018 13:21:18,52,0.472166666666667,0.0508166666666667,-0.842366666666667,-0.571428571428571,-0.422857142857143,0.775285714285714,246.27525,-0.929725,-0.3352,0.108125,0.648125,0.358375,0.785375,492.621,-0.13732,0.90592,-0.32518,-1.764,-1.0096,-0.3018,0.088,-0.6466,-0.156771428571429,0.721142857142857,0.357285714285714,0.618428571428572,0.0435714285714286,633.391666666667,0,0,1,1
24-May-2018 13:21:19,51.7777777777778,0.40295,0.0747833333333333,-0.87895,6.32033333333333,-4.46983333333333,-2.244,246.36925,-0.931725,-0.333,0.11005,0.198888888888889,1.13155555555556,0.501555555555556,492.621,0.01635,0.8654,-0.383225,18.2625,22.10225,10.1055,0.0868,-0.64572,-0.11848,0.8147,17.1342857142857,-23.3444285714286,6.70728571428571,632.003,1,1,1,1
24-May-2018 13:21:19,51.7777777777778,0.40295,0.0747833333333333,-0.87895,6.32033333333333,-4.46983333333333,-2.244,246.36925,-0.931725,-0.333,0.11005,0.198888888888889,1.13155555555556,0.501555555555556,492.621,0.01635,0.8654,-0.383225,18.2625,22.10225,10.1055,0.0868,-0.64572,-0.11848,0.8147,17.1342857142857,-23.3444285714286,6.70728571428571,632.003,1,1,1,1
24-May-2018 13:21:19,51.7777777777778,0.40295,0.0747833333333333,-0.87895,6.32033333333333,-4.46983333333333,-2.244,246.36925,-0.931725,-0.333,0.11005,0.198888888888889,1.13155555555556,0.501555555555556,492.621,0.01635,0.8654,-0.383225,18.2625,22.10225,10.1055,0.0868,-0.64572,-0.11848,0.8147,17.1342857142857,-23.3444285714286,6.70728571428571,632.003,1,1,1,1
24-May-2018 13:21:19,51.7777777777778,0.40295,0.0747833333333333,-0.87895,6.32033333333333,-4.46983333333333,-2.244,246.36925,-0.931725,-0.333,0.11005,0.198888888888889,1.13155555555556,0.501555555555556,492.621,0.01635,0.8654,-0.383225,18.2625,22.10225,10.1055,0.0868,-0.64572,-0.11848,0.8147,17.1342857142857,-23.3444285714286,6.70728571428571,632.003,1,1,1,1
