TIME,HELMET_RAW,BELT_ACC_X,BELT_ACC_Y,BELT_ACC_Z,BELT_ANG_X,BELT_ANG_Y,BELT_ANG_Z,BELT_LUMINOSITY,NECK_ACC_X,NECK_ACC_Y,NECK_ACC_Z,NECK_ANG_X,NECK_ANG_Y,NECK_ANG_Z,NECK_LUMINOSITY,PCKT_ACC_X,PCKT_ACC_Y,PCKT_ACC_Z,PCKT_ANG_X,PCKT_ANG_Y,PCKT_ANG_Z,PCKT_LUMINOSITY,WRST_ACC_X,WRST_ACC_Y,WRST_ACC_Z,WRST_ANG_X,WRST_ANG_Y,WRST_ANG_Z,WRST_LUMINOSITY,IR_1,IR_2,IR_3,IR_4
24-May-2018 12:34:36,-475.285714285714,0.0533857142857143,0.0702714285714286,1.03484285714286,0.478166666666667,-0.5975,0.254166666666667,918.958,-0.8846,-0.137875,-0.513375,0.336125,-3.51625,2.3095,67.16,-0.0970625,0.007675,1.090625,-0.715,-0.83,0.102833333333333,3.76033333333333,0.10825,-0.48535,0.88795,0.528666666666667,0.498166666666667,-0.101666666666667,755.937,0,1,1,1
24-May-2018 12:34:36,-475.285714285714,0.0533857142857143,0.0702714285714286,1.03484285714286,0.478166666666667,-0.5975,0.254166666666667,918.958,-0.8846,-0.137875,-0.513375,0.336125,-3.51625,2.3095,67.16,-0.0970625,0.007675,1.090625,-0.715,-0.83,0.102833333333333,3.76033333333333,0.10825,-0.48535,0.88795,0.528666666666667,0.498166666666667,-0.101666666666667,755.937,0,1,1,1
24-May-2018 12:34:36,-475.285714285714,0.0533857142857143,0.0702714285714286,1.03484285714286,0.478166666666667,-0.5975,0.254166666666667,918.958,-0.8846,-0.137875,-0.513375,0.336125,-3.51625,2.3095,67.16,-0.0970625,0.007675,1.090625,-0.715,-0.83,0.102833333333333,3.76033333333333,0.10825,-0.48535,0.88795,0.528666666666667,0.498166666666667,-0.101666666666667,755.937,0,1,1,1
24-May-2018 12:34:36,-475.285714285714,0.0533857142857143,0.0702714285714286,1.03484285714286,0.478166666666667,-0.5975,0.254166666666667,918.958,-0.8846,-0.137875,-0.513375,0.336125,-3.51625,2.3095,67.16,-0.0970625,0.007675,1.090625,-0.715,-0.83,0.102833333333333,3.76033333333333,0.10825,-0.48535,0.88795,0.528666666666667,0.498166666666667,-0.101666666666667,755.937,0,1,1,1
24-May-2018 12:34:37,-58.75,0.0666666666666667,0.0695833333333333,1.03405,0.467666666666667,-0.353333333333333,0.3965,918.82975,-0.89046,-0.13242,-0.50518,0.935555555555556,-2.789,1.159,62.444,-0.0974571428571429,0.00785714285714286,1.09064285714286,-0.39,-0.9175,-0.345,3.72866666666667,0.107075,-0.484375,0.889125,0.813333333333333,0.599833333333333,-0.203333333333333,755.602,0,1,1,1
24-May-2018 12:34:37,-58.75,0.0666666666666667,0.0695833333333333,1.03405,0.467666666666667,-0.353333333333333,0.3965,918.82975,-0.89046,-0.13242,-0.50518,0.935555555555556,-2.789,1.159,62.444,-0.0974571428571429,0.00785714285714286,1.09064285714286,-0.39,-0.9175,-0.345,3.72866666666667,0.107075,-0.484375,0.889125,0.813333333333333,0.599833333333333,-0.203333333333333,755.602,0,1,1,1
24-May-2018 12:34:37,-58.75,0.0666666666666667,0.0695833333333333,1.03405,0.467666666666667,-0.353333333333333,0.3965,918.82975,-0.89046,-0.13242,-0.50518,0.935555555555556,-2.789,1.159,62.444,-0.0974571428571429,0.00785714285714286,1.09064285714286,-0.39,-0.9175,-0.345,3.72866666666667,0.107075,-0.484375,0.889125,0.813333333333333,0.599833333333333,-0.203333333333333,755.602,0,1,1,1
24-May-2018 12:34:37,-58.75,0.0666666666666667,0.0695833333333333,1.03405,0.467666666666667,-0.353333333333333,0.3965,918.82975,-0.89046,-0.13242,-0.50518,0.935555555555556,-2.789,1.159,62.444,-0.0974571428571429,0.00785714285714286,1.09064285714286,-0.39,-0.9175,-0.345,3.72866666666667,0.107075,-0.484375,0.889125,0.813333333333333,0.599833333333333,-0.203333333333333,755.602,0,1,1,1
24-May-2018 12:34:38,115.75,0.06114,0.0693,1.02996,0.593142857142857,-1.14757142857143,0.261428571428571,919.887,-0.89025,-0.1402,-0.501683333333333,0.605333333333333,1.28333333333333,-2.74666666666667,61.8086666666667,-0.09468,0.00866,1.09108,-0.228666666666667,-1.085,-0.717,3.7,0.107775,-0.4838,0.8893,0.86925,0.6405,-0.0915,755.472,1,1,1,1
24-May-2018 12:34:38,115.75,0.06114,0.0693,1.02996,0.593142857142857,-1.14757142857143,0.261428571428571,919.887,-0.89025,-0.1402,-0.501683333333333,0.605333333333333,1.28333333333333,-2.74666666666667,61.8086666666667,-0.09468,0.00866,1.09108,-0.228666666666667,-1.085,-0.717,3.7,0.107775,-0.4838,0.8893,0.86925,0.6405,-0.0915,755.472,1,1,1,1
24-May-2018 12:34:38,115.75,0.06114,0.0693,1.02996,0.593142857142857,-1.14757142857143,0.261428571428571,919.887,-0.89025,-0.1402,-0.501683333333333,0.605333333333333,1.28333333333333,-2.74666666666667,61.8086666666667,-0.09468,0.00866,1.09108,-0.228666666666667,-1.085,-0.717,3.7,0.107775,-0.4838,0.8893,0.86925,0.6405,-0.0915,755.472,1,1,1,1
24-May-2018 12:34:38,115.75,0.06114,0.0693,1.02996,0.593142857142857,-1.14757142857143,0.261428571428571,919.887,-0.89025,-0.1402,-0.501683333333333,0.605333333333333,1.28333333333333,-2.74666666666667,61.8086666666667,-0.09468,0.00866,1.09108,-0.228666666666667,-1.085,-0.717,3.7,0.107775,-0.4838,0.8893,0.86925,0.6405,-0.0915,755.472,1,1,1,1
24-May-2018 12:34:39,-56.3333333333333,0.0378666666666667,0.0699333333333333,1.0356,0.523428571428571,-0.226285714285714,0.400857142857143,919.887,-0.88296,-0.1568,-0.50756,1.96675,1.2735,-1.785,60.538,-0.0967833333333333,0.00736666666666667,1.09,-0.3378,-0.812,-0.168,3.697,0.1113,-0.486766666666667,0.8902,1.244,2.2196,0.2194,755.90425,0,1,1,1
24-May-2018 12:34:39,-56.3333333333333,0.0378666666666667,0.0699333333333333,1.0356,0.523428571428571,-0.226285714285714,0.400857142857143,919.887,-0.88296,-0.1568,-0.50756,1.96675,1.2735,-1.785,60.538,-0.0967833333333333,0.00736666666666667,1.09,-0.3378,-0.812,-0.168,3.697,0.1113,-0.486766666666667,0.8902,1.244,2.2196,0.2194,755.90425,0,1,1,1
24-May-2018 12:34:39,-56.3333333333333,0.0378666666666667,0.0699333333333333,1.0356,0.523428571428571,-0.226285714285714,0.400857142857143,919.887,-0.88296,-0.1568,-0.50756,1.96675,1.2735,-1.785,60.538,-0.0967833333333333,0.00736666666666667,1.09,-0.3378,-0.812,-0.168,3.697,0.1113,-0.486766666666667,0.8902,1.244,2.2196,0.2194,755.90425,0,1,1,1
24-May-2018 12:34:39,-56.3333333333333,0.0378666666666667,0.0699333333333333,1.0356,0.523428571428571,-0.226285714285714,0.400857142857143,919.887,-0.88296,-0.1568,-0.50756,1.96675,1.2735,-1.785,60.538,-0.0967833333333333,0.00736666666666667,1.09,-0.3378,-0.812,-0.168,3.697,0.1113,-0.486766666666667,0.8902,1.244,2.2196,0.2194,755.90425,0,1,1,1
24-May-2018 12:34:40,865,0.0503111111111111,0.0679,1.0345,0.864,-0.0698333333333333,0.376166666666667,919.887,-0.88226,-0.1672,-0.50248,1.981875,-0.12,0.138875,60.608,-0.0972714285714286,0.0068,1.09164285714286,-0.4,-0.83,-0.18,3.697,0.10765,-0.485,0.88825,0.32025,0.3355,-0.305,756.214,1,1,1,1
24-May-2018 12:34:40,865,0.0503111111111111,0.0679,1.0345,0.864,-0.0698333333333333,0.376166666666667,919.887,-0.88226,-0.1672,-0.50248,1.981875,-0.12,0.138875,60.608,-0.0972714285714286,0.0068,1.09164285714286,-0.4,-0.83,-0.18,3.697,0.10765,-0.485,0.88825,0.32025,0.3355,-0.305,756.214,1,1,1,1
24-May-2018 12:34:40,865,0.0503111111111111,0.0679,1.0345,0.864,-0.0698333333333333,0.376166666666667,919.887,-0.88226,-0.1672,-0.50248,1.981875,-0.12,0.138875,60.608,-0.0972714285714286,0.0068,1.09164285714286,-0.4,-0.83,-0.18,3.697,0.10765,-0.485,0.88825,0.32025,0.3355,-0.305,756.214,1,1,1,1
24-May-2018 12:34:40,865,0.0503111111111111,0.0679,1.0345,0.864,-0.0698333333333333,0.376166666666667,919.887,-0.88226,-0.1672,-0.50248,1.981875,-0.12,0.138875,60.608,-0.0972714285714286,0.0068,1.09164285714286,-0.4,-0.83,-0.18,3.697,0.10765,-0.485,0.88825,0.32025,0.3355,-0.305,756.214,1,1,1,1
24-May-2018 12:34:41,100.5,0.0629,0.0654,1.032,0.183,-1.09,0.427,919.887,-0.8815,-0.1635,-0.499,1.768,1.159,0.244,60.608,-0.0994,0.0089,1.0907,-0.79,-0.42,0.427,3.697,0.10765,-0.485,0.88825,0.061,0.427,0.183,756.214,0,1,1,0
24-May-2018 12:34:41,100.5,0.0629,0.0654,1.032,0.183,-1.09,0.427,919.887,-0.8815,-0.1635,-0.499,1.768,1.159,0.244,60.608,-0.0994,0.0089,1.0907,-0.79,-0.42,0.427,3.697,0.10765,-0.485,0.88825,0.061,0.427,0.183,756.214,0,1,1,0
24-May-2018 12:34:41,100.5,0.0629,0.0654,1.032,0.183,-1.09,0.427,919.887,-0.8815,-0.1635,-0.499,1.768,1.159,0.244,60.608,-0.0994,0.0089,1.0907,-0.79,-0.42,0.427,3.697,0.10765,-0.485,0.88825,0.061,0.427,0.183,756.214,0,1,1,0
24-May-2018 12:34:41,100.5,0.0629,0.0654,1.032,0.183,-1.09,0.427,919.887,-0.8815,-0.1635,-0.499,1.768,1.159,0.244,0,-0.0994,0.0089,1.0907,-0.79,-0.42,0.427,0,0,0,0,0.061,0.427,0.183,0,0,1,1,0
24-May-2018 12:34:42,187.6,0.0622142857142857,0.0643,1.03287142857143,0.465125,0.07025,0.388875,919.887,-0.87788,-0.16622,-0.51348,0.225,2.94844444444444,-0.161,60.818,-0.0973,0.0066,1.09025,-0.551428571428571,-1.01428571428571,-0.24,3.715,0.108466666666667,-0.482066666666667,0.890766666666667,0.810285714285714,0.575142857142857,-0.183,756.325,1,1,1,0
24-May-2018 12:34:42,187.6,0.0622142857142857,0.0643,1.03287142857143,0.465125,0.07025,0.388875,919.887,-0.87788,-0.16622,-0.51348,0.225,2.94844444444444,-0.161,60.818,-0.0973,0.0066,1.09025,-0.551428571428571,-1.01428571428571,-0.24,3.715,0.108466666666667,-0.482066666666667,0.890766666666667,0.810285714285714,0.575142857142857,-0.183,756.325,1,1,1,0
24-May-2018 12:34:42,187.6,0.0622142857142857,0.0643,1.03287142857143,0.465125,0.07025,0.388875,919.887,-0.87788,-0.16622,-0.51348,0.225,2.94844444444444,-0.161,60.818,-0.0973,0.0066,1.09025,-0.551428571428571,-1.01428571428571,-0.24,3.715,0.108466666666667,-0.482066666666667,0.890766666666667,0.810285714285714,0.575142857142857,-0.183,756.325,1,1,1,0
24-May-2018 12:34:42,187.6,0.0622142857142857,0.0643,1.03287142857143,0.465125,0.07025,0.388875,0,-0.87788,-0.16622,-0.51348,0.225,2.94844444444444,-0.161,60.818,-0.0973,0.0066,1.09025,-0.551428571428571,-1.01428571428571,-0.24,3.715,0.108466666666667,-0.482066666666667,0.890766666666667,0.810285714285714,0.575142857142857,-0.183,756.325,1,1,1,0
24-May-2018 12:34:43,1126,0.05885,0.067875,1.032975,0.8296,0.1376,0.3782,920.3022,-0.8786,-0.170525,-0.51775,0.753111111111111,0.0628888888888889,-0.120666666666667,60.4596666666667,-0.09676,0.0074,1.0897,-0.431666666666667,-0.95,-0.189,3.6985,0.10824,-0.4811,0.89048,0.742166666666667,0.549,-0.162666666666667,757.008333333333,1,1,1,1
24-May-2018 12:34:43,1126,0.05885,0.067875,1.032975,0.8296,0.1376,0.3782,920.3022,-0.8786,-0.170525,-0.51775,0.753111111111111,0.0628888888888889,-0.120666666666667,60.4596666666667,-0.09676,0.0074,1.0897,-0.431666666666667,-0.95,-0.189,3.6985,0.10824,-0.4811,0.89048,0.742166666666667,0.549,-0.162666666666667,757.008333333333,1,1,1,1
24-May-2018 12:34:43,1126,0.05885,0.067875,1.032975,0.8296,0.1376,0.3782,920.3022,-0.8786,-0.170525,-0.51775,0.753111111111111,0.0628888888888889,-0.120666666666667,60.4596666666667,-0.09676,0.0074,1.0897,-0.431666666666667,-0.95,-0.189,3.6985,0.10824,-0.4811,0.89048,0.742166666666667,0.549,-0.162666666666667,757.008333333333,1,1,1,1
24-May-2018 12:34:43,1126,0.05885,0.067875,1.032975,0.8296,0.1376,0.3782,920.3022,-0.8786,-0.170525,-0.51775,0.753111111111111,0.0628888888888889,-0.120666666666667,60.4596666666667,-0.09676,0.0074,1.0897,-0.431666666666667,-0.95,-0.189,3.6985,0.10824,-0.4811,0.89048,0.742166666666667,0.549,-0.162666666666667,757.008333333333,1,1,1,1
24-May-2018 12:34:44,-73.7142857142857,0.0508,0.0677,1.0297,0.8296,0.1376,0.3782,919.257,-0.8797,-0.168,-0.5115,0.367333333333333,-1.48,-0.38,59.743,-0.09615,0.00645,1.0909,-0.42,-1.03,-0.189,3.6985,0.10824,-0.4811,0.89048,0.427,0.366,-0.061,756.436,1,1,1,0
24-May-2018 12:34:44,-73.7142857142857,0.0508,0.0677,1.0297,0.8296,0.1376,0.3782,919.257,-0.8797,-0.168,-0.5115,0.367333333333333,-1.48,-0.38,59.743,-0.09615,0.00645,1.0909,-0.42,-1.03,-0.189,3.6985,0.10824,-0.4811,0.89048,0.427,0.366,-0.061,756.436,1,1,1,0
24-May-2018 12:34:44,-73.7142857142857,0.0508,0.0677,1.0297,0.8296,0.1376,0.3782,919.257,-0.8797,-0.168,-0.5115,0.367333333333333,-1.48,-0.38,59.743,-0.09615,0.00645,1.0909,-0.42,-1.03,-0.189,3.6985,0.10824,-0.4811,0.89048,0.427,0.366,-0.061,756.436,1,1,1,0
24-May-2018 12:34:44,-73.7142857142857,0.0508,0.0677,1.0297,0,0,0,919.257,-0.8797,-0.168,-0.5115,0.367333333333333,-1.48,-0.38,59.743,-0.09615,0.00645,1.0909,-0.42,-1.03,0,0,0.10824,-0.4811,0.89048,0.427,0.366,-0.061,756.436,1,1,1,0
24-May-2018 12:34:45,118.5,0.05925,0.067,1.03585,0.5795,-1.185,0.2135,919.601,-0.8794,-0.16915,-0.5115,1.0365,1.2215,-1.305,59.743,-0.0983,0.0055,1.0907,-0.575,-0.785,-0.09,3.721,0.10824,-0.4811,0.89048,0.61,0.4575,-0.244,756.436,1,1,1,1
24-May-2018 12:34:45,118.5,0.05925,0.067,1.03585,0.5795,-1.185,0.2135,919.601,-0.8794,-0.16915,-0.5115,1.0365,1.2215,-1.305,59.743,-0.0983,0.0055,1.0907,-0.575,-0.785,-0.09,3.721,0.10824,-0.4811,0.89048,0.61,0.4575,-0.244,756.436,1,1,1,1
24-May-2018 12:34:45,118.5,0.05925,0.067,1.03585,0.5795,-1.185,0.2135,919.601,-0.8794,-0.16915,-0.5115,1.0365,1.2215,-1.305,59.743,-0.0983,0.0055,1.0907,-0.575,-0.785,-0.09,3.721,0,0,0,0.61,0.4575,-0.244,756.436,1,1,1,1
24-May-2018 12:34:45,118.5,0.05925,0.067,1.03585,0.5795,-1.185,0.2135,919.601,-0.8794,-0.16915,-0.5115,1.0365,1.2215,-1.305,59.743,-0.0983,0.0055,1.0907,-0.575,-0.785,-0.09,3.721,0,0,0,0.61,0.4575,-0.244,756.436,1,1,1,1
24-May-2018 12:34:46,157.6,0.0611333333333333,0.0673,1.0349,0.50325,-0.39,0.22875,919.601,-0.8782,-0.17125,-0.5122,1.63125,0.07775,0.031,59.743,-0.09925,0.00785,1.09145,-0.686666666666667,-1.01,-0.14,3.691,0.10955,-0.48295,0.88955,0.589666666666667,0.508333333333333,-0.162666666666667,756.436,1,1,1,1
24-May-2018 12:34:46,157.6,0.0611333333333333,0.0673,1.0349,0.50325,-0.39,0.22875,919.601,-0.8782,-0.17125,-0.5122,1.63125,0.07775,0.031,59.743,-0.09925,0.00785,1.09145,-0.686666666666667,-1.01,-0.14,3.691,0.10955,-0.48295,0.88955,0.589666666666667,0.508333333333333,-0.162666666666667,756.436,1,1,1,1
24-May-2018 12:34:46,157.6,0.0611333333333333,0.0673,1.0349,0.50325,-0.39,0.22875,919.601,-0.8782,-0.17125,-0.5122,1.63125,0.07775,0.031,59.743,-0.09925,0.00785,1.09145,-0.686666666666667,-1.01,-0.14,3.691,0.10955,-0.48295,0.88955,0.589666666666667,0.508333333333333,-0.162666666666667,756.436,1,1,1,1
24-May-2018 12:34:46,157.6,0.0611333333333333,0.0673,1.0349,0.50325,-0.39,0.22875,0,-0.8782,-0.17125,-0.5122,1.63125,0.07775,0.031,59.743,-0.09925,0.00785,1.09145,-0.686666666666667,-1.01,-0.14,3.691,0.10955,-0.48295,0.88955,0.589666666666667,0.508333333333333,-0.162666666666667,0,1,1,1,1
24-May-2018 12:34:47,396.6,0.06215,0.0661,1.03435,0.569333333333333,0.671,0.325333333333333,918.836,-0.8759,-0.17245,-0.50645,1.7225,1.41825,0.869,59.743,-0.0978333333333333,0.00566666666666667,1.0903,-0.503333333333333,-0.89,-0.26,3.691,0.1096,-0.483566666666667,0.8892,0.366,0.41175,-0.13725,756.026,0,1,1,1
24-May-2018 12:34:47,396.6,0.06215,0.0661,1.03435,0.569333333333333,0.671,0.325333333333333,918.836,-0.8759,-0.17245,-0.50645,1.7225,1.41825,0.869,59.743,-0.0978333333333333,0.00566666666666667,1.0903,-0.503333333333333,-0.89,-0.26,3.691,0.1096,-0.483566666666667,0.8892,0.366,0.41175,-0.13725,756.026,0,1,1,1
24-May-2018 12:34:47,396.6,0.06215,0.0661,1.03435,0.569333333333333,0.671,0.325333333333333,918.836,-0.8759,-0.17245,-0.50645,1.7225,1.41825,0.869,59.743,-0.0978333333333333,0.00566666666666667,1.0903,-0.503333333333333,-0.89,-0.26,3.691,0.1096,-0.483566666666667,0.8892,0.366,0.41175,-0.13725,756.026,0,1,1,1
24-May-2018 12:34:47,396.6,0.06215,0.0661,1.03435,0.569333333333333,0.671,0.325333333333333,918.836,-0.8759,-0.17245,-0.50645,1.7225,1.41825,0.869,59.743,-0.0978333333333333,0.00566666666666667,1.0903,-0.503333333333333,-0.89,-0.26,3.691,0.1096,-0.483566666666667,0.8892,0.366,0.41175,-0.13725,756.026,0,1,1,1
24-May-2018 12:34:48,288.6,0.06645,0.066675,1.03475,0.488,0.6724,0.549,919.289,-0.86915,-0.1895,-0.5123,1.57583333333333,-5.07516666666667,1.34183333333333,59.743,-0.0983,0.007325,1.089875,-0.5575,-1,-0.375,3.691,0.108425,-0.482075,0.89015,0.3965,0.44225,-0.19825,756.796,1,1,1,1
24-May-2018 12:34:48,288.6,0.06645,0.066675,1.03475,0.488,0.6724,0.549,919.289,-0.86915,-0.1895,-0.5123,1.57583333333333,-5.07516666666667,1.34183333333333,59.743,-0.0983,0.007325,1.089875,-0.5575,-1,-0.375,3.691,0.108425,-0.482075,0.89015,0.3965,0.44225,-0.19825,756.796,1,1,1,1
24-May-2018 12:34:48,288.6,0.06645,0.066675,1.03475,0.488,0.6724,0.549,919.289,-0.86915,-0.1895,-0.5123,1.57583333333333,-5.07516666666667,1.34183333333333,59.743,-0.0983,0.007325,1.089875,-0.5575,-1,-0.375,3.691,0.108425,-0.482075,0.89015,0.3965,0.44225,-0.19825,756.796,1,1,1,1
24-May-2018 12:34:48,288.6,0.06645,0.066675,1.03475,0.488,0.6724,0.549,919.289,-0.86915,-0.1895,-0.5123,1.57583333333333,-5.07516666666667,1.34183333333333,59.743,-0.0983,0.007325,1.089875,-0.5575,-1,-0.375,3.691,0.108425,-0.482075,0.89015,0.3965,0.44225,-0.19825,756.796,1,1,1,1
24-May-2018 12:34:49,5.5,0.0526857142857143,0.0688285714285714,1.02975714285714,0.688428571428571,0.0635714285714285,0.322428571428571,919.337,-0.887825,-0.166675,-0.495725,5.13114285714286,-4.23128571428571,7.54257142857143,60.171,-0.0968666666666667,0.00776666666666667,1.09035,-0.716666666666667,-0.941666666666667,-0.0791666666666667,3.7504,0.109133333333333,-0.48275,0.889583333333333,0.449875,0.41175,-0.114375,756.813,0,1,1,1
24-May-2018 12:34:49,5.5,0.0526857142857143,0.0688285714285714,1.02975714285714,0.688428571428571,0.0635714285714285,0.322428571428571,919.337,-0.887825,-0.166675,-0.495725,5.13114285714286,-4.23128571428571,7.54257142857143,60.171,-0.0968666666666667,0.00776666666666667,1.09035,-0.716666666666667,-0.941666666666667,-0.0791666666666667,3.7504,0.109133333333333,-0.48275,0.889583333333333,0.449875,0.41175,-0.114375,756.813,0,1,1,1
24-May-2018 12:34:49,5.5,0.0526857142857143,0.0688285714285714,1.02975714285714,0.688428571428571,0.0635714285714285,0.322428571428571,919.337,-0.887825,-0.166675,-0.495725,5.13114285714286,-4.23128571428571,7.54257142857143,60.171,-0.0968666666666667,0.00776666666666667,1.09035,-0.716666666666667,-0.941666666666667,-0.0791666666666667,3.7504,0.109133333333333,-0.48275,0.889583333333333,0.449875,0.41175,-0.114375,756.813,0,1,1,1
24-May-2018 12:34:49,5.5,0.0526857142857143,0.0688285714285714,1.02975714285714,0.688428571428571,0.0635714285714285,0.322428571428571,919.337,-0.887825,-0.166675,-0.495725,5.13114285714286,-4.23128571428571,7.54257142857143,60.171,-0.0968666666666667,0.00776666666666667,1.09035,-0.716666666666667,-0.941666666666667,-0.0791666666666667,3.7504,0.109133333333333,-0.48275,0.889583333333333,0.449875,0.41175,-0.114375,756.813,0,1,1,1
24-May-2018 12:34:50,-2.2,0.0629428571428571,0.0689285714285714,1.03441428571429,0.5185,-0.1195,0.254166666666667,918.396333333333,-0.8922,-0.161125,-0.4797,-6.07875,-4.421,7.2405,60.385,-0.0977666666666667,0.00721666666666667,1.0906,-0.455714285714286,-0.961428571428571,-0.205714285714286,3.744,0.10828,-0.48174,0.89028,0.758142857142857,0.557714285714286,-0.122,755.6824,1,1,1,0
24-May-2018 12:34:50,-2.2,0.0629428571428571,0.0689285714285714,1.03441428571429,0.5185,-0.1195,0.254166666666667,918.396333333333,-0.8922,-0.161125,-0.4797,-6.07875,-4.421,7.2405,60.385,-0.0977666666666667,0.00721666666666667,1.0906,-0.455714285714286,-0.961428571428571,-0.205714285714286,3.744,0.10828,-0.48174,0.89028,0.758142857142857,0.557714285714286,-0.122,755.6824,1,1,1,0
24-May-2018 12:34:50,-2.2,0.0629428571428571,0.0689285714285714,1.03441428571429,0.5185,-0.1195,0.254166666666667,918.396333333333,-0.8922,-0.161125,-0.4797,-6.07875,-4.421,7.2405,60.385,-0.0977666666666667,0.00721666666666667,1.0906,-0.455714285714286,-0.961428571428571,-0.205714285714286,3.744,0.10828,-0.48174,0.89028,0.758142857142857,0.557714285714286,-0.122,755.6824,1,1,1,0
24-May-2018 12:34:50,-2.2,0.0629428571428571,0.0689285714285714,1.03441428571429,0.5185,-0.1195,0.254166666666667,918.396333333333,-0.8922,-0.161125,-0.4797,-6.07875,-4.421,7.2405,60.385,-0.0977666666666667,0.00721666666666667,1.0906,-0.455714285714286,-0.961428571428571,-0.205714285714286,3.744,0.10828,-0.48174,0.89028,0.758142857142857,0.557714285714286,-0.122,755.6824,1,1,1,0
24-May-2018 12:34:51,-80,0.0692142857142857,0.0681714285714286,1.03397142857143,0.688285714285714,-0.491428571428571,0.392142857142857,918.979,-0.8862,-0.1579,-0.52135,9.63333333333333,23.5944444444444,-26.293,60.385,-0.09632,0.00712,1.09054,-0.42,-1.02,-0.4,3.72433333333333,0.108071428571429,-0.481,0.891628571428572,0.662285714285714,0.566428571428572,-0.156857142857143,756.0315,1,1,1,0
24-May-2018 12:34:51,-80,0.0692142857142857,0.0681714285714286,1.03397142857143,0.688285714285714,-0.491428571428571,0.392142857142857,918.979,-0.8862,-0.1579,-0.52135,9.63333333333333,23.5944444444444,-26.293,60.385,-0.09632,0.00712,1.09054,-0.42,-1.02,-0.4,3.72433333333333,0.108071428571429,-0.481,0.891628571428572,0.662285714285714,0.566428571428572,-0.156857142857143,756.0315,1,1,1,0
24-May-2018 12:34:51,-80,0.0692142857142857,0.0681714285714286,1.03397142857143,0.688285714285714,-0.491428571428571,0.392142857142857,918.979,-0.8862,-0.1579,-0.52135,9.63333333333333,23.5944444444444,-26.293,60.385,-0.09632,0.00712,1.09054,-0.42,-1.02,-0.4,3.72433333333333,0.108071428571429,-0.481,0.891628571428572,0.662285714285714,0.566428571428572,-0.156857142857143,756.0315,1,1,1,0
24-May-2018 12:34:51,-80,0.0692142857142857,0.0681714285714286,1.03397142857143,0.688285714285714,-0.491428571428571,0.392142857142857,918.979,-0.8862,-0.1579,-0.52135,9.63333333333333,23.5944444444444,-26.293,60.385,-0.09632,0.00712,1.09054,-0.42,-1.02,-0.4,3.72433333333333,0.108071428571429,-0.481,0.891628571428572,0.662285714285714,0.566428571428572,-0.156857142857143,756.0315,1,1,1,0
24-May-2018 12:34:52,375.8,0.0615125,0.0691625,1.0327875,0.617625,0.672,0.3355,918.979,-0.8424,-0.2032,-0.53765,-9.778,-20.008375,10.92825,63.751,-0.0961,0.00686,1.0918,-0.483333333333333,-0.9,-0.0998333333333333,3.744,0.108966666666667,-0.4828,0.890616666666667,0.467666666666667,0.416833333333333,-0.172833333333333,755.77975,1,1,1,0
24-May-2018 12:34:52,375.8,0.0615125,0.0691625,1.0327875,0.617625,0.672,0.3355,918.979,-0.8424,-0.2032,-0.53765,-9.778,-20.008375,10.92825,63.751,-0.0961,0.00686,1.0918,-0.483333333333333,-0.9,-0.0998333333333333,3.744,0.108966666666667,-0.4828,0.890616666666667,0.467666666666667,0.416833333333333,-0.172833333333333,755.77975,1,1,1,0
24-May-2018 12:34:52,375.8,0.0615125,0.0691625,1.0327875,0.617625,0.672,0.3355,918.979,-0.8424,-0.2032,-0.53765,-9.778,-20.008375,10.92825,63.751,-0.0961,0.00686,1.0918,-0.483333333333333,-0.9,-0.0998333333333333,3.744,0.108966666666667,-0.4828,0.890616666666667,0.467666666666667,0.416833333333333,-0.172833333333333,755.77975,1,1,1,0
24-May-2018 12:34:52,375.8,0.0615125,0.0691625,1.0327875,0.617625,0.672,0.3355,918.979,-0.8424,-0.2032,-0.53765,-9.778,-20.008375,10.92825,63.751,-0.0961,0.00686,1.0918,-0.483333333333333,-0.9,-0.0998333333333333,3.744,0.108966666666667,-0.4828,0.890616666666667,0.467666666666667,0.416833333333333,-0.172833333333333,755.77975,1,1,1,0
24-May-2018 12:34:53,208.9,0.0678222222222222,0.0702555555555556,1.03348888888889,0.769875,-0.210125,0.297375,918.979,-0.89684,-0.11482,-0.4859,-3.22322222222222,-1.90555555555556,48.8911111111111,65.434,-0.0971,0.00678571428571429,1.09072857142857,-0.431666666666667,-0.91,-0.27,3.7488,0.108325,-0.48245,0.890125,0.636142857142857,0.514142857142857,-0.156857142857143,756.148,1,1,1,0
24-May-2018 12:34:53,208.9,0.0678222222222222,0.0702555555555556,1.03348888888889,0.769875,-0.210125,0.297375,918.979,-0.89684,-0.11482,-0.4859,-3.22322222222222,-1.90555555555556,48.8911111111111,65.434,-0.0971,0.00678571428571429,1.09072857142857,-0.431666666666667,-0.91,-0.27,3.7488,0.108325,-0.48245,0.890125,0.636142857142857,0.514142857142857,-0.156857142857143,756.148,1,1,1,0
24-May-2018 12:34:53,208.9,0.0678222222222222,0.0702555555555556,1.03348888888889,0.769875,-0.210125,0.297375,918.979,-0.89684,-0.11482,-0.4859,-3.22322222222222,-1.90555555555556,48.8911111111111,65.434,-0.0971,0.00678571428571429,1.09072857142857,-0.431666666666667,-0.91,-0.27,3.7488,0.108325,-0.48245,0.890125,0.636142857142857,0.514142857142857,-0.156857142857143,756.148,1,1,1,0
24-May-2018 12:34:53,208.9,0.0678222222222222,0.0702555555555556,1.03348888888889,0.769875,-0.210125,0.297375,918.979,-0.89684,-0.11482,-0.4859,-3.22322222222222,-1.90555555555556,48.8911111111111,65.434,-0.0971,0.00678571428571429,1.09072857142857,-0.431666666666667,-0.91,-0.27,3.7488,0.108325,-0.48245,0.890125,0.636142857142857,0.514142857142857,-0.156857142857143,756.148,1,1,1,0
24-May-2018 12:34:54,236.4,0.0671,0.0689,1.0303375,0.569333333333333,1.19933333333333,0.508333333333333,918.979,-0.93524,-0.01954,-0.46682,-8.35322222222223,-2.267,-0.487777777777777,65.434,-0.0965166666666667,0.0066,1.09026666666667,-0.641428571428571,-0.892857142857143,-0.162714285714286,3.72925,0.108516666666667,-0.4807,0.890733333333333,0.620166666666667,0.467666666666667,-0.203333333333333,755.5606,1,1,1,1
24-May-2018 12:34:54,236.4,0.0671,0.0689,1.0303375,0.569333333333333,1.19933333333333,0.508333333333333,918.979,-0.93524,-0.01954,-0.46682,-8.35322222222223,-2.267,-0.487777777777777,65.434,-0.0965166666666667,0.0066,1.09026666666667,-0.641428571428571,-0.892857142857143,-0.162714285714286,3.72925,0.108516666666667,-0.4807,0.890733333333333,0.620166666666667,0.467666666666667,-0.203333333333333,755.5606,1,1,1,1
24-May-2018 12:34:54,236.4,0.0671,0.0689,1.0303375,0.569333333333333,1.19933333333333,0.508333333333333,918.979,-0.93524,-0.01954,-0.46682,-8.35322222222223,-2.267,-0.487777777777777,65.434,-0.0965166666666667,0.0066,1.09026666666667,-0.641428571428571,-0.892857142857143,-0.162714285714286,3.72925,0.108516666666667,-0.4807,0.890733333333333,0.620166666666667,0.467666666666667,-0.203333333333333,755.5606,1,1,1,1
24-May-2018 12:34:54,236.4,0.0671,0.0689,1.0303375,0.569333333333333,1.19933333333333,0.508333333333333,918.979,-0.93524,-0.01954,-0.46682,-8.35322222222223,-2.267,-0.487777777777777,65.434,-0.0965166666666667,0.0066,1.09026666666667,-0.641428571428571,-0.892857142857143,-0.162714285714286,3.72925,0.108516666666667,-0.4807,0.890733333333333,0.620166666666667,0.467666666666667,-0.203333333333333,755.5606,1,1,1,1
24-May-2018 12:34:55,-171.6,0.0658,0.0672571428571429,1.0331,0.296285714285714,-0.545285714285714,0.174285714285714,918.082,-0.8902,-0.096025,-0.5055,6.34466666666667,14.173,-33.1494444444444,61.7675,-0.0976857142857143,0.00672857142857143,1.09051428571429,-0.655,-0.96,-0.18,3.74875,0.10925,-0.482033333333333,0.890516666666667,0.2806,0.3416,-0.183,755.7118,0,1,1,0
24-May-2018 12:34:55,-171.6,0.0658,0.0672571428571429,1.0331,0.296285714285714,-0.545285714285714,0.174285714285714,918.082,-0.8902,-0.096025,-0.5055,6.34466666666667,14.173,-33.1494444444444,61.7675,-0.0976857142857143,0.00672857142857143,1.09051428571429,-0.655,-0.96,-0.18,3.74875,0.10925,-0.482033333333333,0.890516666666667,0.2806,0.3416,-0.183,755.7118,0,1,1,0
24-May-2018 12:34:55,-171.6,0.0658,0.0672571428571429,1.0331,0.296285714285714,-0.545285714285714,0.174285714285714,918.082,-0.8902,-0.096025,-0.5055,6.34466666666667,14.173,-33.1494444444444,61.7675,-0.0976857142857143,0.00672857142857143,1.09051428571429,-0.655,-0.96,-0.18,3.74875,0.10925,-0.482033333333333,0.890516666666667,0.2806,0.3416,-0.183,755.7118,0,1,1,0
24-May-2018 12:34:55,-171.6,0.0658,0.0672571428571429,1.0331,0.296285714285714,-0.545285714285714,0.174285714285714,918.082,-0.8902,-0.096025,-0.5055,6.34466666666667,14.173,-33.1494444444444,61.7675,-0.0976857142857143,0.00672857142857143,1.09051428571429,-0.655,-0.96,-0.18,3.74875,0.10925,-0.482033333333333,0.890516666666667,0.2806,0.3416,-0.183,755.7118,0,1,1,0
24-May-2018 12:34:56,-97.6,0.0698,0.0671,1.0358,0.296285714285714,-0.545285714285714,0.174285714285714,917.905,-0.9139,-0.1823,-0.5433,2.34,-40.3733333333333,16.6833333333333,61.7675,-0.098,0.008,1.0881,-0.85,-0.67,-0.3,3.768,0.1078,-0.4819,0.8898,0.2806,0.3416,-0.183,755.805,0,1,1,0
24-May-2018 12:34:56,-97.6,0.0698,0.0671,1.0358,0.296285714285714,-0.545285714285714,0.174285714285714,917.905,-0.9139,-0.1823,-0.5433,2.34,-40.3733333333333,16.6833333333333,61.7675,-0.098,0.008,1.0881,-0.85,-0.67,-0.3,3.768,0.1078,-0.4819,0.8898,0.2806,0.3416,-0.183,755.805,0,1,1,0
24-May-2018 12:34:56,-97.6,0.0698,0.0671,1.0358,0.296285714285714,-0.545285714285714,0.174285714285714,917.905,-0.9139,-0.1823,-0.5433,2.34,-40.3733333333333,16.6833333333333,61.7675,-0.098,0.008,1.0881,-0.85,-0.67,-0.3,3.768,0.1078,-0.4819,0.8898,0.2806,0.3416,-0.183,755.805,0,1,1,0
24-May-2018 12:34:56,-97.6,0.0698,0.0671,1.0358,0,0,0,917.905,-0.9139,-0.1823,-0.5433,2.34,-40.3733333333333,16.6833333333333,0,-0.098,0.008,1.0881,-0.85,-0.67,-0.3,3.768,0.1078,-0.4819,0.8898,0,0,0,755.805,0,1,1,0
24-May-2018 12:34:57,-238.6,0.07298,0.0656,1.03284,0.6588,-0.3158,0.4026,917.727,-0.9026,-0.07915,-0.476325,-7.160125,-10.347875,37.922875,58.101,-0.0962333333333333,0.00488888888888889,1.09264444444444,-0.5475,-1.08,-0.24,3.72466666666667,0.11625,-0.492775,0.888,-13.9023333333333,-4.36983333333333,-0.823166666666667,755.294,0,0,1,1
24-May-2018 12:34:57,-238.6,0.07298,0.0656,1.03284,0.6588,-0.3158,0.4026,917.727,-0.9026,-0.07915,-0.476325,-7.160125,-10.347875,37.922875,58.101,-0.0962333333333333,0.00488888888888889,1.09264444444444,-0.5475,-1.08,-0.24,3.72466666666667,0.11625,-0.492775,0.888,-13.9023333333333,-4.36983333333333,-0.823166666666667,755.294,0,0,1,1
24-May-2018 12:34:57,-238.6,0.07298,0.0656,1.03284,0.6588,-0.3158,0.4026,917.727,-0.9026,-0.07915,-0.476325,-7.160125,-10.347875,37.922875,58.101,-0.0962333333333333,0.00488888888888889,1.09264444444444,-0.5475,-1.08,-0.24,3.72466666666667,0.11625,-0.492775,0.888,-13.9023333333333,-4.36983333333333,-0.823166666666667,755.294,0,0,1,1
24-May-2018 12:34:57,-238.6,0.07298,0.0656,1.03284,0.6588,-0.3158,0.4026,917.727,-0.9026,-0.07915,-0.476325,-7.160125,-10.347875,37.922875,58.101,-0.0962333333333333,0.00488888888888889,1.09264444444444,-0.5475,-1.08,-0.24,3.72466666666667,0.11625,-0.492775,0.888,-13.9023333333333,-4.36983333333333,-0.823166666666667,755.294,0,0,1,1
24-May-2018 12:34:58,149.333333333333,0.0405,0.0724833333333333,1.0376,1.817,-0.5734,-0.1582,918.72675,-0.9335,-0.003325,-0.4582,-4.141125,0.0943750000000001,10.868625,58.101,-0.11865,-0.0365,1.0907,-7.825,3.8615,0.000833333333333316,3.719,0.1516,-0.829083333333333,0.30195,-34.8766666666667,7.70316666666667,2.185,602.0795,1,1,1,0
24-May-2018 12:34:58,149.333333333333,0.0405,0.0724833333333333,1.0376,1.817,-0.5734,-0.1582,918.72675,-0.9335,-0.003325,-0.4582,-4.141125,0.0943750000000001,10.868625,58.101,-0.11865,-0.0365,1.0907,-7.825,3.8615,0.000833333333333316,3.719,0.1516,-0.829083333333333,0.30195,-34.8766666666667,7.70316666666667,2.185,602.0795,1,1,1,0
24-May-2018 12:34:58,149.333333333333,0.0405,0.0724833333333333,1.0376,1.817,-0.5734,-0.1582,918.72675,-0.9335,-0.003325,-0.4582,-4.141125,0.0943750000000001,10.868625,58.101,-0.11865,-0.0365,1.0907,-7.825,3.8615,0.000833333333333316,3.719,0.1516,-0.829083333333333,0.30195,-34.8766666666667,7.70316666666667,2.185,602.0795,1,1,1,0
24-May-2018 12:34:58,149.333333333333,0.0405,0.0724833333333333,1.0376,1.817,-0.5734,-0.1582,918.72675,-0.9335,-0.003325,-0.4582,-4.141125,0.0943750000000001,10.868625,58.101,-0.11865,-0.0365,1.0907,-7.825,3.8615,0.000833333333333316,3.719,0.1516,-0.829083333333333,0.30195,-34.8766666666667,7.70316666666667,2.185,602.0795,1,1,1,0
24-May-2018 12:34:59,-261,-0.11772,0.0962,1.02542,0.29975,-18.036375,-0.0743750000000001,899.733,-0.93144,0.0267,-0.44934,0.019714285714286,-5.49571428571429,7.72457142857143,58.584,-0.243642857142857,0.189457142857143,0.9989,3.73375,-17.6525,-10.2025,3.56983333333333,0.0116714285714286,-0.795085714285714,0.156685714285714,124.420875,55.785,15.061125,505.4315,1,1,1,0
24-May-2018 12:34:59,-261,-0.11772,0.0962,1.02542,0.29975,-18.036375,-0.0743750000000001,899.733,-0.93144,0.0267,-0.44934,0.019714285714286,-5.49571428571429,7.72457142857143,58.584,-0.243642857142857,0.189457142857143,0.9989,3.73375,-17.6525,-10.2025,3.56983333333333,0.0116714285714286,-0.795085714285714,0.156685714285714,124.420875,55.785,15.061125,505.4315,1,1,1,0
24-May-2018 12:34:59,-261,-0.11772,0.0962,1.02542,0.29975,-18.036375,-0.0743750000000001,899.733,-0.93144,0.0267,-0.44934,0.019714285714286,-5.49571428571429,7.72457142857143,58.584,-0.243642857142857,0.189457142857143,0.9989,3.73375,-17.6525,-10.2025,3.56983333333333,0.0116714285714286,-0.795085714285714,0.156685714285714,124.420875,55.785,15.061125,505.4315,1,1,1,0
24-May-2018 12:34:59,-261,-0.11772,0.0962,1.02542,0.29975,-18.036375,-0.0743750000000001,899.733,-0.93144,0.0267,-0.44934,0.019714285714286,-5.49571428571429,7.72457142857143,58.584,-0.243642857142857,0.189457142857143,0.9989,3.73375,-17.6525,-10.2025,3.56983333333333,0.0116714285714286,-0.795085714285714,0.156685714285714,124.420875,55.785,15.061125,505.4315,1,1,1,0
24-May-2018 12:35:00,-145.5,0.5441,0.0899125,0.850875,-0.201,-45.3,12.3861666666667,931.090333333333,-0.92015,0.08205,-0.434683333333333,-5.438,-6.38125,8.82925,57.7123333333333,-0.353866666666667,0.561311111111111,0.842888888888889,16.995,11.4332,-18.614,2.549,-0.934175,-0.232125,0.1057,-38.4668571428571,-12.0634285714286,-14.4338571428571,276.11775,0,1,1,0
24-May-2018 12:35:00,-145.5,0.5441,0.0899125,0.850875,-0.201,-45.3,12.3861666666667,931.090333333333,-0.92015,0.08205,-0.434683333333333,-5.438,-6.38125,8.82925,57.7123333333333,-0.353866666666667,0.561311111111111,0.842888888888889,16.995,11.4332,-18.614,2.549,-0.934175,-0.232125,0.1057,-38.4668571428571,-12.0634285714286,-14.4338571428571,276.11775,0,1,1,0
24-May-2018 12:35:00,-145.5,0.5441,0.0899125,0.850875,-0.201,-45.3,12.3861666666667,931.090333333333,-0.92015,0.08205,-0.434683333333333,-5.438,-6.38125,8.82925,57.7123333333333,-0.353866666666667,0.561311111111111,0.842888888888889,16.995,11.4332,-18.614,2.549,-0.934175,-0.232125,0.1057,-38.4668571428571,-12.0634285714286,-14.4338571428571,276.11775,0,1,1,0
24-May-2018 12:35:00,-145.5,0.5441,0.0899125,0.850875,-0.201,-45.3,12.3861666666667,931.090333333333,-0.92015,0.08205,-0.434683333333333,-5.438,-6.38125,8.82925,57.7123333333333,-0.353866666666667,0.561311111111111,0.842888888888889,16.995,11.4332,-18.614,2.549,-0.934175,-0.232125,0.1057,-38.4668571428571,-12.0634285714286,-14.4338571428571,276.11775,0,1,1,0
24-May-2018 12:35:01,-94.25,0.7667125,0.0305375,0.5709875,1.32383333333333,3.66666666666667,-10.5,726.5555,-0.9112,0.0954,-0.38308,-3.2675,-17.34775,-7.711875,55.647,-0.617575,0.6505125,0.52645,-29.5633333333333,-11.36,29.4533333333333,0.432,-1.03296666666667,-0.245366666666667,0.0404166666666667,29.894625,19.520375,13.3155,473.584333333333,0,1,1,0
24-May-2018 12:35:01,-94.25,0.7667125,0.0305375,0.5709875,1.32383333333333,3.66666666666667,-10.5,726.5555,-0.9112,0.0954,-0.38308,-3.2675,-17.34775,-7.711875,55.647,-0.617575,0.6505125,0.52645,-29.5633333333333,-11.36,29.4533333333333,0.432,-1.03296666666667,-0.245366666666667,0.0404166666666667,29.894625,19.520375,13.3155,473.584333333333,0,1,1,0
24-May-2018 12:35:01,-94.25,0.7667125,0.0305375,0.5709875,1.32383333333333,3.66666666666667,-10.5,726.5555,-0.9112,0.0954,-0.38308,-3.2675,-17.34775,-7.711875,55.647,-0.617575,0.6505125,0.52645,-29.5633333333333,-11.36,29.4533333333333,0.432,-1.03296666666667,-0.245366666666667,0.0404166666666667,29.894625,19.520375,13.3155,473.584333333333,0,1,1,0
24-May-2018 12:35:01,-94.25,0.7667125,0.0305375,0.5709875,1.32383333333333,3.66666666666667,-10.5,726.5555,-0.9112,0.0954,-0.38308,-3.2675,-17.34775,-7.711875,55.647,-0.617575,0.6505125,0.52645,-29.5633333333333,-11.36,29.4533333333333,0.432,-1.03296666666667,-0.245366666666667,0.0404166666666667,29.894625,19.520375,13.3155,473.584333333333,0,1,1,0
24-May-2018 12:35:02,158.375,0.819871428571428,0.0508142857142857,0.577042857142857,-1.96166666666667,-3.12766666666667,4.55188888888889,726.5555,-0.88145,0.047725,-0.320325,11.621375,13.80875,-6.90825,55.647,0.538485714285714,-0.0880857142857143,0.654085714285714,106.14,-44.472,43.742,1.539,-0.8072,0.110333333333333,-0.614933333333333,-99.904,-11.1325714285714,-62.3505714285714,436.2656,1,1,1,0
24-May-2018 12:35:02,158.375,0.819871428571428,0.0508142857142857,0.577042857142857,-1.96166666666667,-3.12766666666667,4.55188888888889,726.5555,-0.88145,0.047725,-0.320325,11.621375,13.80875,-6.90825,55.647,0.538485714285714,-0.0880857142857143,0.654085714285714,106.14,-44.472,43.742,1.539,-0.8072,0.110333333333333,-0.614933333333333,-99.904,-11.1325714285714,-62.3505714285714,436.2656,1,1,1,0
24-May-2018 12:35:02,158.375,0.819871428571428,0.0508142857142857,0.577042857142857,-1.96166666666667,-3.12766666666667,4.55188888888889,726.5555,-0.88145,0.047725,-0.320325,11.621375,13.80875,-6.90825,55.647,0.538485714285714,-0.0880857142857143,0.654085714285714,106.14,-44.472,43.742,1.539,-0.8072,0.110333333333333,-0.614933333333333,-99.904,-11.1325714285714,-62.3505714285714,436.2656,1,1,1,0
24-May-2018 12:35:02,158.375,0.819871428571428,0.0508142857142857,0.577042857142857,-1.96166666666667,-3.12766666666667,4.55188888888889,726.5555,-0.88145,0.047725,-0.320325,11.621375,13.80875,-6.90825,55.647,0.538485714285714,-0.0880857142857143,0.654085714285714,106.14,-44.472,43.742,1.539,-0.8072,0.110333333333333,-0.614933333333333,-99.904,-11.1325714285714,-62.3505714285714,436.2656,1,1,1,0
24-May-2018 12:35:03,448.4,0.893944444444445,-0.0340333333333333,0.125877777777778,36.55125,-19.466,-5.34025,726.5555,-1.00704,0.09206,-0.34708,82.6066666666667,29.9744444444444,59.5977777777778,48.019,0.861925,-0.26865,0.30535,12.0156,-16.253,19.437,3.65366666666667,-0.211916666666667,-0.743933333333333,-0.406833333333333,-35.7308333333333,-61.87,-68.1886666666667,332.7355,1,1,1,1
24-May-2018 12:35:03,448.4,0.893944444444445,-0.0340333333333333,0.125877777777778,36.55125,-19.466,-5.34025,726.5555,-1.00704,0.09206,-0.34708,82.6066666666667,29.9744444444444,59.5977777777778,48.019,0.861925,-0.26865,0.30535,12.0156,-16.253,19.437,3.65366666666667,-0.211916666666667,-0.743933333333333,-0.406833333333333,-35.7308333333333,-61.87,-68.1886666666667,332.7355,1,1,1,1
24-May-2018 12:35:03,448.4,0.893944444444445,-0.0340333333333333,0.125877777777778,36.55125,-19.466,-5.34025,0,-1.00704,0.09206,-0.34708,82.6066666666667,29.9744444444444,59.5977777777778,48.019,0.861925,-0.26865,0.30535,12.0156,-16.253,19.437,3.65366666666667,-0.211916666666667,-0.743933333333333,-0.406833333333333,-35.7308333333333,-61.87,-68.1886666666667,332.7355,1,1,1,1
24-May-2018 12:35:03,448.4,0.893944444444445,-0.0340333333333333,0.125877777777778,36.55125,-19.466,-5.34025,0,-1.00704,0.09206,-0.34708,82.6066666666667,29.9744444444444,59.5977777777778,48.019,0.861925,-0.26865,0.30535,12.0156,-16.253,19.437,3.65366666666667,-0.211916666666667,-0.743933333333333,-0.406833333333333,-35.7308333333333,-61.87,-68.1886666666667,332.7355,1,1,1,1
24-May-2018 12:35:04,136.363636363636,0.937933333333333,-0.0333333333333333,0.15905,70.25,2.22171428571429,20.7542857142857,164.674,-1.0919,2.29043333333333,-0.2046,124.924,53.55,-4.1472,44.205,0.76284,-0.60634,0.1963,17.7423333333333,-9.07333333333333,3.659,3.072,-0.40455,-0.7555,-0.490166666666667,8.061,-29.622,12.4876,309.473,1,1,1,1
24-May-2018 12:35:04,136.363636363636,0.937933333333333,-0.0333333333333333,0.15905,70.25,2.22171428571429,20.7542857142857,164.674,-1.0919,2.29043333333333,-0.2046,124.924,53.55,-4.1472,44.205,0.76284,-0.60634,0.1963,17.7423333333333,-9.07333333333333,3.659,3.072,-0.40455,-0.7555,-0.490166666666667,8.061,-29.622,12.4876,309.473,1,1,1,1
24-May-2018 12:35:04,136.363636363636,0.937933333333333,-0.0333333333333333,0.15905,70.25,2.22171428571429,20.7542857142857,164.674,-1.0919,2.29043333333333,-0.2046,124.924,53.55,-4.1472,44.205,0.76284,-0.60634,0.1963,17.7423333333333,-9.07333333333333,3.659,3.072,-0.40455,-0.7555,-0.490166666666667,8.061,-29.622,12.4876,309.473,1,1,1,1
24-May-2018 12:35:04,136.363636363636,0.937933333333333,-0.0333333333333333,0.15905,70.25,2.22171428571429,20.7542857142857,164.674,-1.0919,2.29043333333333,-0.2046,124.924,53.55,-4.1472,44.205,0.76284,-0.60634,0.1963,17.7423333333333,-9.07333333333333,3.659,3.072,-0.40455,-0.7555,-0.490166666666667,8.061,-29.622,12.4876,309.473,1,1,1,1
24-May-2018 12:35:05,-70.7272727272727,0.9648,-0.0232833333333333,-0.0201833333333333,38.29,5.23,4.6946,282.026,-0.999525,-0.181475,-0.3473,25.7461,26.51,-80.122,44.205,0.72924,-0.6465,0.0901,-14.928,-1.95733333333333,2.72333333333333,3.92633333333333,0.26772,-0.53368,0.19658,99.961875,14.9465,-47.681375,492.88125,1,1,1,1
24-May-2018 12:35:05,-70.7272727272727,0.9648,-0.0232833333333333,-0.0201833333333333,38.29,5.23,4.6946,282.026,-0.999525,-0.181475,-0.3473,25.7461,26.51,-80.122,44.205,0.72924,-0.6465,0.0901,-14.928,-1.95733333333333,2.72333333333333,3.92633333333333,0.26772,-0.53368,0.19658,99.961875,14.9465,-47.681375,492.88125,1,1,1,1
24-May-2018 12:35:05,-70.7272727272727,0.9648,-0.0232833333333333,-0.0201833333333333,38.29,5.23,4.6946,282.026,-0.999525,-0.181475,-0.3473,25.7461,26.51,-80.122,44.205,0.72924,-0.6465,0.0901,-14.928,-1.95733333333333,2.72333333333333,3.92633333333333,0.26772,-0.53368,0.19658,99.961875,14.9465,-47.681375,492.88125,1,1,1,1
24-May-2018 12:35:05,-70.7272727272727,0.9648,-0.0232833333333333,-0.0201833333333333,38.29,5.23,4.6946,282.026,-0.999525,-0.181475,-0.3473,25.7461,26.51,-80.122,44.205,0.72924,-0.6465,0.0901,-14.928,-1.95733333333333,2.72333333333333,3.92633333333333,0.26772,-0.53368,0.19658,99.961875,14.9465,-47.681375,492.88125,1,1,1,1
24-May-2018 12:35:06,217.3,0.92886,0.01246,0.21172,10.2178,4.1838,1.3418,439.072,-0.84554,-0.05022,-0.43436,-44.3377777777778,60.2111111111111,94.82,152.03,0.72044,-0.65764,-0.0101,-4.7075,-0.45625,0.3985,3.6152,0.697225,-0.21175,0.632275,19.012,24.1706,-16.4754,886.7285,1,1,1,1
24-May-2018 12:35:06,217.3,0.92886,0.01246,0.21172,10.2178,4.1838,1.3418,439.072,-0.84554,-0.05022,-0.43436,-44.3377777777778,60.2111111111111,94.82,152.03,0.72044,-0.65764,-0.0101,-4.7075,-0.45625,0.3985,3.6152,0.697225,-0.21175,0.632275,19.012,24.1706,-16.4754,886.7285,1,1,1,1
24-May-2018 12:35:06,217.3,0.92886,0.01246,0.21172,10.2178,4.1838,1.3418,439.072,-0.84554,-0.05022,-0.43436,-44.3377777777778,60.2111111111111,94.82,152.03,0.72044,-0.65764,-0.0101,-4.7075,-0.45625,0.3985,3.6152,0.697225,-0.21175,0.632275,19.012,24.1706,-16.4754,886.7285,1,1,1,1
24-May-2018 12:35:06,217.3,0.92886,0.01246,0.21172,10.2178,4.1838,1.3418,439.072,-0.84554,-0.05022,-0.43436,-44.3377777777778,60.2111111111111,94.82,152.03,0.72044,-0.65764,-0.0101,-4.7075,-0.45625,0.3985,3.6152,0.697225,-0.21175,0.632275,19.012,24.1706,-16.4754,886.7285,1,1,1,1
24-May-2018 12:35:07,252.666666666667,0.943277777777778,-0.0174777777777778,0.225333333333333,0.826333333333333,1.6175,1.9715,531.085,-0.700075,-0.07315,-0.7926,-13.775,169.6975,-68.54125,152.03,0.7146,-0.6644,-0.00015,-0.240666666666667,-0.809,-0.0993333333333334,3.5135,0.740325,-0.135425,0.696,-18.3536,38.4634,-22.8294,883.9125,1,1,1,1
24-May-2018 12:35:07,252.666666666667,0.943277777777778,-0.0174777777777778,0.225333333333333,0.826333333333333,1.6175,1.9715,531.085,-0.700075,-0.07315,-0.7926,-13.775,169.6975,-68.54125,152.03,0.7146,-0.6644,-0.00015,-0.240666666666667,-0.809,-0.0993333333333334,3.5135,0.740325,-0.135425,0.696,-18.3536,38.4634,-22.8294,883.9125,1,1,1,1
24-May-2018 12:35:07,252.666666666667,0.943277777777778,-0.0174777777777778,0.225333333333333,0.826333333333333,1.6175,1.9715,531.085,-0.700075,-0.07315,-0.7926,-13.775,169.6975,-68.54125,152.03,0.7146,-0.6644,-0.00015,-0.240666666666667,-0.809,-0.0993333333333334,3.5135,0.740325,-0.135425,0.696,-18.3536,38.4634,-22.8294,883.9125,1,1,1,1
24-May-2018 12:35:07,252.666666666667,0.943277777777778,-0.0174777777777778,0.225333333333333,0.826333333333333,1.6175,1.9715,531.085,-0.700075,-0.07315,-0.7926,-13.775,169.6975,-68.54125,152.03,0.7146,-0.6644,-0.00015,-0.240666666666667,-0.809,-0.0993333333333334,3.5135,0.740325,-0.135425,0.696,-18.3536,38.4634,-22.8294,883.9125,1,1,1,1
24-May-2018 12:35:08,67.3636363636364,0.937875,-0.0285625,0.2497875,-2.54275,2.02725,-1.0635,542.11325,-0.5061,-0.0998,-0.908875,13.4576,-33.1352,15.0245,152.03,0.712325,-0.66505,0.0106,7.14166666666667,-7.045,0.173666666666667,3.67325,0.69965,-0.219433333333333,0.613183333333333,44.4106666666667,-46.022,4.91888888888889,813.844,1,1,1,1
24-May-2018 12:35:08,67.3636363636364,0.937875,-0.0285625,0.2497875,-2.54275,2.02725,-1.0635,542.11325,-0.5061,-0.0998,-0.908875,13.4576,-33.1352,15.0245,152.03,0.712325,-0.66505,0.0106,7.14166666666667,-7.045,0.173666666666667,3.67325,0.69965,-0.219433333333333,0.613183333333333,44.4106666666667,-46.022,4.91888888888889,813.844,1,1,1,1
24-May-2018 12:35:08,67.3636363636364,0.937875,-0.0285625,0.2497875,-2.54275,2.02725,-1.0635,542.11325,-0.5061,-0.0998,-0.908875,13.4576,-33.1352,15.0245,152.03,0.712325,-0.66505,0.0106,7.14166666666667,-7.045,0.173666666666667,3.67325,0.69965,-0.219433333333333,0.613183333333333,44.4106666666667,-46.022,4.91888888888889,813.844,1,1,1,1
24-May-2018 12:35:08,67.3636363636364,0.937875,-0.0285625,0.2497875,-2.54275,2.02725,-1.0635,542.11325,-0.5061,-0.0998,-0.908875,13.4576,-33.1352,15.0245,152.03,0.712325,-0.66505,0.0106,7.14166666666667,-7.045,0.173666666666667,3.67325,0.69965,-0.219433333333333,0.613183333333333,44.4106666666667,-46.022,4.91888888888889,813.844,1,1,1,1
24-May-2018 12:35:09,-177.9,0.931528571428571,-0.0178142857142857,0.271085714285714,7.76085714285714,1.84785714285714,2.414,549.169666666667,-0.88264,-0.15548,-0.58804,61.83,-162.675,1.12375,64.174,0.70202,-0.67948,0.00904,4.593,-6.37666666666667,0.244666666666667,3.95366666666667,0.7746,0.4759875,0.4608125,30.5,22.768,0.7806,922.989666666667,1,1,1,1
24-May-2018 12:35:09,-177.9,0.931528571428571,-0.0178142857142857,0.271085714285714,7.76085714285714,1.84785714285714,2.414,549.169666666667,-0.88264,-0.15548,-0.58804,61.83,-162.675,1.12375,64.174,0.70202,-0.67948,0.00904,4.593,-6.37666666666667,0.244666666666667,3.95366666666667,0.7746,0.4759875,0.4608125,30.5,22.768,0.7806,922.989666666667,1,1,1,1
24-May-2018 12:35:09,-177.9,0.931528571428571,-0.0178142857142857,0.271085714285714,7.76085714285714,1.84785714285714,2.414,549.169666666667,-0.88264,-0.15548,-0.58804,61.83,-162.675,1.12375,64.174,0.70202,-0.67948,0.00904,4.593,-6.37666666666667,0.244666666666667,3.95366666666667,0.7746,0.4759875,0.4608125,30.5,22.768,0.7806,922.989666666667,1,1,1,1
24-May-2018 12:35:09,-177.9,0.931528571428571,-0.0178142857142857,0.271085714285714,7.76085714285714,1.84785714285714,2.414,549.169666666667,-0.88264,-0.15548,-0.58804,61.83,-162.675,1.12375,64.174,0.70202,-0.67948,0.00904,4.593,-6.37666666666667,0.244666666666667,3.95366666666667,0.7746,0.4759875,0.4608125,30.5,22.768,0.7806,922.989666666667,1,1,1,1
24-May-2018 12:35:10,112.1,0.937142857142857,-0.0345,0.256614285714286,10.462375,-2.007,3.300375,551.246,-0.981675,-0.123325,-0.205225,-35.878,-22.6349,30.742,64.174,0.6924,-0.686233333333333,-0.0095,-1.154,-1.592,-0.1792,4.0678,0.76712,0.29414,0.61446,-29.4771428571429,-0.461714285714286,2.93542857142857,993.8354,1,1,1,1
24-May-2018 12:35:10,112.1,0.937142857142857,-0.0345,0.256614285714286,10.462375,-2.007,3.300375,551.246,-0.981675,-0.123325,-0.205225,-35.878,-22.6349,30.742,64.174,0.6924,-0.686233333333333,-0.0095,-1.154,-1.592,-0.1792,4.0678,0.76712,0.29414,0.61446,-29.4771428571429,-0.461714285714286,2.93542857142857,993.8354,1,1,1,1
24-May-2018 12:35:10,112.1,0.937142857142857,-0.0345,0.256614285714286,10.462375,-2.007,3.300375,551.246,-0.981675,-0.123325,-0.205225,-35.878,-22.6349,30.742,64.174,0.6924,-0.686233333333333,-0.0095,-1.154,-1.592,-0.1792,4.0678,0.76712,0.29414,0.61446,-29.4771428571429,-0.461714285714286,2.93542857142857,993.8354,1,1,1,1
24-May-2018 12:35:10,112.1,0.937142857142857,-0.0345,0.256614285714286,10.462375,-2.007,3.300375,551.246,-0.981675,-0.123325,-0.205225,-35.878,-22.6349,30.742,64.174,0.6924,-0.686233333333333,-0.0095,-1.154,-1.592,-0.1792,4.0678,0.76712,0.29414,0.61446,-29.4771428571429,-0.461714285714286,2.93542857142857,993.8354,1,1,1,1
24-May-2018 12:35:11,255.75,0.933925,-0.0517625,0.256775,2.01975,0.322125,1.34925,551.246,-0.904975,-0.00905,-0.362025,-37.85,29.21875,13.472625,63.00675,0.6848125,-0.692475,-0.0260875,3.79575,-4.4925,-0.485,4.0315,0.780771428571429,0.117628571428571,0.654542857142857,18.445,1.73783333333333,4.97966666666667,1001.028,1,1,1,1
24-May-2018 12:35:11,255.75,0.933925,-0.0517625,0.256775,2.01975,0.322125,1.34925,551.246,-0.904975,-0.00905,-0.362025,-37.85,29.21875,13.472625,63.00675,0.6848125,-0.692475,-0.0260875,3.79575,-4.4925,-0.485,4.0315,0.780771428571429,0.117628571428571,0.654542857142857,18.445,1.73783333333333,4.97966666666667,1001.028,1,1,1,1
24-May-2018 12:35:11,255.75,0.933925,-0.0517625,0.256775,2.01975,0.322125,1.34925,551.246,-0.904975,-0.00905,-0.362025,-37.85,29.21875,13.472625,63.00675,0.6848125,-0.692475,-0.0260875,3.79575,-4.4925,-0.485,4.0315,0.780771428571429,0.117628571428571,0.654542857142857,18.445,1.73783333333333,4.97966666666667,1001.028,1,1,1,1
24-May-2018 12:35:11,255.75,0.933925,-0.0517625,0.256775,2.01975,0.322125,1.34925,551.246,-0.904975,-0.00905,-0.362025,-37.85,29.21875,13.472625,63.00675,0.6848125,-0.692475,-0.0260875,3.79575,-4.4925,-0.485,4.0315,0.780771428571429,0.117628571428571,0.654542857142857,18.445,1.73783333333333,4.97966666666667,1001.028,1,1,1,1
24-May-2018 12:35:12,-277.555555555556,0.935575,-0.0645375,0.246975,3.72022222222222,-1.05988888888889,1.55155555555556,551.246,-0.94708,0.00566,-0.4362,-13.1328571428571,24.4471428571429,-0.570714285714286,59.505,0.68825,-0.688625,1.524275,0.5986,0.1236,-0.876,4.1678,0.74562,0.31518,0.57598,24.0591428571429,-3.432,-3.84142857142857,945.8424,1,1,1,1
24-May-2018 12:35:12,-277.555555555556,0.935575,-0.0645375,0.246975,3.72022222222222,-1.05988888888889,1.55155555555556,551.246,-0.94708,0.00566,-0.4362,-13.1328571428571,24.4471428571429,-0.570714285714286,59.505,0.68825,-0.688625,1.524275,0.5986,0.1236,-0.876,4.1678,0.74562,0.31518,0.57598,24.0591428571429,-3.432,-3.84142857142857,945.8424,1,1,1,1
24-May-2018 12:35:12,-277.555555555556,0.935575,-0.0645375,0.246975,3.72022222222222,-1.05988888888889,1.55155555555556,551.246,-0.94708,0.00566,-0.4362,-13.1328571428571,24.4471428571429,-0.570714285714286,59.505,0.68825,-0.688625,1.524275,0.5986,0.1236,-0.876,4.1678,0.74562,0.31518,0.57598,24.0591428571429,-3.432,-3.84142857142857,945.8424,1,1,1,1
24-May-2018 12:35:12,-277.555555555556,0.935575,-0.0645375,0.246975,3.72022222222222,-1.05988888888889,1.55155555555556,551.246,-0.94708,0.00566,-0.4362,-13.1328571428571,24.4471428571429,-0.570714285714286,59.505,0.68825,-0.688625,1.524275,0.5986,0.1236,-0.876,4.1678,0.74562,0.31518,0.57598,24.0591428571429,-3.432,-3.84142857142857,945.8424,1,1,1,1
24-May-2018 12:35:13,-67.1,0.936822222222222,-0.0673222222222222,0.239244444444444,1.78277777777778,0.548888888888889,0.0644444444444444,551.246,-0.940575,-0.035,-0.458375,66.16325,40.6975,-36.97625,59.505,0.69085,-0.689766666666667,0.0073,-0.159666666666667,-3.29,-0.139666666666667,4.2008,0.7152625,0.0116875,0.7269125,-2.317,3.60766666666667,-5.79283333333333,1042.106,1,1,1,1
24-May-2018 12:35:13,-67.1,0.936822222222222,-0.0673222222222222,0.239244444444444,1.78277777777778,0.548888888888889,0.0644444444444444,551.246,-0.940575,-0.035,-0.458375,66.16325,40.6975,-36.97625,59.505,0.69085,-0.689766666666667,0.0073,-0.159666666666667,-3.29,-0.139666666666667,4.2008,0.7152625,0.0116875,0.7269125,-2.317,3.60766666666667,-5.79283333333333,1042.106,1,1,1,1
24-May-2018 12:35:13,-67.1,0.936822222222222,-0.0673222222222222,0.239244444444444,1.78277777777778,0.548888888888889,0.0644444444444444,551.246,-0.940575,-0.035,-0.458375,66.16325,40.6975,-36.97625,59.505,0.69085,-0.689766666666667,0.0073,-0.159666666666667,-3.29,-0.139666666666667,4.2008,0.7152625,0.0116875,0.7269125,-2.317,3.60766666666667,-5.79283333333333,1042.106,1,1,1,1
24-May-2018 12:35:13,-67.1,0.936822222222222,-0.0673222222222222,0.239244444444444,1.78277777777778,0.548888888888889,0.0644444444444444,551.246,-0.940575,-0.035,-0.458375,66.16325,40.6975,-36.97625,59.505,0.69085,-0.689766666666667,0.0073,-0.159666666666667,-3.29,-0.139666666666667,4.2008,0.7152625,0.0116875,0.7269125,-2.317,3.60766666666667,-5.79283333333333,1042.106,1,1,1,1
24-May-2018 12:35:14,162,0.937814285714286,-0.0524285714285714,0.249642857142857,-1.7792,0.415,-1.0216,537.553,-0.888775,-0.244225,-0.525275,47.1071111111111,-52.8944444444444,30.8422222222222,60.08025,0.685283333333333,-0.6933,-0.00565,-4.7865,4.145,1.494,4.13,0.650766666666667,0.504333333333333,0.527133333333333,-9.43966666666667,28.1405,-16.0465,990.2695,1,1,1,1
24-May-2018 12:35:14,162,0.937814285714286,-0.0524285714285714,0.249642857142857,-1.7792,0.415,-1.0216,537.553,-0.888775,-0.244225,-0.525275,47.1071111111111,-52.8944444444444,30.8422222222222,60.08025,0.685283333333333,-0.6933,-0.00565,-4.7865,4.145,1.494,4.13,0.650766666666667,0.504333333333333,0.527133333333333,-9.43966666666667,28.1405,-16.0465,990.2695,1,1,1,1
24-May-2018 12:35:14,162,0.937814285714286,-0.0524285714285714,0.249642857142857,-1.7792,0.415,-1.0216,537.553,-0.888775,-0.244225,-0.525275,47.1071111111111,-52.8944444444444,30.8422222222222,60.08025,0.685283333333333,-0.6933,-0.00565,-4.7865,4.145,1.494,4.13,0.650766666666667,0.504333333333333,0.527133333333333,-9.43966666666667,28.1405,-16.0465,990.2695,1,1,1,1
24-May-2018 12:35:14,162,0.937814285714286,-0.0524285714285714,0.249642857142857,-1.7792,0.415,-1.0216,537.553,-0.888775,-0.244225,-0.525275,47.1071111111111,-52.8944444444444,30.8422222222222,60.08025,0.685283333333333,-0.6933,-0.00565,-4.7865,4.145,1.494,4.13,0.650766666666667,0.504333333333333,0.527133333333333,-9.43966666666667,28.1405,-16.0465,990.2695,1,1,1,1
24-May-2018 12:35:15,44.7777777777778,0.93204,-0.04942,0.24306,0.197714285714286,-1.548,1.65485714285714,538.643,-0.959175,-0.0795,-0.1363,-63.8211111111111,-34.0714444444444,57.2077777777778,61.806,0.6921,-0.687033333333333,-0.00518333333333333,-2.6058,2.0018,-0.9604,4.0502,0.520133333333333,-0.4832,0.3712,-111.190285714286,-20.9755714285714,18.1098571428571,1156.53,1,1,1,1
24-May-2018 12:35:15,44.7777777777778,0.93204,-0.04942,0.24306,0.197714285714286,-1.548,1.65485714285714,538.643,-0.959175,-0.0795,-0.1363,-63.8211111111111,-34.0714444444444,57.2077777777778,61.806,0.6921,-0.687033333333333,-0.00518333333333333,-2.6058,2.0018,-0.9604,4.0502,0.520133333333333,-0.4832,0.3712,-111.190285714286,-20.9755714285714,18.1098571428571,1156.53,1,1,1,1
24-May-2018 12:35:15,44.7777777777778,0.93204,-0.04942,0.24306,0.197714285714286,-1.548,1.65485714285714,538.643,-0.959175,-0.0795,-0.1363,-63.8211111111111,-34.0714444444444,57.2077777777778,61.806,0.6921,-0.687033333333333,-0.00518333333333333,-2.6058,2.0018,-0.9604,4.0502,0.520133333333333,-0.4832,0.3712,-111.190285714286,-20.9755714285714,18.1098571428571,1156.53,1,1,1,1
24-May-2018 12:35:15,44.7777777777778,0.93204,-0.04942,0.24306,0.197714285714286,-1.548,1.65485714285714,538.643,-0.959175,-0.0795,-0.1363,-63.8211111111111,-34.0714444444444,57.2077777777778,61.806,0.6921,-0.687033333333333,-0.00518333333333333,-2.6058,2.0018,-0.9604,4.0502,0.520133333333333,-0.4832,0.3712,-111.190285714286,-20.9755714285714,18.1098571428571,1156.53,1,1,1,1
24-May-2018 12:35:16,-44.1,0.941942857142857,-0.0733285714285714,0.239114285714286,-3.25866666666667,4.26816666666667,-0.274166666666667,539.4955,-0.87396,0.23478,-0.4265,-154.962222222222,-44.7333333333333,43.5733333333333,61.806,0.70274,-0.6747,-0.02108,-3.166,0.855,-0.1932,3.9135,0.4321,-0.92046,-0.03026,9.7255,4.65433333333333,5.73166666666667,533.959,1,1,1,1
24-May-2018 12:35:16,-44.1,0.941942857142857,-0.0733285714285714,0.239114285714286,-3.25866666666667,4.26816666666667,-0.274166666666667,539.4955,-0.87396,0.23478,-0.4265,-154.962222222222,-44.7333333333333,43.5733333333333,61.806,0.70274,-0.6747,-0.02108,-3.166,0.855,-0.1932,3.9135,0.4321,-0.92046,-0.03026,9.7255,4.65433333333333,5.73166666666667,533.959,1,1,1,1
24-May-2018 12:35:16,-44.1,0.941942857142857,-0.0733285714285714,0.239114285714286,-3.25866666666667,4.26816666666667,-0.274166666666667,539.4955,-0.87396,0.23478,-0.4265,-154.962222222222,-44.7333333333333,43.5733333333333,61.806,0.70274,-0.6747,-0.02108,-3.166,0.855,-0.1932,3.9135,0.4321,-0.92046,-0.03026,9.7255,4.65433333333333,5.73166666666667,533.959,1,1,1,1
24-May-2018 12:35:16,-44.1,0.941942857142857,-0.0733285714285714,0.239114285714286,-3.25866666666667,4.26816666666667,-0.274166666666667,539.4955,-0.87396,0.23478,-0.4265,-154.962222222222,-44.7333333333333,43.5733333333333,61.806,0.70274,-0.6747,-0.02108,-3.166,0.855,-0.1932,3.9135,0.4321,-0.92046,-0.03026,9.7255,4.65433333333333,5.73166666666667,533.959,1,1,1,1
24-May-2018 12:35:17,194,0.936166666666667,-0.05555,0.237966666666667,-2.3275,-2.0285,-0.436333333333333,526.965666666667,-0.859025,0.4139,-0.337425,77.3911111111111,99.4722222222222,-45.102,61.806,0.71042,-0.5885,0.14048,-13.2006,36.1878,-12.742,3.7542,0.263933333333333,-0.917933333333333,-0.0718833333333333,-23.5771666666667,37.4491666666667,37.1545,504.241,1,1,1,1
24-May-2018 12:35:17,194,0.936166666666667,-0.05555,0.237966666666667,-2.3275,-2.0285,-0.436333333333333,526.965666666667,-0.859025,0.4139,-0.337425,77.3911111111111,99.4722222222222,-45.102,61.806,0.71042,-0.5885,0.14048,-13.2006,36.1878,-12.742,3.7542,0.263933333333333,-0.917933333333333,-0.0718833333333333,-23.5771666666667,37.4491666666667,37.1545,504.241,1,1,1,1
24-May-2018 12:35:17,194,0.936166666666667,-0.05555,0.237966666666667,-2.3275,-2.0285,-0.436333333333333,526.965666666667,-0.859025,0.4139,-0.337425,77.3911111111111,99.4722222222222,-45.102,61.806,0.71042,-0.5885,0.14048,-13.2006,36.1878,-12.742,3.7542,0.263933333333333,-0.917933333333333,-0.0718833333333333,-23.5771666666667,37.4491666666667,37.1545,504.241,1,1,1,1
24-May-2018 12:35:17,194,0.936166666666667,-0.05555,0.237966666666667,-2.3275,-2.0285,-0.436333333333333,526.965666666667,-0.859025,0.4139,-0.337425,77.3911111111111,99.4722222222222,-45.102,61.806,0.71042,-0.5885,0.14048,-13.2006,36.1878,-12.742,3.7542,0.263933333333333,-0.917933333333333,-0.0718833333333333,-23.5771666666667,37.4491666666667,37.1545,504.241,1,1,1,1
24-May-2018 12:35:18,310.375,0.945466666666667,-0.0579666666666667,0.195833333333333,-5.97333333333333,-1.62333333333333,-0.543333333333333,518.517,-0.8044,0.49525,-0.11995,-172.253333333333,281.5,56.5666666666667,76.874,0.825175,-0.422975,0.419875,30.0575,-9.3375,7.42325,3.721,-0.263,-0.93955,-0.1595,-5.813,-30.244,28.557,504.241,1,1,1,1
24-May-2018 12:35:18,310.375,0.945466666666667,-0.0579666666666667,0.195833333333333,-5.97333333333333,-1.62333333333333,-0.543333333333333,518.517,-0.8044,0.49525,-0.11995,-172.253333333333,281.5,56.5666666666667,76.874,0.825175,-0.422975,0.419875,30.0575,-9.3375,7.42325,3.721,-0.263,-0.93955,-0.1595,-5.813,-30.244,28.557,504.241,1,1,1,1
24-May-2018 12:35:18,310.375,0.945466666666667,-0.0579666666666667,0.195833333333333,-5.97333333333333,-1.62333333333333,-0.543333333333333,518.517,-0.8044,0.49525,-0.11995,-172.253333333333,281.5,56.5666666666667,76.874,0.825175,-0.422975,0.419875,30.0575,-9.3375,7.42325,3.721,-0.263,-0.93955,-0.1595,-5.813,-30.244,28.557,504.241,1,1,1,1
24-May-2018 12:35:18,310.375,0.945466666666667,-0.0579666666666667,0.195833333333333,-5.97333333333333,-1.62333333333333,-0.543333333333333,518.517,-0.8044,0.49525,-0.11995,-172.253333333333,281.5,56.5666666666667,76.874,0.825175,-0.422975,0.419875,30.0575,-9.3375,7.42325,3.721,-0.263,-0.93955,-0.1595,-5.813,-30.244,28.557,504.241,1,1,1,1
24-May-2018 12:35:19,-185.7,0.9642,-0.033,0.0896285714285714,-26.0485714285714,-10.8841428571429,-1.878,497.462,-0.87135,0.397875,-0.486675,-96.5677777777778,-128.993333333333,-69.0977777777778,76.874,0.8079,-0.464633333333333,0.384083333333333,-7.92833333333333,-12.6933333333333,5.061,3.6734,-0.408071428571429,-0.807414285714286,0.311314285714286,23.734875,-22.38575,-29.78575,473.2465,1,1,1,1
24-May-2018 12:35:19,-185.7,0.9642,-0.033,0.0896285714285714,-26.0485714285714,-10.8841428571429,-1.878,497.462,-0.87135,0.397875,-0.486675,-96.5677777777778,-128.993333333333,-69.0977777777778,76.874,0.8079,-0.464633333333333,0.384083333333333,-7.92833333333333,-12.6933333333333,5.061,3.6734,-0.408071428571429,-0.807414285714286,0.311314285714286,23.734875,-22.38575,-29.78575,473.2465,1,1,1,1
24-May-2018 12:35:19,-185.7,0.9642,-0.033,0.0896285714285714,-26.0485714285714,-10.8841428571429,-1.878,497.462,-0.87135,0.397875,-0.486675,-96.5677777777778,-128.993333333333,-69.0977777777778,76.874,0.8079,-0.464633333333333,0.384083333333333,-7.92833333333333,-12.6933333333333,5.061,3.6734,-0.408071428571429,-0.807414285714286,0.311314285714286,23.734875,-22.38575,-29.78575,473.2465,1,1,1,1
24-May-2018 12:35:19,-185.7,0.9642,-0.033,0.0896285714285714,-26.0485714285714,-10.8841428571429,-1.878,497.462,-0.87135,0.397875,-0.486675,-96.5677777777778,-128.993333333333,-69.0977777777778,76.874,0.8079,-0.464633333333333,0.384083333333333,-7.92833333333333,-12.6933333333333,5.061,3.6734,-0.408071428571429,-0.807414285714286,0.311314285714286,23.734875,-22.38575,-29.78575,473.2465,1,1,1,1
24-May-2018 12:35:20,-633,0.9311125,-0.111925,-0.2012375,12.903,-12.3466666666667,3.88083333333333,313.2415,-0.97542,0.31682,-0.22024,17.126,15.4165,-26.19825,76.874,0.805814285714286,-0.5275,0.243257142857143,1.3682,-3.5872,-0.1932,3.718,0.66168,-0.58656,0.15836,-10.8448571428571,4.216,-50.4691428571429,626.799,1,1,1,1
24-May-2018 12:35:20,-633,0.9311125,-0.111925,-0.2012375,12.903,-12.3466666666667,3.88083333333333,313.2415,-0.97542,0.31682,-0.22024,17.126,15.4165,-26.19825,76.874,0.805814285714286,-0.5275,0.243257142857143,1.3682,-3.5872,-0.1932,3.718,0.66168,-0.58656,0.15836,-10.8448571428571,4.216,-50.4691428571429,626.799,1,1,1,1
24-May-2018 12:35:20,-633,0.9311125,-0.111925,-0.2012375,12.903,-12.3466666666667,3.88083333333333,313.2415,-0.97542,0.31682,-0.22024,17.126,15.4165,-26.19825,76.874,0.805814285714286,-0.5275,0.243257142857143,1.3682,-3.5872,-0.1932,3.718,0.66168,-0.58656,0.15836,-10.8448571428571,4.216,-50.4691428571429,626.799,1,1,1,1
24-May-2018 12:35:20,-633,0.9311125,-0.111925,-0.2012375,12.903,-12.3466666666667,3.88083333333333,313.2415,-0.97542,0.31682,-0.22024,17.126,15.4165,-26.19825,76.874,0.805814285714286,-0.5275,0.243257142857143,1.3682,-3.5872,-0.1932,3.718,0.66168,-0.58656,0.15836,-10.8448571428571,4.216,-50.4691428571429,626.799,1,1,1,1
24-May-2018 12:35:21,-132.6,0.915522222222222,-0.103588888888889,-0.224588888888889,2.844125,9.662125,-6.988,313.2415,-0.93866,0.30222,-0.26454,1.70088888888889,9.016,5.04733333333333,67.4653333333333,0.8116,-0.515016666666667,0.247533333333333,0.97575,-2.0075,0.10675,4.1782,0.692616666666667,-0.757816666666667,0.0594666666666667,14.7053333333333,-2.805,9.35966666666667,593.738,1,1,1,1
24-May-2018 12:35:21,-132.6,0.915522222222222,-0.103588888888889,-0.224588888888889,2.844125,9.662125,-6.988,313.2415,-0.93866,0.30222,-0.26454,1.70088888888889,9.016,5.04733333333333,67.4653333333333,0.8116,-0.515016666666667,0.247533333333333,0.97575,-2.0075,0.10675,4.1782,0.692616666666667,-0.757816666666667,0.0594666666666667,14.7053333333333,-2.805,9.35966666666667,593.738,1,1,1,1
24-May-2018 12:35:21,-132.6,0.915522222222222,-0.103588888888889,-0.224588888888889,2.844125,9.662125,-6.988,313.2415,-0.93866,0.30222,-0.26454,1.70088888888889,9.016,5.04733333333333,67.4653333333333,0.8116,-0.515016666666667,0.247533333333333,0.97575,-2.0075,0.10675,4.1782,0.692616666666667,-0.757816666666667,0.0594666666666667,14.7053333333333,-2.805,9.35966666666667,593.738,1,1,1,1
24-May-2018 12:35:21,-132.6,0.915522222222222,-0.103588888888889,-0.224588888888889,2.844125,9.662125,-6.988,313.2415,-0.93866,0.30222,-0.26454,1.70088888888889,9.016,5.04733333333333,67.4653333333333,0.8116,-0.515016666666667,0.247533333333333,0.97575,-2.0075,0.10675,4.1782,0.692616666666667,-0.757816666666667,0.0594666666666667,14.7053333333333,-2.805,9.35966666666667,593.738,1,1,1,1
24-May-2018 12:35:22,58.375,0.949028571428571,-0.0276142857142857,-0.0867428571428571,7.15433333333333,3.38516666666667,-0.851666666666667,313.2415,-0.94692,0.3193,-0.2612,-0.758875,-2.595,8.245875,48.648,0.81092,-0.523,0.23864,-1.41933333333333,-1.88683333333333,0.447333333333333,4.197,0.503566666666667,-0.866066666666667,-0.0321,-2.1708,-8.134,21.2198,538.623666666667,1,1,1,1
24-May-2018 12:35:22,58.375,0.949028571428571,-0.0276142857142857,-0.0867428571428571,7.15433333333333,3.38516666666667,-0.851666666666667,313.2415,-0.94692,0.3193,-0.2612,-0.758875,-2.595,8.245875,48.648,0.81092,-0.523,0.23864,-1.41933333333333,-1.88683333333333,0.447333333333333,4.197,0.503566666666667,-0.866066666666667,-0.0321,-2.1708,-8.134,21.2198,538.623666666667,1,1,1,1
24-May-2018 12:35:22,58.375,0.949028571428571,-0.0276142857142857,-0.0867428571428571,7.15433333333333,3.38516666666667,-0.851666666666667,313.2415,-0.94692,0.3193,-0.2612,-0.758875,-2.595,8.245875,48.648,0.81092,-0.523,0.23864,-1.41933333333333,-1.88683333333333,0.447333333333333,4.197,0.503566666666667,-0.866066666666667,-0.0321,-2.1708,-8.134,21.2198,538.623666666667,1,1,1,1
24-May-2018 12:35:22,58.375,0.949028571428571,-0.0276142857142857,-0.0867428571428571,7.15433333333333,3.38516666666667,-0.851666666666667,313.2415,-0.94692,0.3193,-0.2612,-0.758875,-2.595,8.245875,48.648,0.81092,-0.523,0.23864,-1.41933333333333,-1.88683333333333,0.447333333333333,4.197,0.503566666666667,-0.866066666666667,-0.0321,-2.1708,-8.134,21.2198,538.623666666667,1,1,1,1
24-May-2018 12:35:23,244.1,0.953344444444445,-0.0298666666666667,-0.0870111111111111,2.75755555555556,-0.546777777777778,0.440888888888889,313.2415,-0.9406,0.353466666666667,-0.219133333333333,0.724625,-5.5275,0.23125,54.4215,0.80634,-0.52974,0.22074,-10.0183333333333,0.845,0.428,4.1535,-0.184925,-0.960975,-0.122575,25.1586,17.9634,41.5608,477.102,1,1,1,1
24-May-2018 12:35:23,244.1,0.953344444444445,-0.0298666666666667,-0.0870111111111111,2.75755555555556,-0.546777777777778,0.440888888888889,313.2415,-0.9406,0.353466666666667,-0.219133333333333,0.724625,-5.5275,0.23125,54.4215,0.80634,-0.52974,0.22074,-10.0183333333333,0.845,0.428,4.1535,-0.184925,-0.960975,-0.122575,25.1586,17.9634,41.5608,477.102,1,1,1,1
24-May-2018 12:35:23,244.1,0.953344444444445,-0.0298666666666667,-0.0870111111111111,2.75755555555556,-0.546777777777778,0.440888888888889,313.2415,-0.9406,0.353466666666667,-0.219133333333333,0.724625,-5.5275,0.23125,54.4215,0.80634,-0.52974,0.22074,-10.0183333333333,0.845,0.428,4.1535,-0.184925,-0.960975,-0.122575,25.1586,17.9634,41.5608,477.102,1,1,1,1
24-May-2018 12:35:23,244.1,0.953344444444445,-0.0298666666666667,-0.0870111111111111,2.75755555555556,-0.546777777777778,0.440888888888889,313.2415,-0.9406,0.353466666666667,-0.219133333333333,0.724625,-5.5275,0.23125,54.4215,0.80634,-0.52974,0.22074,-10.0183333333333,0.845,0.428,4.1535,-0.184925,-0.960975,-0.122575,25.1586,17.9634,41.5608,477.102,1,1,1,1
24-May-2018 12:35:24,277.3,0.951942857142857,-0.0339428571428571,-0.0884428571428571,0.9765,0.252375,0.4965,338.638,-0.95436,0.34496,-0.1882,4.91877777777778,-3.49777777777778,-3.76222222222222,56.346,0.787333333333333,-0.573,0.182416666666667,1.89857142857143,-1.224,-0.405857142857143,3.71175,-0.4823,-0.925816666666667,-0.225116666666667,-40.04425,-20.01525,-11.29475,555.467333333333,1,1,1,1
24-May-2018 12:35:24,277.3,0.951942857142857,-0.0339428571428571,-0.0884428571428571,0.9765,0.252375,0.4965,338.638,-0.95436,0.34496,-0.1882,4.91877777777778,-3.49777777777778,-3.76222222222222,56.346,0.787333333333333,-0.573,0.182416666666667,1.89857142857143,-1.224,-0.405857142857143,3.71175,-0.4823,-0.925816666666667,-0.225116666666667,-40.04425,-20.01525,-11.29475,555.467333333333,1,1,1,1
24-May-2018 12:35:24,277.3,0.951942857142857,-0.0339428571428571,-0.0884428571428571,0.9765,0.252375,0.4965,338.638,-0.95436,0.34496,-0.1882,4.91877777777778,-3.49777777777778,-3.76222222222222,56.346,0.787333333333333,-0.573,0.182416666666667,1.89857142857143,-1.224,-0.405857142857143,3.71175,-0.4823,-0.925816666666667,-0.225116666666667,-40.04425,-20.01525,-11.29475,555.467333333333,1,1,1,1
24-May-2018 12:35:24,277.3,0.951942857142857,-0.0339428571428571,-0.0884428571428571,0.9765,0.252375,0.4965,338.638,-0.95436,0.34496,-0.1882,4.91877777777778,-3.49777777777778,-3.76222222222222,56.346,0.787333333333333,-0.573,0.182416666666667,1.89857142857143,-1.224,-0.405857142857143,3.71175,-0.4823,-0.925816666666667,-0.225116666666667,-40.04425,-20.01525,-11.29475,555.467333333333,1,1,1,1
24-May-2018 12:35:25,95.25,0.939966666666667,-0.0577166666666667,-0.1513,-0.134714285714285,-3.23642857142857,2.46514285714286,317.94625,-0.95172,0.33112,-0.17482,-0.817,-5.53111111111111,-1.32222222222222,59.092,0.825625,-0.50455,0.180975,3.49616666666667,-2.49666666666667,-1.61333333333333,2.844,-0.483266666666667,-0.955066666666667,0.0692,-11.7265,-0.853500000000002,11.5853333333333,474.556333333333,1,1,1,1
24-May-2018 12:35:25,95.25,0.939966666666667,-0.0577166666666667,-0.1513,-0.134714285714285,-3.23642857142857,2.46514285714286,317.94625,-0.95172,0.33112,-0.17482,-0.817,-5.53111111111111,-1.32222222222222,59.092,0.825625,-0.50455,0.180975,3.49616666666667,-2.49666666666667,-1.61333333333333,2.844,-0.483266666666667,-0.955066666666667,0.0692,-11.7265,-0.853500000000002,11.5853333333333,474.556333333333,1,1,1,1
24-May-2018 12:35:25,95.25,0.939966666666667,-0.0577166666666667,-0.1513,-0.134714285714285,-3.23642857142857,2.46514285714286,317.94625,-0.95172,0.33112,-0.17482,-0.817,-5.53111111111111,-1.32222222222222,59.092,0.825625,-0.50455,0.180975,3.49616666666667,-2.49666666666667,-1.61333333333333,2.844,-0.483266666666667,-0.955066666666667,0.0692,-11.7265,-0.853500000000002,11.5853333333333,474.556333333333,1,1,1,1
24-May-2018 12:35:25,95.25,0.939966666666667,-0.0577166666666667,-0.1513,-0.134714285714285,-3.23642857142857,2.46514285714286,317.94625,-0.95172,0.33112,-0.17482,-0.817,-5.53111111111111,-1.32222222222222,59.092,0.825625,-0.50455,0.180975,3.49616666666667,-2.49666666666667,-1.61333333333333,2.844,-0.483266666666667,-0.955066666666667,0.0692,-11.7265,-0.853500000000002,11.5853333333333,474.556333333333,1,1,1,1
24-May-2018 12:35:26,377.2,0.941433333333333,-0.0645666666666667,-0.133733333333333,6.9495,1.7505,-3.10333333333333,272.00625,-0.956633333333333,0.3272,-0.147366666666667,-5.312,-7.618,-0.7302,64.584,0.8204,-0.5189,0.183528571428571,0.112,-1.97,0.2574,2.962,-0.4306,-0.757066666666667,0.0911666666666667,21.505,-8.67883333333333,-18.4655,530.249,1,1,1,1
24-May-2018 12:35:26,377.2,0.941433333333333,-0.0645666666666667,-0.133733333333333,6.9495,1.7505,-3.10333333333333,272.00625,-0.956633333333333,0.3272,-0.147366666666667,-5.312,-7.618,-0.7302,64.584,0.8204,-0.5189,0.183528571428571,0.112,-1.97,0.2574,2.962,-0.4306,-0.757066666666667,0.0911666666666667,21.505,-8.67883333333333,-18.4655,530.249,1,1,1,1
24-May-2018 12:35:26,377.2,0.941433333333333,-0.0645666666666667,-0.133733333333333,6.9495,1.7505,-3.10333333333333,272.00625,-0.956633333333333,0.3272,-0.147366666666667,-5.312,-7.618,-0.7302,64.584,0.8204,-0.5189,0.183528571428571,0.112,-1.97,0.2574,2.962,-0.4306,-0.757066666666667,0.0911666666666667,21.505,-8.67883333333333,-18.4655,530.249,1,1,1,1
24-May-2018 12:35:26,377.2,0.941433333333333,-0.0645666666666667,-0.133733333333333,6.9495,1.7505,-3.10333333333333,272.00625,-0.956633333333333,0.3272,-0.147366666666667,-5.312,-7.618,-0.7302,64.584,0.8204,-0.5189,0.183528571428571,0.112,-1.97,0.2574,2.962,-0.4306,-0.757066666666667,0.0911666666666667,21.505,-8.67883333333333,-18.4655,530.249,1,1,1,1
24-May-2018 12:35:27,-39,0.9515,-0.00351666666666667,-0.11555,2.8658,0.5744,-0.644,230.324,-0.967175,0.319175,-0.12475,-3.593,-6.721,-1.976,64.584,0.81368,-0.52864,0.18064,-0.592,-0.54425,0.47275,3.2928,-0.550075,-0.496825,0.5615,59.9148,7.3414,-50.3778,622.174333333333,1,1,1,1
24-May-2018 12:35:27,-39,0.9515,-0.00351666666666667,-0.11555,2.8658,0.5744,-0.644,230.324,-0.967175,0.319175,-0.12475,-3.593,-6.721,-1.976,64.584,0.81368,-0.52864,0.18064,-0.592,-0.54425,0.47275,3.2928,-0.550075,-0.496825,0.5615,59.9148,7.3414,-50.3778,622.174333333333,1,1,1,1
24-May-2018 12:35:27,-39,0.9515,-0.00351666666666667,-0.11555,2.8658,0.5744,-0.644,230.324,-0.967175,0.319175,-0.12475,-3.593,-6.721,-1.976,64.584,0.81368,-0.52864,0.18064,-0.592,-0.54425,0.47275,3.2928,-0.550075,-0.496825,0.5615,59.9148,7.3414,-50.3778,622.174333333333,1,1,1,1
24-May-2018 12:35:27,-39,0.9515,-0.00351666666666667,-0.11555,2.8658,0.5744,-0.644,230.324,-0.967175,0.319175,-0.12475,-3.593,-6.721,-1.976,64.584,0.81368,-0.52864,0.18064,-0.592,-0.54425,0.47275,3.2928,-0.550075,-0.496825,0.5615,59.9148,7.3414,-50.3778,622.174333333333,1,1,1,1
24-May-2018 12:35:28,-38.1,0.948942857142857,-0.00837142857142857,-0.116257142857143,1.90757142857143,0.932857142857143,0.165714285714286,226.882666666667,-0.971575,0.309075,-0.109975,-1.442625,-1.97925,-2.22125,59.943,0.8052,-0.54235,0.161033333333333,-5.95,0.225,1.60566666666667,3.8808,-0.403375,-0.8237,0.485375,19.181,-11.7595714285714,-10.7314285714286,622.174333333333,1,1,1,1
24-May-2018 12:35:28,-38.1,0.948942857142857,-0.00837142857142857,-0.116257142857143,1.90757142857143,0.932857142857143,0.165714285714286,226.882666666667,-0.971575,0.309075,-0.109975,-1.442625,-1.97925,-2.22125,59.943,0.8052,-0.54235,0.161033333333333,-5.95,0.225,1.60566666666667,3.8808,-0.403375,-0.8237,0.485375,19.181,-11.7595714285714,-10.7314285714286,622.174333333333,1,1,1,1
24-May-2018 12:35:28,-38.1,0.948942857142857,-0.00837142857142857,-0.116257142857143,1.90757142857143,0.932857142857143,0.165714285714286,226.882666666667,-0.971575,0.309075,-0.109975,-1.442625,-1.97925,-2.22125,59.943,0.8052,-0.54235,0.161033333333333,-5.95,0.225,1.60566666666667,3.8808,-0.403375,-0.8237,0.485375,19.181,-11.7595714285714,-10.7314285714286,622.174333333333,1,1,1,1
24-May-2018 12:35:28,-38.1,0.948942857142857,-0.00837142857142857,-0.116257142857143,1.90757142857143,0.932857142857143,0.165714285714286,226.882666666667,-0.971575,0.309075,-0.109975,-1.442625,-1.97925,-2.22125,59.943,0.8052,-0.54235,0.161033333333333,-5.95,0.225,1.60566666666667,3.8808,-0.403375,-0.8237,0.485375,19.181,-11.7595714285714,-10.7314285714286,0,1,1,1,1
24-May-2018 12:35:29,82.5,0.956157142857143,0.00334285714285714,-0.0571714285714286,-0.00512499999999999,4.779,-0.6675,233.906666666667,-0.97304,0.30036,-0.10312,-1.94144444444444,0.294,-1.23444444444444,55.302,0.7931,-0.563275,0.145525,0.651833333333333,-2.29333333333333,-0.0585,3.936,-0.454325,-0.702075,0.59455,68.5974,20.1952,19.134,733.763,1,1,1,1
24-May-2018 12:35:29,82.5,0.956157142857143,0.00334285714285714,-0.0571714285714286,-0.00512499999999999,4.779,-0.6675,233.906666666667,-0.97304,0.30036,-0.10312,-1.94144444444444,0.294,-1.23444444444444,55.302,0.7931,-0.563275,0.145525,0.651833333333333,-2.29333333333333,-0.0585,3.936,-0.454325,-0.702075,0.59455,68.5974,20.1952,19.134,733.763,1,1,1,1
24-May-2018 12:35:29,82.5,0.956157142857143,0.00334285714285714,-0.0571714285714286,-0.00512499999999999,4.779,-0.6675,233.906666666667,-0.97304,0.30036,-0.10312,-1.94144444444444,0.294,-1.23444444444444,55.302,0.7931,-0.563275,0.145525,0.651833333333333,-2.29333333333333,-0.0585,3.936,-0.454325,-0.702075,0.59455,68.5974,20.1952,19.134,733.763,1,1,1,1
24-May-2018 12:35:29,82.5,0.956157142857143,0.00334285714285714,-0.0571714285714286,-0.00512499999999999,4.779,-0.6675,233.906666666667,-0.97304,0.30036,-0.10312,-1.94144444444444,0.294,-1.23444444444444,55.302,0.7931,-0.563275,0.145525,0.651833333333333,-2.29333333333333,-0.0585,3.936,-0.454325,-0.702075,0.59455,68.5974,20.1952,19.134,733.763,1,1,1,1
24-May-2018 12:35:30,-113.727272727273,0.95732,0.01538,0.00376,1.7934,1.0856,0.1344,239.937,-0.974725,0.295725,-0.10895,-3.27142857142857,1.96871428571429,-0.120714285714286,55.302,0.801975,-0.555575,0.144,1.13933333333333,-1.45883333333333,-0.200333333333333,3.94,-0.538075,-0.275225,0.593325,-67.7805,14.161375,-9.900875,733.763,1,1,1,1
24-May-2018 12:35:30,-113.727272727273,0.95732,0.01538,0.00376,1.7934,1.0856,0.1344,239.937,-0.974725,0.295725,-0.10895,-3.27142857142857,1.96871428571429,-0.120714285714286,55.302,0.801975,-0.555575,0.144,1.13933333333333,-1.45883333333333,-0.200333333333333,3.94,-0.538075,-0.275225,0.593325,-67.7805,14.161375,-9.900875,733.763,1,1,1,1
24-May-2018 12:35:30,-113.727272727273,0.95732,0.01538,0.00376,1.7934,1.0856,0.1344,239.937,-0.974725,0.295725,-0.10895,-3.27142857142857,1.96871428571429,-0.120714285714286,55.302,0.801975,-0.555575,0.144,1.13933333333333,-1.45883333333333,-0.200333333333333,3.94,-0.538075,-0.275225,0.593325,-67.7805,14.161375,-9.900875,733.763,1,1,1,1
24-May-2018 12:35:30,-113.727272727273,0.95732,0.01538,0.00376,1.7934,1.0856,0.1344,239.937,-0.974725,0.295725,-0.10895,-3.27142857142857,1.96871428571429,-0.120714285714286,55.302,0.801975,-0.555575,0.144,1.13933333333333,-1.45883333333333,-0.200333333333333,3.94,-0.538075,-0.275225,0.593325,-67.7805,14.161375,-9.900875,0,1,1,1,1
24-May-2018 12:35:31,64.5,0.961142857142857,0.0171571428571429,-0.00115714285714286,1.48075,-0.33875,0.495625,239.937,-0.970075,0.305775,-0.1104,0.218222222222222,1.54455555555556,2.64233333333333,53.784,0.8037,-0.546285714285714,0.167657142857143,-4.39183333333333,3.9335,-1.72333333333333,3.75,-0.400875,-0.68965,0.516125,46.4531666666667,1.97183333333334,-2.85583333333333,540.547333333333,1,1,1,1
24-May-2018 12:35:31,64.5,0.961142857142857,0.0171571428571429,-0.00115714285714286,1.48075,-0.33875,0.495625,239.937,-0.970075,0.305775,-0.1104,0.218222222222222,1.54455555555556,2.64233333333333,53.784,0.8037,-0.546285714285714,0.167657142857143,-4.39183333333333,3.9335,-1.72333333333333,3.75,-0.400875,-0.68965,0.516125,46.4531666666667,1.97183333333334,-2.85583333333333,540.547333333333,1,1,1,1
24-May-2018 12:35:31,64.5,0.961142857142857,0.0171571428571429,-0.00115714285714286,1.48075,-0.33875,0.495625,239.937,-0.970075,0.305775,-0.1104,0.218222222222222,1.54455555555556,2.64233333333333,53.784,0.8037,-0.546285714285714,0.167657142857143,-4.39183333333333,3.9335,-1.72333333333333,3.75,-0.400875,-0.68965,0.516125,46.4531666666667,1.97183333333334,-2.85583333333333,540.547333333333,1,1,1,1
24-May-2018 12:35:31,64.5,0.961142857142857,0.0171571428571429,-0.00115714285714286,1.48075,-0.33875,0.495625,239.937,-0.970075,0.305775,-0.1104,0.218222222222222,1.54455555555556,2.64233333333333,53.784,0.8037,-0.546285714285714,0.167657142857143,-4.39183333333333,3.9335,-1.72333333333333,3.75,-0.400875,-0.68965,0.516125,46.4531666666667,1.97183333333334,-2.85583333333333,540.547333333333,1,1,1,1
24-May-2018 12:35:32,187.555555555556,0.9610375,0.0137625,0.0027875,2.3292,0.4514,0.2928,239.937,-0.970725,0.312925,-0.115525,3.29944444444444,0.515444444444444,0.482444444444444,52.266,0.80922,-0.51384,0.25126,-0.5365,6.00516666666667,-1.0825,3.788,0.22678,0.5795,-0.25042,-476.92275,-154.76975,215.495875,540.547333333333,1,1,1,1
24-May-2018 12:35:32,187.555555555556,0.9610375,0.0137625,0.0027875,2.3292,0.4514,0.2928,239.937,-0.970725,0.312925,-0.115525,3.29944444444444,0.515444444444444,0.482444444444444,52.266,0.80922,-0.51384,0.25126,-0.5365,6.00516666666667,-1.0825,3.788,0.22678,0.5795,-0.25042,-476.92275,-154.76975,215.495875,540.547333333333,1,1,1,1
24-May-2018 12:35:32,187.555555555556,0.9610375,0.0137625,0.0027875,2.3292,0.4514,0.2928,239.937,-0.970725,0.312925,-0.115525,3.29944444444444,0.515444444444444,0.482444444444444,52.266,0.80922,-0.51384,0.25126,-0.5365,6.00516666666667,-1.0825,3.788,0.22678,0.5795,-0.25042,-476.92275,-154.76975,215.495875,540.547333333333,1,1,1,1
24-May-2018 12:35:32,187.555555555556,0.9610375,0.0137625,0.0027875,2.3292,0.4514,0.2928,239.937,-0.970725,0.312925,-0.115525,3.29944444444444,0.515444444444444,0.482444444444444,52.266,0.80922,-0.51384,0.25126,-0.5365,6.00516666666667,-1.0825,3.788,0.22678,0.5795,-0.25042,-476.92275,-154.76975,215.495875,0,1,1,1,1
24-May-2018 12:35:33,220.5,0.960833333333333,0.0267,-0.0101,-10.0011111111111,-2.23222222222222,0.928333333333333,239.937,-0.9683,0.30964,-0.11386,2.48644444444444,0.211333333333333,-0.302555555555556,52.266,0.7846,-0.557342857142857,0.311171428571429,2.6485,-21.1663333333333,7.72266666666667,3.65933333333333,-0.07312,-0.0708,1.03732,-12.9352857142857,167.900714285714,19.5991428571429,73.957,1,1,1,1
24-May-2018 12:35:33,220.5,0.960833333333333,0.0267,-0.0101,-10.0011111111111,-2.23222222222222,0.928333333333333,239.937,-0.9683,0.30964,-0.11386,2.48644444444444,0.211333333333333,-0.302555555555556,52.266,0.7846,-0.557342857142857,0.311171428571429,2.6485,-21.1663333333333,7.72266666666667,3.65933333333333,-0.07312,-0.0708,1.03732,-12.9352857142857,167.900714285714,19.5991428571429,73.957,1,1,1,1
24-May-2018 12:35:33,220.5,0.960833333333333,0.0267,-0.0101,-10.0011111111111,-2.23222222222222,0.928333333333333,239.937,-0.9683,0.30964,-0.11386,2.48644444444444,0.211333333333333,-0.302555555555556,52.266,0.7846,-0.557342857142857,0.311171428571429,2.6485,-21.1663333333333,7.72266666666667,3.65933333333333,-0.07312,-0.0708,1.03732,-12.9352857142857,167.900714285714,19.5991428571429,73.957,1,1,1,1
24-May-2018 12:35:33,220.5,0.960833333333333,0.0267,-0.0101,-10.0011111111111,-2.23222222222222,0.928333333333333,239.937,-0.9683,0.30964,-0.11386,2.48644444444444,0.211333333333333,-0.302555555555556,52.266,0.7846,-0.557342857142857,0.311171428571429,2.6485,-21.1663333333333,7.72266666666667,3.65933333333333,-0.07312,-0.0708,1.03732,-12.9352857142857,167.900714285714,19.5991428571429,73.957,1,1,1,1
24-May-2018 12:35:34,140.1,0.948771428571429,-0.0284142857142857,-0.1052,-5.53057142857143,-7.09571428571429,6.91628571428571,230.542,-0.97042,0.30684,-0.11984,1.427,0.5752,-0.8803,52.458,0.72812,-0.59766,0.226,-30.5645,36.41125,9.3575,2.4276,0.0313666666666667,-0.00265,1.01871666666667,0.514,0.035,-0.148142857142857,837.583,1,1,1,1
24-May-2018 12:35:34,0,0,0,0,0,0,0,0,0,0,0,0,0,0,0,0,0,0,0,0,0,0,0,0,0,0,0,0,0,1,1,1,1
24-May-2018 12:35:34,0,0,0,0,0,0,0,0,0,0,0,0,0,0,0,0,0,0,0,0,0,0,0,0,0,0,0,0,0,1,1,1,1
24-May-2018 12:35:34,0,0,0,0,0,0,0,0,0,0,0,0,0,0,0,0,0,0,0,0,0,0,0,0,0,0,0,0,0,1,1,1,1
24-May-2018 12:35:35,-36.9,0.93765,-0.0169,0.086,21.025,20.331,-4.45033333333333,190.07825,-0.972333333333333,0.302166666666667,-0.116733333333333,-0.345,0.279142857142857,-0.441428571428571,52.842,0.718466666666667,-0.6454,0.111566666666667,4.67975,12.25125,-4.08475,2.808,0.0309,-0.00262,1.01792,0.61,0.4575,-0.172833333333333,850.063,1,1,1,1
24-May-2018 12:35:35,0,0,0,0,0,0,0,0,0,0,0,0,0,0,0,0,0,0,0,0,0,0,0,0,0,0,0,0,0,1,1,1,1
24-May-2018 12:35:35,0,0,0,0,0,0,0,0,0,0,0,0,0,0,0,0,0,0,0,0,0,0,0,0,0,0,0,0,0,1,1,1,1
24-May-2018 12:35:35,0,0,0,0,0,0,0,0,0,0,0,0,0,0,0,0,0,0,0,0,0,0,0,0,0,0,0,0,0,1,1,1,1
