TIME,HELMET_RAW,BELT_ACC_X,BELT_ACC_Y,BELT_ACC_Z,BELT_ANG_X,BELT_ANG_Y,BELT_ANG_Z,BELT_LUMINOSITY,NECK_ACC_X,NECK_ACC_Y,NECK_ACC_Z,NECK_ANG_X,NECK_ANG_Y,NECK_ANG_Z,NECK_LUMINOSITY,PCKT_ACC_X,PCKT_ACC_Y,PCKT_ACC_Z,PCKT_ANG_X,PCKT_ANG_Y,PCKT_ANG_Z,PCKT_LUMINOSITY,WRST_ACC_X,WRST_ACC_Y,WRST_ACC_Z,WRST_ANG_X,WRST_ANG_Y,WRST_ANG_Z,WRST_LUMINOSITY,IR_1,IR_2,IR_3,IR_4
24-May-2018 12:33:36,-97.1,0.0547666666666667,0.0743333333333333,1.03731666666667,0.813,3.21333333333333,0.691333333333333,923.665666666667,-0.8157,0.580275,-0.280375,3.33628571428571,4.82628571428571,2.01242857142857,61.607,-0.09965,-0.00213333333333333,1.09006666666667,-0.544,-0.982,-0.472,3.744,0.105628571428571,-0.478671428571429,0.8927,0.3416,0.427,-0.183,769.599,0,1,1,0
24-May-2018 12:33:36,-97.1,0.0547666666666667,0.0743333333333333,1.03731666666667,0.813,3.21333333333333,0.691333333333333,923.665666666667,-0.8157,0.580275,-0.280375,3.33628571428571,4.82628571428571,2.01242857142857,61.607,-0.09965,-0.00213333333333333,1.09006666666667,-0.544,-0.982,-0.472,3.744,0.105628571428571,-0.478671428571429,0.8927,0.3416,0.427,-0.183,769.599,0,1,1,0
24-May-2018 12:33:36,-97.1,0.0547666666666667,0.0743333333333333,1.03731666666667,0.813,3.21333333333333,0.691333333333333,923.665666666667,-0.8157,0.580275,-0.280375,3.33628571428571,4.82628571428571,2.01242857142857,61.607,-0.09965,-0.00213333333333333,1.09006666666667,-0.544,-0.982,-0.472,3.744,0.105628571428571,-0.478671428571429,0.8927,0.3416,0.427,-0.183,769.599,0,1,1,0
24-May-2018 12:33:36,-97.1,0.0547666666666667,0.0743333333333333,1.03731666666667,0.813,3.21333333333333,0.691333333333333,923.665666666667,-0.8157,0.580275,-0.280375,3.33628571428571,4.82628571428571,2.01242857142857,61.607,-0.09965,-0.00213333333333333,1.09006666666667,-0.544,-0.982,-0.472,0,0.105628571428571,-0.478671428571429,0.8927,0.3416,0.427,-0.183,769.599,0,1,1,0
24-May-2018 12:33:37,22.4,0.0500666666666667,0.0728333333333333,1.03483333333333,0.5185,0.571875,0.358375,922.9685,-0.8143,0.581725,-0.282325,-0.736555555555556,0.138555555555556,0.0561111111111111,61.64075,-0.10015,-0.0026,1.0905875,-0.658571428571428,-0.848571428571429,-0.094,3.739,0.105425,-0.4815,0.893575,0.5856,0.4514,-0.2196,768.8005,1,1,1,1
24-May-2018 12:33:37,22.4,0.0500666666666667,0.0728333333333333,1.03483333333333,0.5185,0.571875,0.358375,922.9685,-0.8143,0.581725,-0.282325,-0.736555555555556,0.138555555555556,0.0561111111111111,61.64075,-0.10015,-0.0026,1.0905875,-0.658571428571428,-0.848571428571429,-0.094,3.739,0.105425,-0.4815,0.893575,0.5856,0.4514,-0.2196,768.8005,1,1,1,1
24-May-2018 12:33:37,22.4,0.0500666666666667,0.0728333333333333,1.03483333333333,0.5185,0.571875,0.358375,922.9685,-0.8143,0.581725,-0.282325,-0.736555555555556,0.138555555555556,0.0561111111111111,61.64075,-0.10015,-0.0026,1.0905875,-0.658571428571428,-0.848571428571429,-0.094,3.739,0.105425,-0.4815,0.893575,0.5856,0.4514,-0.2196,768.8005,1,1,1,1
24-May-2018 12:33:37,22.4,0.0500666666666667,0.0728333333333333,1.03483333333333,0.5185,0.571875,0.358375,922.9685,-0.8143,0.581725,-0.282325,-0.736555555555556,0.138555555555556,0.0561111111111111,61.64075,-0.10015,-0.0026,1.0905875,-0.658571428571428,-0.848571428571429,-0.094,3.739,0.105425,-0.4815,0.893575,0.5856,0.4514,-0.2196,768.8005,1,1,1,1
24-May-2018 12:33:38,-112.857142857143,0.0583125,0.0716625,1.034275,0.697,-0.892857142857143,0.34,922.9685,-0.80736,0.58676,-0.28042,-0.84375,-0.720875,0.7255,61.742,-0.100914285714286,-0.00194285714285714,1.09018571428571,-0.36,-0.96,-0.2516,3.739,0.105075,-0.481075,0.893,0.2745,0.38125,-0.16775,769.3105,1,1,1,1
24-May-2018 12:33:38,-112.857142857143,0.0583125,0.0716625,1.034275,0.697,-0.892857142857143,0.34,922.9685,-0.80736,0.58676,-0.28042,-0.84375,-0.720875,0.7255,61.742,-0.100914285714286,-0.00194285714285714,1.09018571428571,-0.36,-0.96,-0.2516,3.739,0.105075,-0.481075,0.893,0.2745,0.38125,-0.16775,769.3105,1,1,1,1
24-May-2018 12:33:38,-112.857142857143,0.0583125,0.0716625,1.034275,0.697,-0.892857142857143,0.34,922.9685,-0.80736,0.58676,-0.28042,-0.84375,-0.720875,0.7255,61.742,-0.100914285714286,-0.00194285714285714,1.09018571428571,-0.36,-0.96,-0.2516,3.739,0.105075,-0.481075,0.893,0.2745,0.38125,-0.16775,769.3105,1,1,1,1
24-May-2018 12:33:38,-112.857142857143,0.0583125,0.0716625,1.034275,0.697,-0.892857142857143,0.34,922.9685,-0.80736,0.58676,-0.28042,-0.84375,-0.720875,0.7255,61.742,-0.100914285714286,-0.00194285714285714,1.09018571428571,-0.36,-0.96,-0.2516,3.739,0.105075,-0.481075,0.893,0.2745,0.38125,-0.16775,769.3105,1,1,1,1
24-May-2018 12:33:39,-6.5,0.057125,0.072925,1.033875,1.002,0.897857142857143,0.444428571428571,922.9685,-0.80728,0.58744,-0.28108,1.22822222222222,1.66055555555556,1.91144444444444,61.742,-0.0993,-0.00208333333333333,1.09001666666667,-0.563333333333333,-1.105,-0.481666666666667,3.739,0.10612,-0.47994,0.89144,0.488,0.480375,-0.190625,769.13825,1,1,1,1
24-May-2018 12:33:39,-6.5,0.057125,0.072925,1.033875,1.002,0.897857142857143,0.444428571428571,922.9685,-0.80728,0.58744,-0.28108,1.22822222222222,1.66055555555556,1.91144444444444,61.742,-0.0993,-0.00208333333333333,1.09001666666667,-0.563333333333333,-1.105,-0.481666666666667,3.739,0.10612,-0.47994,0.89144,0.488,0.480375,-0.190625,769.13825,1,1,1,1
24-May-2018 12:33:39,-6.5,0.057125,0.072925,1.033875,1.002,0.897857142857143,0.444428571428571,922.9685,-0.80728,0.58744,-0.28108,1.22822222222222,1.66055555555556,1.91144444444444,61.742,-0.0993,-0.00208333333333333,1.09001666666667,-0.563333333333333,-1.105,-0.481666666666667,3.739,0.10612,-0.47994,0.89144,0.488,0.480375,-0.190625,769.13825,1,1,1,1
24-May-2018 12:33:39,-6.5,0.057125,0.072925,1.033875,1.002,0.897857142857143,0.444428571428571,922.9685,-0.80728,0.58744,-0.28108,1.22822222222222,1.66055555555556,1.91144444444444,61.742,-0.0993,-0.00208333333333333,1.09001666666667,-0.563333333333333,-1.105,-0.481666666666667,3.739,0.10612,-0.47994,0.89144,0.488,0.480375,-0.190625,769.13825,1,1,1,1
24-May-2018 12:33:40,93.0909090909091,0.0463428571428571,0.0719428571428572,1.03784285714286,0.192428571428571,-0.807285714285714,0.148142857142857,922.9685,-0.810066666666667,0.588,-0.280733333333333,0.429333333333333,-0.810888888888889,0.774111111111111,62.904,-0.0997571428571429,-0.00285714285714286,1.09081428571429,-0.473333333333333,-0.788333333333333,0.0211666666666667,3.768,0.10506,-0.47808,0.89334,0.3294,0.3538,-0.1708,768.634,1,1,1,1
24-May-2018 12:33:40,93.0909090909091,0.0463428571428571,0.0719428571428572,1.03784285714286,0.192428571428571,-0.807285714285714,0.148142857142857,922.9685,-0.810066666666667,0.588,-0.280733333333333,0.429333333333333,-0.810888888888889,0.774111111111111,62.904,-0.0997571428571429,-0.00285714285714286,1.09081428571429,-0.473333333333333,-0.788333333333333,0.0211666666666667,3.768,0.10506,-0.47808,0.89334,0.3294,0.3538,-0.1708,768.634,1,1,1,1
24-May-2018 12:33:40,93.0909090909091,0.0463428571428571,0.0719428571428572,1.03784285714286,0.192428571428571,-0.807285714285714,0.148142857142857,922.9685,-0.810066666666667,0.588,-0.280733333333333,0.429333333333333,-0.810888888888889,0.774111111111111,62.904,-0.0997571428571429,-0.00285714285714286,1.09081428571429,-0.473333333333333,-0.788333333333333,0.0211666666666667,3.768,0.10506,-0.47808,0.89334,0.3294,0.3538,-0.1708,768.634,1,1,1,1
24-May-2018 12:33:40,93.0909090909091,0.0463428571428571,0.0719428571428572,1.03784285714286,0.192428571428571,-0.807285714285714,0.148142857142857,922.9685,-0.810066666666667,0.588,-0.280733333333333,0.429333333333333,-0.810888888888889,0.774111111111111,62.904,-0.0997571428571429,-0.00285714285714286,1.09081428571429,-0.473333333333333,-0.788333333333333,0.0211666666666667,3.768,0.10506,-0.47808,0.89334,0.3294,0.3538,-0.1708,768.634,1,1,1,1
24-May-2018 12:33:41,244.6,0.06204,0.06782,1.0342,0.599833333333333,-0.484333333333333,0.376166666666667,923.554,-0.800325,0.599675,-0.277925,-2.11185714285714,1.752,0.873,63.485,-0.1003,-0.003375,1.09055,-0.344285714285714,-0.935714285714286,-0.308571428571429,3.739,0.105775,-0.4803,0.891525,0.5185,0.4575,-0.061,768.822666666667,1,1,1,1
24-May-2018 12:33:41,244.6,0.06204,0.06782,1.0342,0.599833333333333,-0.484333333333333,0.376166666666667,923.554,-0.800325,0.599675,-0.277925,-2.11185714285714,1.752,0.873,63.485,-0.1003,-0.003375,1.09055,-0.344285714285714,-0.935714285714286,-0.308571428571429,3.739,0.105775,-0.4803,0.891525,0.5185,0.4575,-0.061,768.822666666667,1,1,1,1
24-May-2018 12:33:41,244.6,0.06204,0.06782,1.0342,0.599833333333333,-0.484333333333333,0.376166666666667,923.554,-0.800325,0.599675,-0.277925,-2.11185714285714,1.752,0.873,63.485,-0.1003,-0.003375,1.09055,-0.344285714285714,-0.935714285714286,-0.308571428571429,3.739,0.105775,-0.4803,0.891525,0.5185,0.4575,-0.061,768.822666666667,1,1,1,1
24-May-2018 12:33:41,244.6,0.06204,0.06782,1.0342,0.599833333333333,-0.484333333333333,0.376166666666667,923.554,-0.800325,0.599675,-0.277925,-2.11185714285714,1.752,0.873,63.485,-0.1003,-0.003375,1.09055,-0.344285714285714,-0.935714285714286,-0.308571428571429,3.739,0.105775,-0.4803,0.891525,0.5185,0.4575,-0.061,768.822666666667,1,1,1,1
24-May-2018 12:33:42,312,0.06204,0.06782,1.0342,1.463,4.939,0.732,924.917,-0.8013,0.5985,-0.2801,2.622,0.3985,-1.58,63.485,-0.0984,-0.0026,1.0924,-0.663333333333333,-1.03,-0.42,3.739,0.1064,-0.4802,0.8938,0.3965,0.427,-0.305,768.822666666667,0,1,1,0
24-May-2018 12:33:42,312,0.06204,0.06782,1.0342,1.463,4.939,0.732,924.917,-0.8013,0.5985,-0.2801,2.622,0.3985,-1.58,63.485,-0.0984,-0.0026,1.0924,-0.663333333333333,-1.03,-0.42,3.739,0.1064,-0.4802,0.8938,0.3965,0.427,-0.305,768.822666666667,0,1,1,0
24-May-2018 12:33:42,312,0.06204,0.06782,1.0342,1.463,4.939,0.732,924.917,-0.8013,0.5985,-0.2801,2.622,0.3985,-1.58,63.485,-0.0984,-0.0026,1.0924,-0.663333333333333,-1.03,-0.42,3.739,0.1064,-0.4802,0.8938,0.3965,0.427,-0.305,768.822666666667,0,1,1,0
24-May-2018 12:33:42,312,0,0,0,1.463,4.939,0.732,924.917,-0.8013,0.5985,-0.2801,2.622,0.3985,-1.58,63.485,-0.0984,-0.0026,1.0924,-0.663333333333333,-1.03,-0.42,0,0.1064,-0.4802,0.8938,0.3965,0.427,-0.305,0,0,1,1,0
24-May-2018 12:33:43,281.818181818182,0.0499166666666667,0.071,1.0331,0.2745,0.388,0.325333333333333,923.603166666667,-0.810266666666667,0.585133333333333,-0.281266666666667,2.256125,3.47575,0.543125,64.4355,-0.099525,-0.0028125,1.090675,-0.501666666666667,-0.871666666666667,-0.1415,3.74666666666667,0.10565,-0.4795,0.892125,0.313714285714286,0.392142857142857,-0.200428571428571,768.15775,0,1,1,0
24-May-2018 12:33:43,281.818181818182,0.0499166666666667,0.071,1.0331,0.2745,0.388,0.325333333333333,923.603166666667,-0.810266666666667,0.585133333333333,-0.281266666666667,2.256125,3.47575,0.543125,64.4355,-0.099525,-0.0028125,1.090675,-0.501666666666667,-0.871666666666667,-0.1415,3.74666666666667,0.10565,-0.4795,0.892125,0.313714285714286,0.392142857142857,-0.200428571428571,768.15775,0,1,1,0
24-May-2018 12:33:43,281.818181818182,0.0499166666666667,0.071,1.0331,0.2745,0.388,0.325333333333333,923.603166666667,-0.810266666666667,0.585133333333333,-0.281266666666667,2.256125,3.47575,0.543125,64.4355,-0.099525,-0.0028125,1.090675,-0.501666666666667,-0.871666666666667,-0.1415,3.74666666666667,0.10565,-0.4795,0.892125,0.313714285714286,0.392142857142857,-0.200428571428571,768.15775,0,1,1,0
24-May-2018 12:33:43,281.818181818182,0.0499166666666667,0.071,1.0331,0.2745,0.388,0.325333333333333,923.603166666667,-0.810266666666667,0.585133333333333,-0.281266666666667,2.256125,3.47575,0.543125,64.4355,-0.099525,-0.0028125,1.090675,-0.501666666666667,-0.871666666666667,-0.1415,3.74666666666667,0.10565,-0.4795,0.892125,0.313714285714286,0.392142857142857,-0.200428571428571,768.15775,0,1,1,0
24-May-2018 12:33:44,208,0.0587333333333333,0.0673833333333333,1.03485,0.7564,-0.375,0.3782,922.676333333333,-0.802,0.599525,-0.2802,0.779555555555556,-1.83144444444444,-0.0586666666666666,65.386,-0.0997333333333333,-0.00281111111111111,1.09022222222222,-0.554,-0.958,-0.204,3.733,0.1062125,-0.4794375,0.8916875,0.732,0.549,-0.10675,768.434666666667,1,1,1,0
24-May-2018 12:33:44,208,0.0587333333333333,0.0673833333333333,1.03485,0.7564,-0.375,0.3782,922.676333333333,-0.802,0.599525,-0.2802,0.779555555555556,-1.83144444444444,-0.0586666666666666,65.386,-0.0997333333333333,-0.00281111111111111,1.09022222222222,-0.554,-0.958,-0.204,3.733,0.1062125,-0.4794375,0.8916875,0.732,0.549,-0.10675,768.434666666667,1,1,1,0
24-May-2018 12:33:44,208,0.0587333333333333,0.0673833333333333,1.03485,0.7564,-0.375,0.3782,922.676333333333,-0.802,0.599525,-0.2802,0.779555555555556,-1.83144444444444,-0.0586666666666666,65.386,-0.0997333333333333,-0.00281111111111111,1.09022222222222,-0.554,-0.958,-0.204,3.733,0.1062125,-0.4794375,0.8916875,0.732,0.549,-0.10675,768.434666666667,1,1,1,0
24-May-2018 12:33:44,208,0.0587333333333333,0.0673833333333333,1.03485,0.7564,-0.375,0.3782,922.676333333333,-0.802,0.599525,-0.2802,0.779555555555556,-1.83144444444444,-0.0586666666666666,65.386,-0.0997333333333333,-0.00281111111111111,1.09022222222222,-0.554,-0.958,-0.204,3.733,0.1062125,-0.4794375,0.8916875,0.732,0.549,-0.10675,768.434666666667,1,1,1,0
24-May-2018 12:33:45,70.1428571428571,0.0395428571428571,0.0738571428571429,1.03291428571429,0.984571428571429,1.76985714285714,0.48,921.8945,-0.80994,0.5859,-0.28244,-0.171625,-0.210875,1.587875,64.9643333333333,-0.10014,-0.00238,1.09232,-0.697,-1.074,-0.4484,3.733,0.10485,-0.4788,0.89415,2.13375,-0.4115,-1.0215,767.221,1,1,1,0
24-May-2018 12:33:45,70.1428571428571,0.0395428571428571,0.0738571428571429,1.03291428571429,0.984571428571429,1.76985714285714,0.48,921.8945,-0.80994,0.5859,-0.28244,-0.171625,-0.210875,1.587875,64.9643333333333,-0.10014,-0.00238,1.09232,-0.697,-1.074,-0.4484,3.733,0.10485,-0.4788,0.89415,2.13375,-0.4115,-1.0215,767.221,1,1,1,0
24-May-2018 12:33:45,70.1428571428571,0.0395428571428571,0.0738571428571429,1.03291428571429,0.984571428571429,1.76985714285714,0.48,921.8945,-0.80994,0.5859,-0.28244,-0.171625,-0.210875,1.587875,64.9643333333333,-0.10014,-0.00238,1.09232,-0.697,-1.074,-0.4484,3.733,0.10485,-0.4788,0.89415,2.13375,-0.4115,-1.0215,767.221,1,1,1,0
24-May-2018 12:33:45,70.1428571428571,0.0395428571428571,0.0738571428571429,1.03291428571429,0.984571428571429,1.76985714285714,0.48,921.8945,-0.80994,0.5859,-0.28244,-0.171625,-0.210875,1.587875,64.9643333333333,-0.10014,-0.00238,1.09232,-0.697,-1.074,-0.4484,3.733,0.10485,-0.4788,0.89415,2.13375,-0.4115,-1.0215,767.221,1,1,1,0
24-May-2018 12:33:46,484.272727272727,0.03865,0.0734166666666667,1.03336666666667,0.91475,-1.42125,0.388875,921.134666666667,-0.80692,0.59304,-0.28066,1.654,2.35811111111111,-1.05266666666667,64.121,-0.100922222222222,-0.0018,1.08958888888889,-0.0435,-0.5445,-0.257,3.733,0.10448,-0.4949,0.88166,1.32625,0.5185,-0.183,760.113,0,1,1,0
24-May-2018 12:33:46,484.272727272727,0.03865,0.0734166666666667,1.03336666666667,0.91475,-1.42125,0.388875,921.134666666667,-0.80692,0.59304,-0.28066,1.654,2.35811111111111,-1.05266666666667,64.121,-0.100922222222222,-0.0018,1.08958888888889,-0.0435,-0.5445,-0.257,3.733,0.10448,-0.4949,0.88166,1.32625,0.5185,-0.183,760.113,0,1,1,0
24-May-2018 12:33:46,484.272727272727,0.03865,0.0734166666666667,1.03336666666667,0.91475,-1.42125,0.388875,921.134666666667,-0.80692,0.59304,-0.28066,1.654,2.35811111111111,-1.05266666666667,64.121,-0.100922222222222,-0.0018,1.08958888888889,-0.0435,-0.5445,-0.257,3.733,0.10448,-0.4949,0.88166,1.32625,0.5185,-0.183,760.113,0,1,1,0
24-May-2018 12:33:46,484.272727272727,0.03865,0.0734166666666667,1.03336666666667,0.91475,-1.42125,0.388875,921.134666666667,-0.80692,0.59304,-0.28066,1.654,2.35811111111111,-1.05266666666667,64.121,-0.100922222222222,-0.0018,1.08958888888889,-0.0435,-0.5445,-0.257,3.733,0.10448,-0.4949,0.88166,1.32625,0.5185,-0.183,760.113,0,1,1,0
24-May-2018 12:33:47,392.8,0.0466428571428571,0.0739,1.03528571428571,1.19916666666667,0.347333333333333,0.498166666666667,922.316,-0.80652,0.58832,-0.2805,-3.89333333333333,-2.26022222222222,2.351,64.121,-0.099425,-1.526775,1.089925,-0.898,-0.8112,-0.288,3.733,0.104328571428571,-0.492885714285714,0.8842,0.68575,0.47275,0.13725,760.828,1,1,1,0
24-May-2018 12:33:47,392.8,0.0466428571428571,0.0739,1.03528571428571,1.19916666666667,0.347333333333333,0.498166666666667,922.316,-0.80652,0.58832,-0.2805,-3.89333333333333,-2.26022222222222,2.351,64.121,-0.099425,-1.526775,1.089925,-0.898,-0.8112,-0.288,3.733,0.104328571428571,-0.492885714285714,0.8842,0.68575,0.47275,0.13725,760.828,1,1,1,0
24-May-2018 12:33:47,392.8,0.0466428571428571,0.0739,1.03528571428571,1.19916666666667,0.347333333333333,0.498166666666667,922.316,-0.80652,0.58832,-0.2805,-3.89333333333333,-2.26022222222222,2.351,64.121,-0.099425,-1.526775,1.089925,-0.898,-0.8112,-0.288,3.733,0.104328571428571,-0.492885714285714,0.8842,0.68575,0.47275,0.13725,760.828,1,1,1,0
24-May-2018 12:33:47,392.8,0.0466428571428571,0.0739,1.03528571428571,1.19916666666667,0.347333333333333,0.498166666666667,922.316,-0.80652,0.58832,-0.2805,-3.89333333333333,-2.26022222222222,2.351,64.121,-0.099425,-1.526775,1.089925,-0.898,-0.8112,-0.288,3.733,0.104328571428571,-0.492885714285714,0.8842,0.68575,0.47275,0.13725,760.828,1,1,1,0
24-May-2018 12:33:48,-25.9,0.0488857142857143,0.0720714285714286,1.03508571428571,0.331857142857143,0.899285714285714,0.418285714285714,922.316,-0.8011,0.5942,-0.278775,2.14833333333333,3.55033333333333,0.170333333333333,66.08375,-0.10038,-0.0067,1.0879,-0.515,-0.951,-0.29,3.733,0.106175,-0.503375,0.87535,1.71614285714286,-0.575,-0.27,761.273333333333,1,1,1,0
24-May-2018 12:33:48,-25.9,0.0488857142857143,0.0720714285714286,1.03508571428571,0.331857142857143,0.899285714285714,0.418285714285714,922.316,-0.8011,0.5942,-0.278775,2.14833333333333,3.55033333333333,0.170333333333333,66.08375,-0.10038,-0.0067,1.0879,-0.515,-0.951,-0.29,3.733,0.106175,-0.503375,0.87535,1.71614285714286,-0.575,-0.27,761.273333333333,1,1,1,0
24-May-2018 12:33:48,-25.9,0.0488857142857143,0.0720714285714286,1.03508571428571,0.331857142857143,0.899285714285714,0.418285714285714,922.316,-0.8011,0.5942,-0.278775,2.14833333333333,3.55033333333333,0.170333333333333,66.08375,-0.10038,-0.0067,1.0879,-0.515,-0.951,-0.29,3.733,0.106175,-0.503375,0.87535,1.71614285714286,-0.575,-0.27,761.273333333333,1,1,1,0
24-May-2018 12:33:48,-25.9,0.0488857142857143,0.0720714285714286,1.03508571428571,0.331857142857143,0.899285714285714,0.418285714285714,922.316,-0.8011,0.5942,-0.278775,2.14833333333333,3.55033333333333,0.170333333333333,66.08375,-0.10038,-0.0067,1.0879,-0.515,-0.951,-0.29,3.733,0.106175,-0.503375,0.87535,1.71614285714286,-0.575,-0.27,761.273333333333,1,1,1,0
24-May-2018 12:33:49,218.727272727273,0.0492333333333333,0.0745333333333333,1.0364,0.623555555555556,1.84355555555556,0.433888888888889,922.316,-0.80584,0.59546,-0.2812,2.81933333333333,1.79744444444444,1.79633333333333,66.738,-0.100128571428571,-0.00721428571428571,1.09092857142857,-0.5725,-1.17,-0.345,3.733,0.10386,-0.49578,0.88282,0.854,0.59475,-0.19825,760.95325,1,1,1,0
24-May-2018 12:33:49,218.727272727273,0.0492333333333333,0.0745333333333333,1.0364,0.623555555555556,1.84355555555556,0.433888888888889,922.316,-0.80584,0.59546,-0.2812,2.81933333333333,1.79744444444444,1.79633333333333,66.738,-0.100128571428571,-0.00721428571428571,1.09092857142857,-0.5725,-1.17,-0.345,3.733,0.10386,-0.49578,0.88282,0.854,0.59475,-0.19825,760.95325,1,1,1,0
24-May-2018 12:33:49,218.727272727273,0.0492333333333333,0.0745333333333333,1.0364,0.623555555555556,1.84355555555556,0.433888888888889,922.316,-0.80584,0.59546,-0.2812,2.81933333333333,1.79744444444444,1.79633333333333,66.738,-0.100128571428571,-0.00721428571428571,1.09092857142857,-0.5725,-1.17,-0.345,3.733,0.10386,-0.49578,0.88282,0.854,0.59475,-0.19825,760.95325,1,1,1,0
24-May-2018 12:33:49,218.727272727273,0.0492333333333333,0.0745333333333333,1.0364,0.623555555555556,1.84355555555556,0.433888888888889,922.316,-0.80584,0.59546,-0.2812,2.81933333333333,1.79744444444444,1.79633333333333,66.738,-0.100128571428571,-0.00721428571428571,1.09092857142857,-0.5725,-1.17,-0.345,3.733,0.10386,-0.49578,0.88282,0.854,0.59475,-0.19825,760.95325,1,1,1,0
24-May-2018 12:33:50,-119.8,0.0476,0.0720333333333333,1.03671111111111,0.540285714285714,-1.08371428571429,0.226571428571429,922.316,-0.7914,0.60382,-0.2785,-5.25955555555556,-10.7277777777778,5.27188888888889,66.738,-0.09938,-0.0072,1.09112,-0.40625,-0.82,-0.0365,3.727,0.104083333333333,-0.496433333333333,0.882566666666667,0.670833333333333,0.528666666666667,-0.0406666666666667,761.0115,1,1,1,0
24-May-2018 12:33:50,-119.8,0.0476,0.0720333333333333,1.03671111111111,0.540285714285714,-1.08371428571429,0.226571428571429,922.316,-0.7914,0.60382,-0.2785,-5.25955555555556,-10.7277777777778,5.27188888888889,66.738,-0.09938,-0.0072,1.09112,-0.40625,-0.82,-0.0365,3.727,0.104083333333333,-0.496433333333333,0.882566666666667,0.670833333333333,0.528666666666667,-0.0406666666666667,761.0115,1,1,1,0
24-May-2018 12:33:50,-119.8,0.0476,0.0720333333333333,1.03671111111111,0.540285714285714,-1.08371428571429,0.226571428571429,922.316,-0.7914,0.60382,-0.2785,-5.25955555555556,-10.7277777777778,5.27188888888889,66.738,-0.09938,-0.0072,1.09112,-0.40625,-0.82,-0.0365,3.727,0.104083333333333,-0.496433333333333,0.882566666666667,0.670833333333333,0.528666666666667,-0.0406666666666667,761.0115,1,1,1,0
24-May-2018 12:33:50,-119.8,0.0476,0.0720333333333333,1.03671111111111,0.540285714285714,-1.08371428571429,0.226571428571429,922.316,-0.7914,0.60382,-0.2785,-5.25955555555556,-10.7277777777778,5.27188888888889,66.738,-0.09938,-0.0072,1.09112,-0.40625,-0.82,-0.0365,3.727,0.104083333333333,-0.496433333333333,0.882566666666667,0.670833333333333,0.528666666666667,-0.0406666666666667,761.0115,1,1,1,0
24-May-2018 12:33:51,-265.8,0.0562833333333333,0.071,1.03621666666667,0.705857142857143,-0.00471428571428577,0.453142857142857,922.032,-0.788025,0.633375,-0.274375,6.89022222222222,8.15722222222222,2.24988888888889,66.806,-0.101066666666667,-0.00668333333333333,1.08995,-0.3975,-0.98,-0.38375,3.697,0.1043,-0.4973,0.88195,0.97575,0.61,-0.2135,760.066,1,1,1,0
24-May-2018 12:33:51,-265.8,0.0562833333333333,0.071,1.03621666666667,0.705857142857143,-0.00471428571428577,0.453142857142857,922.032,-0.788025,0.633375,-0.274375,6.89022222222222,8.15722222222222,2.24988888888889,66.806,-0.101066666666667,-0.00668333333333333,1.08995,-0.3975,-0.98,-0.38375,3.697,0.1043,-0.4973,0.88195,0.97575,0.61,-0.2135,760.066,1,1,1,0
24-May-2018 12:33:51,-265.8,0.0562833333333333,0.071,1.03621666666667,0.705857142857143,-0.00471428571428577,0.453142857142857,922.032,-0.788025,0.633375,-0.274375,6.89022222222222,8.15722222222222,2.24988888888889,66.806,-0.101066666666667,-0.00668333333333333,1.08995,-0.3975,-0.98,-0.38375,3.697,0.1043,-0.4973,0.88195,0.97575,0.61,-0.2135,760.066,1,1,1,0
24-May-2018 12:33:51,-265.8,0.0562833333333333,0.071,1.03621666666667,0.705857142857143,-0.00471428571428577,0.453142857142857,922.032,-0.788025,0.633375,-0.274375,6.89022222222222,8.15722222222222,2.24988888888889,66.806,-0.101066666666667,-0.00668333333333333,1.08995,-0.3975,-0.98,-0.38375,3.697,0.1043,-0.4973,0.88195,0.97575,0.61,-0.2135,760.066,1,1,1,0
24-May-2018 12:33:52,-116.272727272727,0.029325,0.075875,1.0317,0.935333333333333,2.84533333333333,0.508333333333333,921.543,-0.79045,0.6085,-0.278375,8.216375,13.344625,8.6725,66.806,-0.09755,-0.0074,1.091575,-0.496,-1.034,-0.456,3.727,0.10385,-0.4986,0.882425,0.284666666666667,0.345666666666667,-0.122,760.0365,0,1,1,0
24-May-2018 12:33:52,-116.272727272727,0.029325,0.075875,1.0317,0.935333333333333,2.84533333333333,0.508333333333333,921.543,-0.79045,0.6085,-0.278375,8.216375,13.344625,8.6725,66.806,-0.09755,-0.0074,1.091575,-0.496,-1.034,-0.456,3.727,0.10385,-0.4986,0.882425,0.284666666666667,0.345666666666667,-0.122,760.0365,0,1,1,0
24-May-2018 12:33:52,-116.272727272727,0.029325,0.075875,1.0317,0.935333333333333,2.84533333333333,0.508333333333333,921.543,-0.79045,0.6085,-0.278375,8.216375,13.344625,8.6725,66.806,-0.09755,-0.0074,1.091575,-0.496,-1.034,-0.456,3.727,0.10385,-0.4986,0.882425,0.284666666666667,0.345666666666667,-0.122,760.0365,0,1,1,0
24-May-2018 12:33:52,-116.272727272727,0.029325,0.075875,1.0317,0.935333333333333,2.84533333333333,0.508333333333333,921.543,-0.79045,0.6085,-0.278375,8.216375,13.344625,8.6725,66.806,-0.09755,-0.0074,1.091575,-0.496,-1.034,-0.456,3.727,0.10385,-0.4986,0.882425,0.284666666666667,0.345666666666667,-0.122,760.0365,0,1,1,0
24-May-2018 12:33:53,-292,0.0182,0.0762,1.02033333333333,0.3676,1.0122,0.4758,920.034,-0.79752,0.68362,-0.28222,-5.96111111111111,10.9658888888889,-3.864,66.806,-0.0978,-0.0082,1.09056666666667,-0.1045,-1.095,-0.13375,3.727,0.10488,-0.49614,0.8828,0.888571428571429,0.618571428571429,-0.226571428571429,761.259,0,1,1,0
24-May-2018 12:33:53,-292,0.0182,0.0762,1.02033333333333,0.3676,1.0122,0.4758,920.034,-0.79752,0.68362,-0.28222,-5.96111111111111,10.9658888888889,-3.864,66.806,-0.0978,-0.0082,1.09056666666667,-0.1045,-1.095,-0.13375,3.727,0.10488,-0.49614,0.8828,0.888571428571429,0.618571428571429,-0.226571428571429,761.259,0,1,1,0
24-May-2018 12:33:53,-292,0.0182,0.0762,1.02033333333333,0.3676,1.0122,0.4758,920.034,-0.79752,0.68362,-0.28222,-5.96111111111111,10.9658888888889,-3.864,66.806,-0.0978,-0.0082,1.09056666666667,-0.1045,-1.095,-0.13375,3.727,0.10488,-0.49614,0.8828,0.888571428571429,0.618571428571429,-0.226571428571429,761.259,0,1,1,0
24-May-2018 12:33:53,-292,0.0182,0.0762,1.02033333333333,0.3676,1.0122,0.4758,920.034,-0.79752,0.68362,-0.28222,-5.96111111111111,10.9658888888889,-3.864,66.806,-0.0978,-0.0082,1.09056666666667,-0.1045,-1.095,-0.13375,3.727,0.10488,-0.49614,0.8828,0.888571428571429,0.618571428571429,-0.226571428571429,761.259,0,1,1,0
24-May-2018 12:33:54,3.6,0.031725,0.074525,1.036175,0.59475,-1.29,0.305,920.071333333333,-0.8329,0.620325,-0.289825,-18.3744444444444,17.4083333333333,-49.1777777777778,77.17025,-0.1012,-0.00696666666666667,1.08916666666667,-0.626666666666667,-0.898333333333333,-0.0795,3.76,0.10462,-0.49588,0.88188,0.305,0.366,-0.142333333333333,760.9225,0,1,1,0
24-May-2018 12:33:54,3.6,0.031725,0.074525,1.036175,0.59475,-1.29,0.305,920.071333333333,-0.8329,0.620325,-0.289825,-18.3744444444444,17.4083333333333,-49.1777777777778,77.17025,-0.1012,-0.00696666666666667,1.08916666666667,-0.626666666666667,-0.898333333333333,-0.0795,3.76,0.10462,-0.49588,0.88188,0.305,0.366,-0.142333333333333,760.9225,0,1,1,0
24-May-2018 12:33:54,3.6,0.031725,0.074525,1.036175,0.59475,-1.29,0.305,920.071333333333,-0.8329,0.620325,-0.289825,-18.3744444444444,17.4083333333333,-49.1777777777778,77.17025,-0.1012,-0.00696666666666667,1.08916666666667,-0.626666666666667,-0.898333333333333,-0.0795,3.76,0.10462,-0.49588,0.88188,0.305,0.366,-0.142333333333333,760.9225,0,1,1,0
24-May-2018 12:33:54,3.6,0.031725,0.074525,1.036175,0.59475,-1.29,0.305,920.071333333333,-0.8329,0.620325,-0.289825,-18.3744444444444,17.4083333333333,-49.1777777777778,77.17025,-0.1012,-0.00696666666666667,1.08916666666667,-0.626666666666667,-0.898333333333333,-0.0795,3.76,0.10462,-0.49588,0.88188,0.305,0.366,-0.142333333333333,760.9225,0,1,1,0
24-May-2018 12:33:55,-160.571428571429,0.04754,0.07098,1.03582,0.4514,-0.3982,0.3416,921.23825,-0.961675,0.406275,-0.335825,-15.5741111111111,6.93555555555556,-144.611111111111,80.625,-0.09882,-0.00818,1.09036,-0.575,-0.778333333333333,-0.109833333333333,3.739,0.10528,-0.49714,0.88246,0.549,0.4148,-0.1952,760.158,1,1,1,1
24-May-2018 12:33:55,-160.571428571429,0.04754,0.07098,1.03582,0.4514,-0.3982,0.3416,921.23825,-0.961675,0.406275,-0.335825,-15.5741111111111,6.93555555555556,-144.611111111111,80.625,-0.09882,-0.00818,1.09036,-0.575,-0.778333333333333,-0.109833333333333,3.739,0.10528,-0.49714,0.88246,0.549,0.4148,-0.1952,760.158,1,1,1,1
24-May-2018 12:33:55,-160.571428571429,0.04754,0.07098,1.03582,0.4514,-0.3982,0.3416,921.23825,-0.961675,0.406275,-0.335825,-15.5741111111111,6.93555555555556,-144.611111111111,80.625,-0.09882,-0.00818,1.09036,-0.575,-0.778333333333333,-0.109833333333333,3.739,0.10528,-0.49714,0.88246,0.549,0.4148,-0.1952,760.158,1,1,1,1
24-May-2018 12:33:55,-160.571428571429,0.04754,0.07098,1.03582,0.4514,-0.3982,0.3416,921.23825,-0.961675,0.406275,-0.335825,-15.5741111111111,6.93555555555556,-144.611111111111,80.625,-0.09882,-0.00818,1.09036,-0.575,-0.778333333333333,-0.109833333333333,3.739,0.10528,-0.49714,0.88246,0.549,0.4148,-0.1952,760.158,1,1,1,1
24-May-2018 12:33:56,178.777777777778,0.05465,0.06975,1.03216666666667,0.671,-0.649,0.284666666666667,922.270666666667,-0.89202,-0.10008,-0.45818,-22.565,42.07375,-100.4625,80.625,-0.0993142857142857,-0.00774285714285714,1.09028571428571,-0.455,-1,-0.345,3.739,0.103933333333333,-0.495766666666667,0.882483333333333,0.528666666666667,0.467666666666667,-0.142333333333333,760.28575,1,1,1,1
24-May-2018 12:33:56,178.777777777778,0.05465,0.06975,1.03216666666667,0.671,-0.649,0.284666666666667,922.270666666667,-0.89202,-0.10008,-0.45818,-22.565,42.07375,-100.4625,80.625,-0.0993142857142857,-0.00774285714285714,1.09028571428571,-0.455,-1,-0.345,3.739,0.103933333333333,-0.495766666666667,0.882483333333333,0.528666666666667,0.467666666666667,-0.142333333333333,760.28575,1,1,1,1
24-May-2018 12:33:56,178.777777777778,0.05465,0.06975,1.03216666666667,0.671,-0.649,0.284666666666667,922.270666666667,-0.89202,-0.10008,-0.45818,-22.565,42.07375,-100.4625,80.625,-0.0993142857142857,-0.00774285714285714,1.09028571428571,-0.455,-1,-0.345,3.739,0.103933333333333,-0.495766666666667,0.882483333333333,0.528666666666667,0.467666666666667,-0.142333333333333,760.28575,1,1,1,1
24-May-2018 12:33:56,178.777777777778,0.05465,0.06975,1.03216666666667,0.671,-0.649,0.284666666666667,922.270666666667,-0.89202,-0.10008,-0.45818,-22.565,42.07375,-100.4625,80.625,-0.0993142857142857,-0.00774285714285714,1.09028571428571,-0.455,-1,-0.345,3.739,0.103933333333333,-0.495766666666667,0.882483333333333,0.528666666666667,0.467666666666667,-0.142333333333333,760.28575,1,1,1,1
24-May-2018 12:33:57,293.444444444444,0.04744,0.07156,1.03778,0.569333333333333,1.80883333333333,0.426833333333333,921.296,-0.825225,-0.1857,-0.5043,13.596,26.1248,-25.664,100.227,-0.098325,-0.00805,1.08885,-0.453,-1.0175,-0.499875,3.739,0.104566666666667,-0.4951,0.8834,0.5002,0.4026,-0.2318,759.46,1,1,1,1
24-May-2018 12:33:57,293.444444444444,0.04744,0.07156,1.03778,0.569333333333333,1.80883333333333,0.426833333333333,921.296,-0.825225,-0.1857,-0.5043,13.596,26.1248,-25.664,100.227,-0.098325,-0.00805,1.08885,-0.453,-1.0175,-0.499875,3.739,0.104566666666667,-0.4951,0.8834,0.5002,0.4026,-0.2318,759.46,1,1,1,1
24-May-2018 12:33:57,293.444444444444,0.04744,0.07156,1.03778,0.569333333333333,1.80883333333333,0.426833333333333,921.296,-0.825225,-0.1857,-0.5043,13.596,26.1248,-25.664,100.227,-0.098325,-0.00805,1.08885,-0.453,-1.0175,-0.499875,3.739,0.104566666666667,-0.4951,0.8834,0.5002,0.4026,-0.2318,759.46,1,1,1,1
24-May-2018 12:33:57,293.444444444444,0.04744,0.07156,1.03778,0.569333333333333,1.80883333333333,0.426833333333333,921.296,-0.825225,-0.1857,-0.5043,13.596,26.1248,-25.664,100.227,-0.098325,-0.00805,1.08885,-0.453,-1.0175,-0.499875,3.739,0.104566666666667,-0.4951,0.8834,0.5002,0.4026,-0.2318,759.46,1,1,1,1
24-May-2018 12:33:58,169.6,0.03982,0.07148,1.0347,0.144,-0.282166666666667,0.234,921.296,-0.79815,-0.19745,-0.54365,25.1175,24.02125,-1.728375,100.227,-0.1009,-0.0077,1.0907,-0.29,-0.788333333333333,-0.0271666666666667,3.75,0.1055375,-0.497375,0.880925,0.3416,0.3904,-0.2806,759.094333333333,0,1,1,1
24-May-2018 12:33:58,169.6,0.03982,0.07148,1.0347,0.144,-0.282166666666667,0.234,921.296,-0.79815,-0.19745,-0.54365,25.1175,24.02125,-1.728375,100.227,-0.1009,-0.0077,1.0907,-0.29,-0.788333333333333,-0.0271666666666667,3.75,0.1055375,-0.497375,0.880925,0.3416,0.3904,-0.2806,759.094333333333,0,1,1,1
24-May-2018 12:33:58,169.6,0.03982,0.07148,1.0347,0.144,-0.282166666666667,0.234,921.296,-0.79815,-0.19745,-0.54365,25.1175,24.02125,-1.728375,100.227,-0.1009,-0.0077,1.0907,-0.29,-0.788333333333333,-0.0271666666666667,3.75,0.1055375,-0.497375,0.880925,0.3416,0.3904,-0.2806,759.094333333333,0,1,1,1
24-May-2018 12:33:58,169.6,0.03982,0.07148,1.0347,0.144,-0.282166666666667,0.234,921.296,-0.79815,-0.19745,-0.54365,25.1175,24.02125,-1.728375,100.227,-0.1009,-0.0077,1.0907,-0.29,-0.788333333333333,-0.0271666666666667,3.75,0.1055375,-0.497375,0.880925,0.3416,0.3904,-0.2806,759.094333333333,0,1,1,1
24-May-2018 12:33:59,-13.1666666666667,0.0491666666666667,0.0701,1.03933333333333,0.819142857142857,0.671,0.418285714285714,921.296,-0.79128,-0.2419,-0.58508,5.13611111111111,1.04477777777778,26.1618888888889,106.120333333333,-0.10046,-0.00738,1.09042,-0.624285714285714,-1.02428571428571,-0.274142857142857,3.7205,0.103614285714286,-0.496371428571429,0.882171428571429,0.620166666666667,0.488,-0.061,759.6485,0,1,1,1
24-May-2018 12:33:59,-13.1666666666667,0.0491666666666667,0.0701,1.03933333333333,0.819142857142857,0.671,0.418285714285714,921.296,-0.79128,-0.2419,-0.58508,5.13611111111111,1.04477777777778,26.1618888888889,106.120333333333,-0.10046,-0.00738,1.09042,-0.624285714285714,-1.02428571428571,-0.274142857142857,3.7205,0.103614285714286,-0.496371428571429,0.882171428571429,0.620166666666667,0.488,-0.061,759.6485,0,1,1,1
24-May-2018 12:33:59,-13.1666666666667,0.0491666666666667,0.0701,1.03933333333333,0.819142857142857,0.671,0.418285714285714,921.296,-0.79128,-0.2419,-0.58508,5.13611111111111,1.04477777777778,26.1618888888889,106.120333333333,-0.10046,-0.00738,1.09042,-0.624285714285714,-1.02428571428571,-0.274142857142857,3.7205,0.103614285714286,-0.496371428571429,0.882171428571429,0.620166666666667,0.488,-0.061,759.6485,0,1,1,1
24-May-2018 12:33:59,-13.1666666666667,0.0491666666666667,0.0701,1.03933333333333,0.819142857142857,0.671,0.418285714285714,921.296,-0.79128,-0.2419,-0.58508,5.13611111111111,1.04477777777778,26.1618888888889,106.120333333333,-0.10046,-0.00738,1.09042,-0.624285714285714,-1.02428571428571,-0.274142857142857,3.7205,0.103614285714286,-0.496371428571429,0.882171428571429,0.620166666666667,0.488,-0.061,759.6485,0,1,1,1
24-May-2018 12:34:00,36.8333333333333,0.04518,0.07265,1.03303,0.714428571428572,0.749285714285714,0.488,921.296,-0.86188,-0.11064,-0.52884,6.02875,-20.8,25.244375,117.907,-0.0994,-0.00793333333333333,1.09045,-0.43125,-0.9275,-0.33,3.685,0.104928571428571,-0.496714285714286,0.882557142857143,0.705857142857143,0.540285714285714,-0.183,759.206,0,1,1,0
24-May-2018 12:34:00,36.8333333333333,0.04518,0.07265,1.03303,0.714428571428572,0.749285714285714,0.488,921.296,-0.86188,-0.11064,-0.52884,6.02875,-20.8,25.244375,117.907,-0.0994,-0.00793333333333333,1.09045,-0.43125,-0.9275,-0.33,3.685,0.104928571428571,-0.496714285714286,0.882557142857143,0.705857142857143,0.540285714285714,-0.183,759.206,0,1,1,0
24-May-2018 12:34:00,36.8333333333333,0.04518,0.07265,1.03303,0.714428571428572,0.749285714285714,0.488,921.296,-0.86188,-0.11064,-0.52884,6.02875,-20.8,25.244375,117.907,-0.0994,-0.00793333333333333,1.09045,-0.43125,-0.9275,-0.33,3.685,0.104928571428571,-0.496714285714286,0.882557142857143,0.705857142857143,0.540285714285714,-0.183,759.206,0,1,1,0
24-May-2018 12:34:00,36.8333333333333,0.04518,0.07265,1.03303,0.714428571428572,0.749285714285714,0.488,921.296,-0.86188,-0.11064,-0.52884,6.02875,-20.8,25.244375,117.907,-0.0994,-0.00793333333333333,1.09045,-0.43125,-0.9275,-0.33,3.685,0.104928571428571,-0.496714285714286,0.882557142857143,0.705857142857143,0.540285714285714,-0.183,759.206,0,1,1,0
24-May-2018 12:34:01,81.7777777777778,0.04074,0.07608,1.03564,0.854,-0.66625,0.19825,918.672,-0.89466,-1.29292,-0.5215,-6.23344444444445,14.7388888888889,7.75633333333333,73.939,-0.0983,-0.0081625,1.0904875,-0.665,-0.94,-0.3,3.7,0.10384,-0.49602,0.88358,0.5185,0.47275,-0.183,759.504666666667,0,1,1,0
24-May-2018 12:34:01,81.7777777777778,0.04074,0.07608,1.03564,0.854,-0.66625,0.19825,918.672,-0.89466,-1.29292,-0.5215,-6.23344444444445,14.7388888888889,7.75633333333333,73.939,-0.0983,-0.0081625,1.0904875,-0.665,-0.94,-0.3,3.7,0.10384,-0.49602,0.88358,0.5185,0.47275,-0.183,759.504666666667,0,1,1,0
24-May-2018 12:34:01,81.7777777777778,0.04074,0.07608,1.03564,0.854,-0.66625,0.19825,918.672,-0.89466,-1.29292,-0.5215,-6.23344444444445,14.7388888888889,7.75633333333333,73.939,-0.0983,-0.0081625,1.0904875,-0.665,-0.94,-0.3,3.7,0.10384,-0.49602,0.88358,0.5185,0.47275,-0.183,759.504666666667,0,1,1,0
24-May-2018 12:34:01,81.7777777777778,0.04074,0.07608,1.03564,0.854,-0.66625,0.19825,918.672,-0.89466,-1.29292,-0.5215,-6.23344444444445,14.7388888888889,7.75633333333333,73.939,-0.0983,-0.0081625,1.0904875,-0.665,-0.94,-0.3,3.7,0.10384,-0.49602,0.88358,0.5185,0.47275,-0.183,759.504666666667,0,1,1,0
24-May-2018 12:34:02,-91.1,0.032325,0.07445,1.035925,0.35075,1.0675,0.4575,917.8355,-0.93175,-0.03315,-0.455175,7.52611111111111,-1.20211111111111,-1.87588888888889,51.955,-0.0991666666666667,-0.00806666666666667,1.09128333333333,-0.542,-0.702,0.0734,3.691,0.10355,-0.496225,0.88245,0.77775,0.53375,-0.1525,759.726,0,1,1,1
24-May-2018 12:34:02,-91.1,0.032325,0.07445,1.035925,0.35075,1.0675,0.4575,917.8355,-0.93175,-0.03315,-0.455175,7.52611111111111,-1.20211111111111,-1.87588888888889,51.955,-0.0991666666666667,-0.00806666666666667,1.09128333333333,-0.542,-0.702,0.0734,3.691,0.10355,-0.496225,0.88245,0.77775,0.53375,-0.1525,759.726,0,1,1,1
24-May-2018 12:34:02,-91.1,0.032325,0.07445,1.035925,0.35075,1.0675,0.4575,917.8355,-0.93175,-0.03315,-0.455175,7.52611111111111,-1.20211111111111,-1.87588888888889,51.955,-0.0991666666666667,-0.00806666666666667,1.09128333333333,-0.542,-0.702,0.0734,3.691,0.10355,-0.496225,0.88245,0.77775,0.53375,-0.1525,759.726,0,1,1,1
24-May-2018 12:34:02,-91.1,0.032325,0.07445,1.035925,0.35075,1.0675,0.4575,917.8355,-0.93175,-0.03315,-0.455175,7.52611111111111,-1.20211111111111,-1.87588888888889,51.955,-0.0991666666666667,-0.00806666666666667,1.09128333333333,-0.542,-0.702,0.0734,3.691,0.10355,-0.496225,0.88245,0.77775,0.53375,-0.1525,759.726,0,1,1,1
24-May-2018 12:34:03,-22,0.0545,0.073975,1.034675,0.853666666666667,-1.0225,0.2745,918.5316,-0.886325,-0.042825,-0.534475,-3.22133333333333,37.3734444444444,-4.02977777777778,51.955,-0.100516666666667,-0.00683333333333333,1.08966666666667,-0.336,-0.97,-0.266,3.744,0.102225,-0.4974,0.886875,0.366,0.488,-0.061,760.164,0,1,1,0
24-May-2018 12:34:03,-22,0.0545,0.073975,1.034675,0.853666666666667,-1.0225,0.2745,918.5316,-0.886325,-0.042825,-0.534475,-3.22133333333333,37.3734444444444,-4.02977777777778,51.955,-0.100516666666667,-0.00683333333333333,1.08966666666667,-0.336,-0.97,-0.266,3.744,0.102225,-0.4974,0.886875,0.366,0.488,-0.061,760.164,0,1,1,0
24-May-2018 12:34:03,-22,0.0545,0.073975,1.034675,0.853666666666667,-1.0225,0.2745,918.5316,-0.886325,-0.042825,-0.534475,-3.22133333333333,37.3734444444444,-4.02977777777778,51.955,-0.100516666666667,-0.00683333333333333,1.08966666666667,-0.336,-0.97,-0.266,3.744,0.102225,-0.4974,0.886875,0.366,0.488,-0.061,760.164,0,1,1,0
24-May-2018 12:34:03,-22,0.0545,0.073975,1.034675,0.853666666666667,-1.0225,0.2745,918.5316,-0.886325,-0.042825,-0.534475,-3.22133333333333,37.3734444444444,-4.02977777777778,51.955,-0.100516666666667,-0.00683333333333333,1.08966666666667,-0.336,-0.97,-0.266,3.744,0.102225,-0.4974,0.886875,0.366,0.488,-0.061,760.164,0,1,1,0
24-May-2018 12:34:04,198.2,0.045075,0.0745,1.034575,0.80825,0.93,0.427,919.9382,-0.8884,-0.00894,-0.53724,-31.704,-33.502,-2.2135,60.82,-0.0985857142857143,-0.00742857142857143,1.09078571428571,-0.422,-0.97,-0.444,3.744,0.0977,-0.4797,0.8791,0.5185,0.498166666666667,-0.244,761.2695,0,1,1,0
24-May-2018 12:34:04,198.2,0.045075,0.0745,1.034575,0.80825,0.93,0.427,919.9382,-0.8884,-0.00894,-0.53724,-31.704,-33.502,-2.2135,60.82,-0.0985857142857143,-0.00742857142857143,1.09078571428571,-0.422,-0.97,-0.444,3.744,0.0977,-0.4797,0.8791,0.5185,0.498166666666667,-0.244,761.2695,0,1,1,0
24-May-2018 12:34:04,198.2,0.045075,0.0745,1.034575,0.80825,0.93,0.427,919.9382,-0.8884,-0.00894,-0.53724,-31.704,-33.502,-2.2135,60.82,-0.0985857142857143,-0.00742857142857143,1.09078571428571,-0.422,-0.97,-0.444,3.744,0.0977,-0.4797,0.8791,0.5185,0.498166666666667,-0.244,761.2695,0,1,1,0
24-May-2018 12:34:04,198.2,0.045075,0.0745,1.034575,0.80825,0.93,0.427,919.9382,-0.8884,-0.00894,-0.53724,-31.704,-33.502,-2.2135,60.82,-0.0985857142857143,-0.00742857142857143,1.09078571428571,-0.422,-0.97,-0.444,3.744,0.0977,-0.4797,0.8791,0.5185,0.498166666666667,-0.244,761.2695,0,1,1,0
24-May-2018 12:34:05,-121.6,0.0365571428571429,0.0730428571428571,1.03348571428571,0.406666666666667,-0.303333333333333,0.203333333333333,918.169666666667,-0.8716,-0.0794,-0.57278,21.33125,30.527375,-27.125,60.82,-0.0983,-0.008,1.09078,-0.458,-0.752,0.0614,3.744,0.102766666666667,-0.494666666666667,0.883816666666667,0.4514,0.4148,-0.183,761.2695,0,1,1,0
24-May-2018 12:34:05,-121.6,0.0365571428571429,0.0730428571428571,1.03348571428571,0.406666666666667,-0.303333333333333,0.203333333333333,918.169666666667,-0.8716,-0.0794,-0.57278,21.33125,30.527375,-27.125,60.82,-0.0983,-0.008,1.09078,-0.458,-0.752,0.0614,3.744,0.102766666666667,-0.494666666666667,0.883816666666667,0.4514,0.4148,-0.183,761.2695,0,1,1,0
24-May-2018 12:34:05,-121.6,0.0365571428571429,0.0730428571428571,1.03348571428571,0.406666666666667,-0.303333333333333,0.203333333333333,918.169666666667,-0.8716,-0.0794,-0.57278,21.33125,30.527375,-27.125,60.82,-0.0983,-0.008,1.09078,-0.458,-0.752,0.0614,3.744,0.102766666666667,-0.494666666666667,0.883816666666667,0.4514,0.4148,-0.183,761.2695,0,1,1,0
24-May-2018 12:34:05,-121.6,0.0365571428571429,0.0730428571428571,1.03348571428571,0.406666666666667,-0.303333333333333,0.203333333333333,918.169666666667,-0.8716,-0.0794,-0.57278,21.33125,30.527375,-27.125,60.82,-0.0983,-0.008,1.09078,-0.458,-0.752,0.0614,0,0.102766666666667,-0.494666666666667,0.883816666666667,0.4514,0.4148,-0.183,0,0,1,1,0
24-May-2018 12:34:06,-69.625,0.05372,0.0732,1.03166,0.5856,-1.02,0.3416,919.2915,-0.8242,-0.1889,-0.58205,5.69822222222222,-10.7361111111111,-14.7333333333333,64.03125,-0.1008,-0.00802,1.09058,-0.393333333333333,-0.828333333333333,-0.2,3.739,0.10342,-0.49568,0.88348,0.3904,0.366,-0.1952,759.545333333333,0,1,1,0
24-May-2018 12:34:06,-69.625,0.05372,0.0732,1.03166,0.5856,-1.02,0.3416,919.2915,-0.8242,-0.1889,-0.58205,5.69822222222222,-10.7361111111111,-14.7333333333333,64.03125,-0.1008,-0.00802,1.09058,-0.393333333333333,-0.828333333333333,-0.2,3.739,0.10342,-0.49568,0.88348,0.3904,0.366,-0.1952,759.545333333333,0,1,1,0
24-May-2018 12:34:06,-69.625,0.05372,0.0732,1.03166,0.5856,-1.02,0.3416,919.2915,-0.8242,-0.1889,-0.58205,5.69822222222222,-10.7361111111111,-14.7333333333333,64.03125,-0.1008,-0.00802,1.09058,-0.393333333333333,-0.828333333333333,-0.2,3.739,0.10342,-0.49568,0.88348,0.3904,0.366,-0.1952,759.545333333333,0,1,1,0
24-May-2018 12:34:06,-69.625,0.05372,0.0732,1.03166,0.5856,-1.02,0.3416,919.2915,-0.8242,-0.1889,-0.58205,5.69822222222222,-10.7361111111111,-14.7333333333333,64.03125,-0.1008,-0.00802,1.09058,-0.393333333333333,-0.828333333333333,-0.2,3.739,0.10342,-0.49568,0.88348,0.3904,0.366,-0.1952,759.545333333333,0,1,1,0
24-May-2018 12:34:07,13.4545454545455,0.0546,0.0728666666666667,1.03336666666667,0.813166666666667,-0.8735,0.315333333333333,919.7962,-0.83964,-0.2118,-0.5701,-0.262444444444444,-1.66977777777778,-2.17755555555556,73.665,-0.0994125,-0.0079625,1.090975,-0.441428571428571,-1.03285714285714,-0.472857142857143,3.739,0.10252,-0.4949,0.88334,0.5856,0.5246,-0.1342,760.336,0,1,1,0
24-May-2018 12:34:07,13.4545454545455,0.0546,0.0728666666666667,1.03336666666667,0.813166666666667,-0.8735,0.315333333333333,919.7962,-0.83964,-0.2118,-0.5701,-0.262444444444444,-1.66977777777778,-2.17755555555556,73.665,-0.0994125,-0.0079625,1.090975,-0.441428571428571,-1.03285714285714,-0.472857142857143,3.739,0.10252,-0.4949,0.88334,0.5856,0.5246,-0.1342,760.336,0,1,1,0
24-May-2018 12:34:07,13.4545454545455,0.0546,0.0728666666666667,1.03336666666667,0.813166666666667,-0.8735,0.315333333333333,919.7962,-0.83964,-0.2118,-0.5701,-0.262444444444444,-1.66977777777778,-2.17755555555556,73.665,-0.0994125,-0.0079625,1.090975,-0.441428571428571,-1.03285714285714,-0.472857142857143,3.739,0.10252,-0.4949,0.88334,0.5856,0.5246,-0.1342,760.336,0,1,1,0
24-May-2018 12:34:07,13.4545454545455,0.0546,0.0728666666666667,1.03336666666667,0.813166666666667,-0.8735,0.315333333333333,919.7962,-0.83964,-0.2118,-0.5701,-0.262444444444444,-1.66977777777778,-2.17755555555556,73.665,-0.0994125,-0.0079625,1.090975,-0.441428571428571,-1.03285714285714,-0.472857142857143,3.739,0.10252,-0.4949,0.88334,0.5856,0.5246,-0.1342,760.336,0,1,1,0
24-May-2018 12:34:08,-151.2,0.0465125,0.072475,1.032175,0.418571428571429,-1.87714285714286,0.113285714285714,919.7962,-0.83772,-0.1914,-0.5636,-5.762,-3.05911111111111,4.26166666666667,73.665,-0.100057142857143,-0.00767142857142857,1.09074285714286,-0.535,-0.9,0.0211666666666667,3.739,0.102833333333333,-0.495133333333333,0.882866666666667,0.5246,0.427,-0.122,760.81525,0,1,1,0
24-May-2018 12:34:08,-151.2,0.0465125,0.072475,1.032175,0.418571428571429,-1.87714285714286,0.113285714285714,919.7962,-0.83772,-0.1914,-0.5636,-5.762,-3.05911111111111,4.26166666666667,73.665,-0.100057142857143,-0.00767142857142857,1.09074285714286,-0.535,-0.9,0.0211666666666667,3.739,0.102833333333333,-0.495133333333333,0.882866666666667,0.5246,0.427,-0.122,760.81525,0,1,1,0
24-May-2018 12:34:08,-151.2,0.0465125,0.072475,1.032175,0.418571428571429,-1.87714285714286,0.113285714285714,919.7962,-0.83772,-0.1914,-0.5636,-5.762,-3.05911111111111,4.26166666666667,73.665,-0.100057142857143,-0.00767142857142857,1.09074285714286,-0.535,-0.9,0.0211666666666667,3.739,0.102833333333333,-0.495133333333333,0.882866666666667,0.5246,0.427,-0.122,760.81525,0,1,1,0
24-May-2018 12:34:08,-151.2,0.0465125,0.072475,1.032175,0.418571428571429,-1.87714285714286,0.113285714285714,919.7962,-0.83772,-0.1914,-0.5636,-5.762,-3.05911111111111,4.26166666666667,73.665,-0.100057142857143,-0.00767142857142857,1.09074285714286,-0.535,-0.9,0.0211666666666667,3.739,0.102833333333333,-0.495133333333333,0.882866666666667,0.5246,0.427,-0.122,760.81525,0,1,1,0
24-May-2018 12:34:09,29.6666666666667,0.0594875,0.0694,1.0346375,0.640375,-0.270875,0.358375,919.7962,-0.851725,-0.174325,-0.5703,-4.62555555555556,-3.16666666666667,3.12344444444444,73.665,-0.10034,-0.00806,1.09046,-0.532,-0.97,-0.3,3.739,0.104,-0.497933333333333,0.881433333333333,0.3355,0.38125,-0.13725,759.366,0,1,1,0
24-May-2018 12:34:09,29.6666666666667,0.0594875,0.0694,1.0346375,0.640375,-0.270875,0.358375,919.7962,-0.851725,-0.174325,-0.5703,-4.62555555555556,-3.16666666666667,3.12344444444444,73.665,-0.10034,-0.00806,1.09046,-0.532,-0.97,-0.3,3.739,0.104,-0.497933333333333,0.881433333333333,0.3355,0.38125,-0.13725,759.366,0,1,1,0
24-May-2018 12:34:09,29.6666666666667,0.0594875,0.0694,1.0346375,0.640375,-0.270875,0.358375,919.7962,-0.851725,-0.174325,-0.5703,-4.62555555555556,-3.16666666666667,3.12344444444444,73.665,-0.10034,-0.00806,1.09046,-0.532,-0.97,-0.3,3.739,0.104,-0.497933333333333,0.881433333333333,0.3355,0.38125,-0.13725,759.366,0,1,1,0
24-May-2018 12:34:09,29.6666666666667,0.0594875,0.0694,1.0346375,0.640375,-0.270875,0.358375,919.7962,-0.851725,-0.174325,-0.5703,-4.62555555555556,-3.16666666666667,3.12344444444444,73.665,-0.10034,-0.00806,1.09046,-0.532,-0.97,-0.3,3.739,0.104,-0.497933333333333,0.881433333333333,0.3355,0.38125,-0.13725,759.366,0,1,1,0
24-May-2018 12:34:10,-19.125,0.0565833333333333,0.0717666666666667,1.03783333333333,0.897285714285714,1.83871428571429,0.514142857142857,919.7962,-0.84725,-0.165125,-0.5609,2.69722222222222,-4.333,0.0756666666666666,84.149,-0.098,-0.00885,1.09105,-0.688333333333333,-1.03,-0.361666666666667,3.762,0.102814285714286,-0.495871428571429,0.883114285714286,0.7928,0.6344,-0.1342,759.87,1,1,1,1
24-May-2018 12:34:10,-19.125,0.0565833333333333,0.0717666666666667,1.03783333333333,0.897285714285714,1.83871428571429,0.514142857142857,919.7962,-0.84725,-0.165125,-0.5609,2.69722222222222,-4.333,0.0756666666666666,84.149,-0.098,-0.00885,1.09105,-0.688333333333333,-1.03,-0.361666666666667,3.762,0.102814285714286,-0.495871428571429,0.883114285714286,0.7928,0.6344,-0.1342,759.87,1,1,1,1
24-May-2018 12:34:10,-19.125,0.0565833333333333,0.0717666666666667,1.03783333333333,0.897285714285714,1.83871428571429,0.514142857142857,919.7962,-0.84725,-0.165125,-0.5609,2.69722222222222,-4.333,0.0756666666666666,84.149,-0.098,-0.00885,1.09105,-0.688333333333333,-1.03,-0.361666666666667,3.762,0.102814285714286,-0.495871428571429,0.883114285714286,0.7928,0.6344,-0.1342,759.87,1,1,1,1
24-May-2018 12:34:10,-19.125,0.0565833333333333,0.0717666666666667,1.03783333333333,0.897285714285714,1.83871428571429,0.514142857142857,919.7962,-0.84725,-0.165125,-0.5609,2.69722222222222,-4.333,0.0756666666666666,84.149,-0.098,-0.00885,1.09105,-0.688333333333333,-1.03,-0.361666666666667,3.762,0.102814285714286,-0.495871428571429,0.883114285714286,0.7928,0.6344,-0.1342,759.87,1,1,1,1
24-May-2018 12:34:11,131.6,0.0476833333333333,0.0700166666666667,1.03636666666667,0.1102,-0.896,0.1708,919.7962,-0.85372,-0.17694,-0.54668,6.937,-4.38366666666667,4.28888888888889,84.149,-0.100514285714286,-0.00792857142857143,1.08972857142857,-0.523333333333333,-0.93,-0.18,3.744,0.102883333333333,-0.495566666666667,0.88305,0.357285714285714,0.348571428571429,-0.156857142857143,760.9395,1,1,1,0
24-May-2018 12:34:11,131.6,0.0476833333333333,0.0700166666666667,1.03636666666667,0.1102,-0.896,0.1708,919.7962,-0.85372,-0.17694,-0.54668,6.937,-4.38366666666667,4.28888888888889,84.149,-0.100514285714286,-0.00792857142857143,1.08972857142857,-0.523333333333333,-0.93,-0.18,3.744,0.102883333333333,-0.495566666666667,0.88305,0.357285714285714,0.348571428571429,-0.156857142857143,760.9395,1,1,1,0
24-May-2018 12:34:11,131.6,0.0476833333333333,0.0700166666666667,1.03636666666667,0.1102,-0.896,0.1708,919.7962,-0.85372,-0.17694,-0.54668,6.937,-4.38366666666667,4.28888888888889,84.149,-0.100514285714286,-0.00792857142857143,1.08972857142857,-0.523333333333333,-0.93,-0.18,3.744,0.102883333333333,-0.495566666666667,0.88305,0.357285714285714,0.348571428571429,-0.156857142857143,760.9395,1,1,1,0
24-May-2018 12:34:11,131.6,0.0476833333333333,0.0700166666666667,1.03636666666667,0.1102,-0.896,0.1708,0,-0.85372,-0.17694,-0.54668,6.937,-4.38366666666667,4.28888888888889,84.149,-0.100514285714286,-0.00792857142857143,1.08972857142857,-0.523333333333333,-0.93,-0.18,3.744,0.102883333333333,-0.495566666666667,0.88305,0.357285714285714,0.348571428571429,-0.156857142857143,760.9395,1,1,1,0
24-May-2018 12:34:12,107.8,0.0545,0.066275,1.034675,0.644714285714286,0.0465714285714286,0.331142857142857,920.140333333333,-0.882525,-0.158075,-0.522775,5.884375,-3.07125,12.58875,77.01875,-0.100225,-0.008625,1.089575,-0.494,-0.984,-0.252,3.744,0.1038,-0.49795,0.88175,0.35075,0.41175,-0.122,760.376,1,1,1,0
24-May-2018 12:34:12,107.8,0.0545,0.066275,1.034675,0.644714285714286,0.0465714285714286,0.331142857142857,920.140333333333,-0.882525,-0.158075,-0.522775,5.884375,-3.07125,12.58875,77.01875,-0.100225,-0.008625,1.089575,-0.494,-0.984,-0.252,3.744,0.1038,-0.49795,0.88175,0.35075,0.41175,-0.122,760.376,1,1,1,0
24-May-2018 12:34:12,107.8,0.0545,0.066275,1.034675,0.644714285714286,0.0465714285714286,0.331142857142857,920.140333333333,-0.882525,-0.158075,-0.522775,5.884375,-3.07125,12.58875,77.01875,-0.100225,-0.008625,1.089575,-0.494,-0.984,-0.252,3.744,0.1038,-0.49795,0.88175,0.35075,0.41175,-0.122,760.376,1,1,1,0
24-May-2018 12:34:12,107.8,0.0545,0.066275,1.034675,0.644714285714286,0.0465714285714286,0.331142857142857,920.140333333333,-0.882525,-0.158075,-0.522775,5.884375,-3.07125,12.58875,77.01875,-0.100225,-0.008625,1.089575,-0.494,-0.984,-0.252,3.744,0.1038,-0.49795,0.88175,0.35075,0.41175,-0.122,760.376,1,1,1,0
24-May-2018 12:34:13,317.9,0.05216,0.07092,1.03588,0.762333333333333,1.79883333333333,0.4575,920.671666666667,-0.884775,-0.1297,-0.5089,0.145333333333333,2.97766666666667,8.22083333333333,74.642,-0.098925,-0.007225,1.09,-0.506,-0.934,-0.35,3.7382,0.103233333333333,-0.497033333333333,0.883166666666667,0.4392,0.4148,-0.244,760.524,1,1,1,0
24-May-2018 12:34:13,317.9,0.05216,0.07092,1.03588,0.762333333333333,1.79883333333333,0.4575,920.671666666667,-0.884775,-0.1297,-0.5089,0.145333333333333,2.97766666666667,8.22083333333333,74.642,-0.098925,-0.007225,1.09,-0.506,-0.934,-0.35,3.7382,0.103233333333333,-0.497033333333333,0.883166666666667,0.4392,0.4148,-0.244,760.524,1,1,1,0
24-May-2018 12:34:13,317.9,0.05216,0.07092,1.03588,0.762333333333333,1.79883333333333,0.4575,920.671666666667,-0.884775,-0.1297,-0.5089,0.145333333333333,2.97766666666667,8.22083333333333,74.642,-0.098925,-0.007225,1.09,-0.506,-0.934,-0.35,3.7382,0.103233333333333,-0.497033333333333,0.883166666666667,0.4392,0.4148,-0.244,760.524,1,1,1,0
24-May-2018 12:34:13,317.9,0.05216,0.07092,1.03588,0.762333333333333,1.79883333333333,0.4575,920.671666666667,-0.884775,-0.1297,-0.5089,0.145333333333333,2.97766666666667,8.22083333333333,74.642,-0.098925,-0.007225,1.09,-0.506,-0.934,-0.35,3.7382,0.103233333333333,-0.497033333333333,0.883166666666667,0.4392,0.4148,-0.244,760.524,1,1,1,0
24-May-2018 12:34:14,102.125,0.0509333333333333,0.0705333333333333,1.03083333333333,0.5795,-0.444833333333333,0.244,921.241,-0.885466666666667,-0.104183333333333,-0.52505,-5.3925,4.329125,3.7055,74.642,-0.0998833333333333,-0.00763333333333333,1.0899,-0.49625,-0.9175,-0.11225,3.774,0.10365,-0.495925,0.88245,0.427,0.3355,-0.16775,760.734666666667,1,1,1,0
24-May-2018 12:34:14,102.125,0.0509333333333333,0.0705333333333333,1.03083333333333,0.5795,-0.444833333333333,0.244,921.241,-0.885466666666667,-0.104183333333333,-0.52505,-5.3925,4.329125,3.7055,74.642,-0.0998833333333333,-0.00763333333333333,1.0899,-0.49625,-0.9175,-0.11225,3.774,0.10365,-0.495925,0.88245,0.427,0.3355,-0.16775,760.734666666667,1,1,1,0
24-May-2018 12:34:14,102.125,0.0509333333333333,0.0705333333333333,1.03083333333333,0.5795,-0.444833333333333,0.244,921.241,-0.885466666666667,-0.104183333333333,-0.52505,-5.3925,4.329125,3.7055,74.642,-0.0998833333333333,-0.00763333333333333,1.0899,-0.49625,-0.9175,-0.11225,3.774,0.10365,-0.495925,0.88245,0.427,0.3355,-0.16775,760.734666666667,1,1,1,0
24-May-2018 12:34:14,102.125,0.0509333333333333,0.0705333333333333,1.03083333333333,0.5795,-0.444833333333333,0.244,921.241,-0.885466666666667,-0.104183333333333,-0.52505,-5.3925,4.329125,3.7055,74.642,-0.0998833333333333,-0.00763333333333333,1.0899,-0.49625,-0.9175,-0.11225,3.774,0.10365,-0.495925,0.88245,0.427,0.3355,-0.16775,760.734666666667,1,1,1,0
24-May-2018 12:34:15,86.8888888888889,0.0565333333333333,0.0721666666666667,1.03515,0.9028,0.5136,0.488,920.457666666667,-0.88922,-0.08666,-0.51882,-2.85375,-2.483375,-1.465,66.797,-0.10104,-0.00722,1.08972,-0.59,-0.94,-0.315,3.774,0.103014285714286,-0.495271428571429,0.882785714285714,0.7808,0.6466,-0.1952,760.513,1,1,1,0
24-May-2018 12:34:15,86.8888888888889,0.0565333333333333,0.0721666666666667,1.03515,0.9028,0.5136,0.488,920.457666666667,-0.88922,-0.08666,-0.51882,-2.85375,-2.483375,-1.465,66.797,-0.10104,-0.00722,1.08972,-0.59,-0.94,-0.315,3.774,0.103014285714286,-0.495271428571429,0.882785714285714,0.7808,0.6466,-0.1952,760.513,1,1,1,0
24-May-2018 12:34:15,86.8888888888889,0.0565333333333333,0.0721666666666667,1.03515,0.9028,0.5136,0.488,920.457666666667,-0.88922,-0.08666,-0.51882,-2.85375,-2.483375,-1.465,66.797,-0.10104,-0.00722,1.08972,-0.59,-0.94,-0.315,3.774,0.103014285714286,-0.495271428571429,0.882785714285714,0.7808,0.6466,-0.1952,760.513,1,1,1,0
24-May-2018 12:34:15,86.8888888888889,0.0565333333333333,0.0721666666666667,1.03515,0.9028,0.5136,0.488,920.457666666667,-0.88922,-0.08666,-0.51882,-2.85375,-2.483375,-1.465,66.797,-0.10104,-0.00722,1.08972,-0.59,-0.94,-0.315,3.774,0.103014285714286,-0.495271428571429,0.882785714285714,0.7808,0.6466,-0.1952,760.513,1,1,1,0
24-May-2018 12:34:16,142.875,0.0394666666666667,0.0744,1.03671666666667,1.183,-0.5104,0.3174,921.04675,-0.88814,-0.09954,-0.51664,0.52125,3.14875,-3.87625,65.8885,-0.0976,-0.00918,1.09184,-0.5576,-0.7878,-0.1444,3.709,0.0988333333333333,-0.4825,0.8902,2.265,0.827571428571429,0.209,760.734,1,1,1,0
24-May-2018 12:34:16,142.875,0.0394666666666667,0.0744,1.03671666666667,1.183,-0.5104,0.3174,921.04675,-0.88814,-0.09954,-0.51664,0.52125,3.14875,-3.87625,65.8885,-0.0976,-0.00918,1.09184,-0.5576,-0.7878,-0.1444,3.709,0.0988333333333333,-0.4825,0.8902,2.265,0.827571428571429,0.209,760.734,1,1,1,0
24-May-2018 12:34:16,142.875,0.0394666666666667,0.0744,1.03671666666667,1.183,-0.5104,0.3174,921.04675,-0.88814,-0.09954,-0.51664,0.52125,3.14875,-3.87625,65.8885,-0.0976,-0.00918,1.09184,-0.5576,-0.7878,-0.1444,3.709,0.0988333333333333,-0.4825,0.8902,2.265,0.827571428571429,0.209,760.734,1,1,1,0
24-May-2018 12:34:16,142.875,0.0394666666666667,0.0744,1.03671666666667,1.183,-0.5104,0.3174,921.04675,-0.88814,-0.09954,-0.51664,0.52125,3.14875,-3.87625,65.8885,-0.0976,-0.00918,1.09184,-0.5576,-0.7878,-0.1444,3.709,0.0988333333333333,-0.4825,0.8902,2.265,0.827571428571429,0.209,760.734,1,1,1,0
24-May-2018 12:34:17,-516.285714285714,0.0485,0.0732,1.034,0.549,0.173,0.3416,920.112,-0.8745,-0.14472,-0.52748,2.771,2.26277777777778,-7.85666666666667,64.98,-0.0995833333333333,-0.00826666666666667,1.08891666666667,-0.636333333333333,-0.748333333333333,-0.0793333333333333,3.715,0.1012,-0.48065,0.898766666666667,0.2926,0.7072,0.2194,760.734,1,1,1,0
24-May-2018 12:34:17,-516.285714285714,0.0485,0.0732,1.034,0.549,0.173,0.3416,920.112,-0.8745,-0.14472,-0.52748,2.771,2.26277777777778,-7.85666666666667,64.98,-0.0995833333333333,-0.00826666666666667,1.08891666666667,-0.636333333333333,-0.748333333333333,-0.0793333333333333,3.715,0.1012,-0.48065,0.898766666666667,0.2926,0.7072,0.2194,760.734,1,1,1,0
24-May-2018 12:34:17,-516.285714285714,0.0485,0.0732,1.034,0.549,0.173,0.3416,920.112,-0.8745,-0.14472,-0.52748,2.771,2.26277777777778,-7.85666666666667,64.98,-0.0995833333333333,-0.00826666666666667,1.08891666666667,-0.636333333333333,-0.748333333333333,-0.0793333333333333,3.715,0.1012,-0.48065,0.898766666666667,0.2926,0.7072,0.2194,760.734,1,1,1,0
24-May-2018 12:34:17,-516.285714285714,0.0485,0.0732,1.034,0.549,0.173,0.3416,920.112,-0.8745,-0.14472,-0.52748,2.771,2.26277777777778,-7.85666666666667,64.98,-0.0995833333333333,-0.00826666666666667,1.08891666666667,-0.636333333333333,-0.748333333333333,-0.0793333333333333,3.715,0.1012,-0.48065,0.898766666666667,0.2926,0.7072,0.2194,0,1,1,1,0
24-May-2018 12:34:18,259.333333333333,0.0314333333333333,0.0752166666666667,1.03681666666667,0.205333333333333,4.00683333333333,0.6405,920.399,-0.872733333333333,-0.169466666666667,-0.524983333333333,3.30025,0.0093750000000001,-1.80875,65.0293333333333,-0.09678,-0.0085,1.0899,0.0382,-1.216,-0.826,3.774,0.10194,-0.49068,0.88554,0.60975,0.549,-0.3355,762.042,1,1,1,0
24-May-2018 12:34:18,259.333333333333,0.0314333333333333,0.0752166666666667,1.03681666666667,0.205333333333333,4.00683333333333,0.6405,920.399,-0.872733333333333,-0.169466666666667,-0.524983333333333,3.30025,0.0093750000000001,-1.80875,65.0293333333333,-0.09678,-0.0085,1.0899,0.0382,-1.216,-0.826,3.774,0.10194,-0.49068,0.88554,0.60975,0.549,-0.3355,762.042,1,1,1,0
24-May-2018 12:34:18,259.333333333333,0.0314333333333333,0.0752166666666667,1.03681666666667,0.205333333333333,4.00683333333333,0.6405,920.399,-0.872733333333333,-0.169466666666667,-0.524983333333333,3.30025,0.0093750000000001,-1.80875,65.0293333333333,-0.09678,-0.0085,1.0899,0.0382,-1.216,-0.826,3.774,0.10194,-0.49068,0.88554,0.60975,0.549,-0.3355,762.042,1,1,1,0
24-May-2018 12:34:18,259.333333333333,0.0314333333333333,0.0752166666666667,1.03681666666667,0.205333333333333,4.00683333333333,0.6405,920.399,-0.872733333333333,-0.169466666666667,-0.524983333333333,3.30025,0.0093750000000001,-1.80875,65.0293333333333,-0.09678,-0.0085,1.0899,0.0382,-1.216,-0.826,3.774,0.10194,-0.49068,0.88554,0.60975,0.549,-0.3355,762.042,1,1,1,0
24-May-2018 12:34:19,516,0.033275,0.0731,1.02715,-0.1914,-2.0848,1.9514,920.399,-0.8739,-0.17604,-0.51656,0.677777777777778,0.909444444444444,0.373,65.054,-0.108525,0.050775,1.082125,9.05175,-1.2315,2.1495,3.691,0.097275,-0.49445,0.88505,1.0852,0.3292,-0.2194,762.618,1,1,1,0
24-May-2018 12:34:19,516,0.033275,0.0731,1.02715,-0.1914,-2.0848,1.9514,920.399,-0.8739,-0.17604,-0.51656,0.677777777777778,0.909444444444444,0.373,65.054,-0.108525,0.050775,1.082125,9.05175,-1.2315,2.1495,3.691,0.097275,-0.49445,0.88505,1.0852,0.3292,-0.2194,762.618,1,1,1,0
24-May-2018 12:34:19,516,0.033275,0.0731,1.02715,-0.1914,-2.0848,1.9514,920.399,-0.8739,-0.17604,-0.51656,0.677777777777778,0.909444444444444,0.373,65.054,-0.108525,0.050775,1.082125,9.05175,-1.2315,2.1495,3.691,0.097275,-0.49445,0.88505,1.0852,0.3292,-0.2194,762.618,1,1,1,0
24-May-2018 12:34:19,516,0.033275,0.0731,1.02715,-0.1914,-2.0848,1.9514,920.399,-0.8739,-0.17604,-0.51656,0.677777777777778,0.909444444444444,0.373,65.054,-0.108525,0.050775,1.082125,9.05175,-1.2315,2.1495,3.691,0.097275,-0.49445,0.88505,1.0852,0.3292,-0.2194,762.618,1,1,1,0
24-May-2018 12:34:20,42.7777777777778,0.0446857142857143,0.0699571428571429,1.03467142857143,1.2942,-1.9006,-0.6656,920.399,-0.871333333333333,-0.1765,-0.519166666666667,0.3314,2.9024,0.2322,64.5036666666667,-0.10475,0.0552333333333333,1.08495,-7.405,-2.29875,-2.45,3.66566666666667,0.104916666666667,-0.500516666666667,0.880333333333333,0.293,0.1952,-0.4756,757.843,0,1,1,0
24-May-2018 12:34:20,42.7777777777778,0.0446857142857143,0.0699571428571429,1.03467142857143,1.2942,-1.9006,-0.6656,920.399,-0.871333333333333,-0.1765,-0.519166666666667,0.3314,2.9024,0.2322,64.5036666666667,-0.10475,0.0552333333333333,1.08495,-7.405,-2.29875,-2.45,3.66566666666667,0.104916666666667,-0.500516666666667,0.880333333333333,0.293,0.1952,-0.4756,757.843,0,1,1,0
24-May-2018 12:34:20,42.7777777777778,0.0446857142857143,0.0699571428571429,1.03467142857143,1.2942,-1.9006,-0.6656,920.399,-0.871333333333333,-0.1765,-0.519166666666667,0.3314,2.9024,0.2322,64.5036666666667,-0.10475,0.0552333333333333,1.08495,-7.405,-2.29875,-2.45,3.66566666666667,0.104916666666667,-0.500516666666667,0.880333333333333,0.293,0.1952,-0.4756,757.843,0,1,1,0
24-May-2018 12:34:20,42.7777777777778,0.0446857142857143,0.0699571428571429,1.03467142857143,1.2942,-1.9006,-0.6656,920.399,-0.871333333333333,-0.1765,-0.519166666666667,0.3314,2.9024,0.2322,64.5036666666667,-0.10475,0.0552333333333333,1.08495,-7.405,-2.29875,-2.45,3.66566666666667,0.104916666666667,-0.500516666666667,0.880333333333333,0.293,0.1952,-0.4756,757.843,0,1,1,0
24-May-2018 12:34:21,-379.9,0.0540166666666667,0.0687,1.03105,0.2932,-1.4612,0.366,920.399,-0.8695,-0.174266666666667,-0.525833333333333,-0.0211249999999999,4.101375,-0.598125,63.403,-0.0981,0.01258,1.08966,-0.5775,-1.02,-0.20975,3.6925,0.10548,-0.49568,0.88216,0.244166666666667,0.427,-0.193166666666667,760.158,1,1,1,0
24-May-2018 12:34:21,-379.9,0.0540166666666667,0.0687,1.03105,0.2932,-1.4612,0.366,920.399,-0.8695,-0.174266666666667,-0.525833333333333,-0.0211249999999999,4.101375,-0.598125,63.403,-0.0981,0.01258,1.08966,-0.5775,-1.02,-0.20975,3.6925,0.10548,-0.49568,0.88216,0.244166666666667,0.427,-0.193166666666667,760.158,1,1,1,0
24-May-2018 12:34:21,-379.9,0.0540166666666667,0.0687,1.03105,0.2932,-1.4612,0.366,920.399,-0.8695,-0.174266666666667,-0.525833333333333,-0.0211249999999999,4.101375,-0.598125,63.403,-0.0981,0.01258,1.08966,-0.5775,-1.02,-0.20975,3.6925,0.10548,-0.49568,0.88216,0.244166666666667,0.427,-0.193166666666667,760.158,1,1,1,0
24-May-2018 12:34:21,-379.9,0.0540166666666667,0.0687,1.03105,0.2932,-1.4612,0.366,920.399,-0.8695,-0.174266666666667,-0.525833333333333,-0.0211249999999999,4.101375,-0.598125,63.403,-0.0981,0.01258,1.08966,-0.5775,-1.02,-0.20975,3.6925,0.10548,-0.49568,0.88216,0.244166666666667,0.427,-0.193166666666667,760.158,1,1,1,0
24-May-2018 12:34:22,38.2222222222222,0.052125,0.069275,1.034175,1.1832,1.695,0.3426,918.131,-0.86715,-0.1755,-0.52965,1.0695,-1.10225,4.48175,63.403,-0.0972,0.012825,1.0903,-0.582,-1.08,-0.2636,3.66733333333333,0.107225,-0.497575,0.877925,1.2682,0.3292,2.7926,758.763,0,1,1,0
24-May-2018 12:34:22,38.2222222222222,0.052125,0.069275,1.034175,1.1832,1.695,0.3426,918.131,-0.86715,-0.1755,-0.52965,1.0695,-1.10225,4.48175,63.403,-0.0972,0.012825,1.0903,-0.582,-1.08,-0.2636,3.66733333333333,0.107225,-0.497575,0.877925,1.2682,0.3292,2.7926,758.763,0,1,1,0
24-May-2018 12:34:22,38.2222222222222,0.052125,0.069275,1.034175,1.1832,1.695,0.3426,918.131,-0.86715,-0.1755,-0.52965,1.0695,-1.10225,4.48175,63.403,-0.0972,0.012825,1.0903,-0.582,-1.08,-0.2636,3.66733333333333,0.107225,-0.497575,0.877925,1.2682,0.3292,2.7926,758.763,0,1,1,0
24-May-2018 12:34:22,38.2222222222222,0.052125,0.069275,1.034175,1.1832,1.695,0.3426,918.131,-0.86715,-0.1755,-0.52965,1.0695,-1.10225,4.48175,63.403,-0.0972,0.012825,1.0903,-0.582,-1.08,-0.2636,3.66733333333333,0.107225,-0.497575,0.877925,1.2682,0.3292,2.7926,758.763,0,1,1,0
24-May-2018 12:34:23,50.5,0.0285666666666667,0.0557,1.04856666666667,2.09466666666667,-0.119666666666667,0.124,917.178,-0.879425,-0.155475,-0.5198,-0.661571428571428,-4.36942857142857,11.2151428571429,63.403,-0.1052,0.0312,1.09565,-0.0594285714285713,-0.363428571428571,-0.302714285714286,3.6472,0.10425,-0.538466666666667,0.8687,1.6615,-1.174,-3.35375,762.348,0,1,1,0
24-May-2018 12:34:23,50.5,0.0285666666666667,0.0557,1.04856666666667,2.09466666666667,-0.119666666666667,0.124,917.178,-0.879425,-0.155475,-0.5198,-0.661571428571428,-4.36942857142857,11.2151428571429,63.403,-0.1052,0.0312,1.09565,-0.0594285714285713,-0.363428571428571,-0.302714285714286,3.6472,0.10425,-0.538466666666667,0.8687,1.6615,-1.174,-3.35375,762.348,0,1,1,0
24-May-2018 12:34:23,50.5,0.0285666666666667,0.0557,1.04856666666667,2.09466666666667,-0.119666666666667,0.124,917.178,-0.879425,-0.155475,-0.5198,-0.661571428571428,-4.36942857142857,11.2151428571429,63.403,-0.1052,0.0312,1.09565,-0.0594285714285713,-0.363428571428571,-0.302714285714286,3.6472,0.10425,-0.538466666666667,0.8687,1.6615,-1.174,-3.35375,762.348,0,1,1,0
24-May-2018 12:34:23,50.5,0.0285666666666667,0.0557,1.04856666666667,2.09466666666667,-0.119666666666667,0.124,917.178,-0.879425,-0.155475,-0.5198,-0.661571428571428,-4.36942857142857,11.2151428571429,63.403,-0.1052,0.0312,1.09565,-0.0594285714285713,-0.363428571428571,-0.302714285714286,3.6472,0.10425,-0.538466666666667,0.8687,1.6615,-1.174,-3.35375,762.348,0,1,1,0
24-May-2018 12:34:24,401,0.03286,0.07556,1.03828,1.444,-1.57966666666667,2.561,915.262,-0.885025,-0.131325,-0.516725,0.627125,2.07525,7.705125,62.035,-0.0919,0.05475,1.08375,-3.45016666666667,-0.828333333333333,0.124,3.6546,0.10705,-0.501425,0.880375,1.7558,0.3292,-0.0978,762.348,0,1,1,0
24-May-2018 12:34:24,401,0.03286,0.07556,1.03828,1.444,-1.57966666666667,2.561,915.262,-0.885025,-0.131325,-0.516725,0.627125,2.07525,7.705125,62.035,-0.0919,0.05475,1.08375,-3.45016666666667,-0.828333333333333,0.124,3.6546,0.10705,-0.501425,0.880375,1.7558,0.3292,-0.0978,762.348,0,1,1,0
24-May-2018 12:34:24,401,0.03286,0.07556,1.03828,1.444,-1.57966666666667,2.561,915.262,-0.885025,-0.131325,-0.516725,0.627125,2.07525,7.705125,62.035,-0.0919,0.05475,1.08375,-3.45016666666667,-0.828333333333333,0.124,3.6546,0.10705,-0.501425,0.880375,1.7558,0.3292,-0.0978,762.348,0,1,1,0
24-May-2018 12:34:24,401,0.03286,0.07556,1.03828,1.444,-1.57966666666667,2.561,915.262,-0.885025,-0.131325,-0.516725,0.627125,2.07525,7.705125,62.035,-0.0919,0.05475,1.08375,-3.45016666666667,-0.828333333333333,0.124,3.6546,0.10705,-0.501425,0.880375,1.7558,0.3292,-0.0978,0,0,1,1,0
24-May-2018 12:34:25,-169.4,0.0535,0.0701571428571428,1.03542857142857,0.4404,0.2096,0.366,918.55175,-0.884666666666667,-0.123233333333333,-0.5228,1.50566666666667,4.29933333333333,2.38816666666667,62.035,-0.09892,0.00716,1.0911,-0.36,-1.0775,-0.4525,3.701,0.1063,-0.4958,0.8816,0.8995,0.7015,-0.0915,756.8625,0,1,1,0
24-May-2018 12:34:25,-169.4,0.0535,0.0701571428571428,1.03542857142857,0.4404,0.2096,0.366,918.55175,-0.884666666666667,-0.123233333333333,-0.5228,1.50566666666667,4.29933333333333,2.38816666666667,62.035,-0.09892,0.00716,1.0911,-0.36,-1.0775,-0.4525,3.701,0.1063,-0.4958,0.8816,0.8995,0.7015,-0.0915,756.8625,0,1,1,0
24-May-2018 12:34:25,-169.4,0.0535,0.0701571428571428,1.03542857142857,0.4404,0.2096,0.366,918.55175,-0.884666666666667,-0.123233333333333,-0.5228,1.50566666666667,4.29933333333333,2.38816666666667,62.035,-0.09892,0.00716,1.0911,-0.36,-1.0775,-0.4525,3.701,0.1063,-0.4958,0.8816,0.8995,0.7015,-0.0915,756.8625,0,1,1,0
24-May-2018 12:34:25,-169.4,0.0535,0.0701571428571428,1.03542857142857,0.4404,0.2096,0.366,918.55175,-0.884666666666667,-0.123233333333333,-0.5228,1.50566666666667,4.29933333333333,2.38816666666667,62.035,-0.09892,0.00716,1.0911,-0.36,-1.0775,-0.4525,3.701,0.1063,-0.4958,0.8816,0.8995,0.7015,-0.0915,756.8625,0,1,1,0
24-May-2018 12:34:26,-5.42857142857143,0.04476,0.07022,1.03692,0.8782,-0.1188,0.2684,918.45725,-0.879875,-0.1205,-0.524275,0.712333333333333,1.84355555555556,0.962333333333333,62.035,-0.09568,0.00806,1.09064,-0.36,-0.88,-0.24,3.721,0.1068,-0.4986,0.881275,0.601142857142857,0.488,-0.209142857142857,755.826,1,1,1,0
24-May-2018 12:34:26,-5.42857142857143,0.04476,0.07022,1.03692,0.8782,-0.1188,0.2684,918.45725,-0.879875,-0.1205,-0.524275,0.712333333333333,1.84355555555556,0.962333333333333,62.035,-0.09568,0.00806,1.09064,-0.36,-0.88,-0.24,3.721,0.1068,-0.4986,0.881275,0.601142857142857,0.488,-0.209142857142857,755.826,1,1,1,0
24-May-2018 12:34:26,-5.42857142857143,0.04476,0.07022,1.03692,0.8782,-0.1188,0.2684,918.45725,-0.879875,-0.1205,-0.524275,0.712333333333333,1.84355555555556,0.962333333333333,62.035,-0.09568,0.00806,1.09064,-0.36,-0.88,-0.24,3.721,0.1068,-0.4986,0.881275,0.601142857142857,0.488,-0.209142857142857,755.826,1,1,1,0
24-May-2018 12:34:26,-5.42857142857143,0.04476,0.07022,1.03692,0.8782,-0.1188,0.2684,918.45725,-0.879875,-0.1205,-0.524275,0.712333333333333,1.84355555555556,0.962333333333333,62.035,-0.09568,0.00806,1.09064,-0.36,-0.88,-0.24,3.721,0.1068,-0.4986,0.881275,0.601142857142857,0.488,-0.209142857142857,755.826,1,1,1,0
24-May-2018 12:34:27,-55.5714285714286,0.0423333333333333,0.0701333333333333,1.0331,0.4394,-0.302,0.3172,916.949666666667,-0.879425,-0.1198,-0.53115,0.164,0.3985,-0.838333333333333,60.113,-0.096825,0.007425,1.091925,-0.4975,-0.8175,-0.0595,3.721,0.107,-0.499366666666667,0.878833333333333,0.461857142857143,0.409571428571429,-0.104571428571429,754.504,0,1,1,0
24-May-2018 12:34:27,-55.5714285714286,0.0423333333333333,0.0701333333333333,1.0331,0.4394,-0.302,0.3172,916.949666666667,-0.879425,-0.1198,-0.53115,0.164,0.3985,-0.838333333333333,60.113,-0.096825,0.007425,1.091925,-0.4975,-0.8175,-0.0595,3.721,0.107,-0.499366666666667,0.878833333333333,0.461857142857143,0.409571428571429,-0.104571428571429,754.504,0,1,1,0
24-May-2018 12:34:27,-55.5714285714286,0.0423333333333333,0.0701333333333333,1.0331,0.4394,-0.302,0.3172,916.949666666667,-0.879425,-0.1198,-0.53115,0.164,0.3985,-0.838333333333333,60.113,-0.096825,0.007425,1.091925,-0.4975,-0.8175,-0.0595,3.721,0.107,-0.499366666666667,0.878833333333333,0.461857142857143,0.409571428571429,-0.104571428571429,754.504,0,1,1,0
24-May-2018 12:34:27,-55.5714285714286,0.0423333333333333,0.0701333333333333,1.0331,0.4394,-0.302,0.3172,916.949666666667,-0.879425,-0.1198,-0.53115,0.164,0.3985,-0.838333333333333,60.113,-0.096825,0.007425,1.091925,-0.4975,-0.8175,-0.0595,3.721,0.107,-0.499366666666667,0.878833333333333,0.461857142857143,0.409571428571429,-0.104571428571429,754.504,0,1,1,0
24-May-2018 12:34:28,410.714285714286,0.0601428571428571,0.0671142857142857,1.03482857142857,0.792833333333333,-0.645,0.345666666666667,917.164,-0.87935,-0.117775,-0.528675,1.22711111111111,0.24,0.00344444444444442,60.113,-0.09706,0.00778,1.09068,-0.508571428571429,-0.928571428571429,-0.248571428571429,3.6985,0.10656,-0.49732,0.88232,0.57925,0.50325,-0.13725,754.6045,0,1,1,0
24-May-2018 12:34:28,410.714285714286,0.0601428571428571,0.0671142857142857,1.03482857142857,0.792833333333333,-0.645,0.345666666666667,917.164,-0.87935,-0.117775,-0.528675,1.22711111111111,0.24,0.00344444444444442,60.113,-0.09706,0.00778,1.09068,-0.508571428571429,-0.928571428571429,-0.248571428571429,3.6985,0.10656,-0.49732,0.88232,0.57925,0.50325,-0.13725,754.6045,0,1,1,0
24-May-2018 12:34:28,410.714285714286,0.0601428571428571,0.0671142857142857,1.03482857142857,0.792833333333333,-0.645,0.345666666666667,917.164,-0.87935,-0.117775,-0.528675,1.22711111111111,0.24,0.00344444444444442,60.113,-0.09706,0.00778,1.09068,-0.508571428571429,-0.928571428571429,-0.248571428571429,3.6985,0.10656,-0.49732,0.88232,0.57925,0.50325,-0.13725,754.6045,0,1,1,0
24-May-2018 12:34:28,410.714285714286,0.0601428571428571,0.0671142857142857,1.03482857142857,0.792833333333333,-0.645,0.345666666666667,917.164,-0.87935,-0.117775,-0.528675,1.22711111111111,0.24,0.00344444444444442,60.113,-0.09706,0.00778,1.09068,-0.508571428571429,-0.928571428571429,-0.248571428571429,3.6985,0.10656,-0.49732,0.88232,0.57925,0.50325,-0.13725,754.6045,0,1,1,0
24-May-2018 12:34:29,363.333333333333,0.0519142857142857,0.0702142857142857,1.03261428571429,0.672,0.692166666666667,0.345666666666667,917.164,-0.893266666666667,-0.0939,-0.535333333333333,7.56914285714286,-2.271,4.50357142857143,60.113,-0.09594,0.00916,1.09,-0.289,-0.886,-0.1452,3.691,0.10775,-0.497725,0.881125,0.3965,0.35075,-0.244,754.258,1,1,1,0
24-May-2018 12:34:29,363.333333333333,0.0519142857142857,0.0702142857142857,1.03261428571429,0.672,0.692166666666667,0.345666666666667,917.164,-0.893266666666667,-0.0939,-0.535333333333333,7.56914285714286,-2.271,4.50357142857143,60.113,-0.09594,0.00916,1.09,-0.289,-0.886,-0.1452,3.691,0.10775,-0.497725,0.881125,0.3965,0.35075,-0.244,754.258,1,1,1,0
24-May-2018 12:34:29,363.333333333333,0.0519142857142857,0.0702142857142857,1.03261428571429,0.672,0.692166666666667,0.345666666666667,917.164,-0.893266666666667,-0.0939,-0.535333333333333,7.56914285714286,-2.271,4.50357142857143,60.113,-0.09594,0.00916,1.09,-0.289,-0.886,-0.1452,3.691,0.10775,-0.497725,0.881125,0.3965,0.35075,-0.244,754.258,1,1,1,0
24-May-2018 12:34:29,363.333333333333,0.0519142857142857,0.0702142857142857,1.03261428571429,0.672,0.692166666666667,0.345666666666667,917.164,-0.893266666666667,-0.0939,-0.535333333333333,7.56914285714286,-2.271,4.50357142857143,60.113,-0.09594,0.00916,1.09,-0.289,-0.886,-0.1452,3.691,0.10775,-0.497725,0.881125,0.3965,0.35075,-0.244,754.258,1,1,1,0
24-May-2018 12:34:30,27.5,0.02305,0.06995,1.0456,-0.79,-2.86,0.122,917.164,-0.88475,-0.14275,-0.52865,0.2935,4.695,2.14925,60.113,-0.0951,0.0118,1.09293333333333,-0.18,-0.39,-0.09,3.697,0.1024,-0.4424,0.8301,21.321,11.9513333333333,3.63833333333333,753.843,0,1,1,1
24-May-2018 12:34:30,27.5,0.02305,0.06995,1.0456,-0.79,-2.86,0.122,917.164,-0.88475,-0.14275,-0.52865,0.2935,4.695,2.14925,60.113,-0.0951,0.0118,1.09293333333333,-0.18,-0.39,-0.09,3.697,0.1024,-0.4424,0.8301,21.321,11.9513333333333,3.63833333333333,753.843,0,1,1,1
24-May-2018 12:34:30,27.5,0.02305,0.06995,1.0456,-0.79,-2.86,0.122,917.164,-0.88475,-0.14275,-0.52865,0.2935,4.695,2.14925,60.113,-0.0951,0.0118,1.09293333333333,-0.18,-0.39,-0.09,3.697,0.1024,-0.4424,0.8301,21.321,11.9513333333333,3.63833333333333,753.843,0,1,1,1
24-May-2018 12:34:30,27.5,0.02305,0.06995,1.0456,-0.79,-2.86,0.122,917.164,-0.88475,-0.14275,-0.52865,0.2935,4.695,2.14925,60.113,-0.0951,0.0118,1.09293333333333,-0.18,-0.39,-0.09,3.697,0.1024,-0.4424,0.8301,21.321,11.9513333333333,3.63833333333333,753.843,0,1,1,1
24-May-2018 12:34:31,72,0.0398375,0.0683,1.032675,0.0967777777777778,-0.00522222222222226,0.157333333333333,917.164,-0.86448,-0.138,-0.52992,5.17611111111111,13.2692222222222,-2.11111111111111,61.275,-0.096,0.01138,1.08992,-0.891428571428571,-0.658285714285714,-0.233285714285714,3.7266,0.13484,-0.49244,0.85808,4.34966666666667,6.40233333333333,-0.833333333333333,753.761333333333,1,1,1,1
24-May-2018 12:34:31,72,0.0398375,0.0683,1.032675,0.0967777777777778,-0.00522222222222226,0.157333333333333,917.164,-0.86448,-0.138,-0.52992,5.17611111111111,13.2692222222222,-2.11111111111111,61.275,-0.096,0.01138,1.08992,-0.891428571428571,-0.658285714285714,-0.233285714285714,3.7266,0.13484,-0.49244,0.85808,4.34966666666667,6.40233333333333,-0.833333333333333,753.761333333333,1,1,1,1
24-May-2018 12:34:31,72,0.0398375,0.0683,1.032675,0.0967777777777778,-0.00522222222222226,0.157333333333333,917.164,-0.86448,-0.138,-0.52992,5.17611111111111,13.2692222222222,-2.11111111111111,61.275,-0.096,0.01138,1.08992,-0.891428571428571,-0.658285714285714,-0.233285714285714,3.7266,0.13484,-0.49244,0.85808,4.34966666666667,6.40233333333333,-0.833333333333333,753.761333333333,1,1,1,1
24-May-2018 12:34:31,72,0.0398375,0.0683,1.032675,0.0967777777777778,-0.00522222222222226,0.157333333333333,917.164,-0.86448,-0.138,-0.52992,5.17611111111111,13.2692222222222,-2.11111111111111,61.275,-0.096,0.01138,1.08992,-0.891428571428571,-0.658285714285714,-0.233285714285714,3.7266,0.13484,-0.49244,0.85808,4.34966666666667,6.40233333333333,-0.833333333333333,753.761333333333,1,1,1,1
24-May-2018 12:34:32,-680.5,0.0537142857142857,0.0666142857142857,1.03498571428571,0.908666666666667,0.117333333333333,0.467777777777778,919.601,-0.857575,-0.148475,-0.54955,3.62511111111111,-1.58722222222222,-2.44277777777778,61.275,-0.0948,0.007825,1.0907875,-0.537142857142857,-1.04142857142857,-0.449857142857143,3.7205,0.11015,-0.4984,0.882725,0.853666666666667,0.467666666666667,-0.338888888888889,750.9785,1,1,1,1
24-May-2018 12:34:32,-680.5,0.0537142857142857,0.0666142857142857,1.03498571428571,0.908666666666667,0.117333333333333,0.467777777777778,919.601,-0.857575,-0.148475,-0.54955,3.62511111111111,-1.58722222222222,-2.44277777777778,61.275,-0.0948,0.007825,1.0907875,-0.537142857142857,-1.04142857142857,-0.449857142857143,3.7205,0.11015,-0.4984,0.882725,0.853666666666667,0.467666666666667,-0.338888888888889,750.9785,1,1,1,1
24-May-2018 12:34:32,-680.5,0.0537142857142857,0.0666142857142857,1.03498571428571,0.908666666666667,0.117333333333333,0.467777777777778,919.601,-0.857575,-0.148475,-0.54955,3.62511111111111,-1.58722222222222,-2.44277777777778,61.275,-0.0948,0.007825,1.0907875,-0.537142857142857,-1.04142857142857,-0.449857142857143,3.7205,0.11015,-0.4984,0.882725,0.853666666666667,0.467666666666667,-0.338888888888889,750.9785,1,1,1,1
24-May-2018 12:34:32,-680.5,0.0537142857142857,0.0666142857142857,1.03498571428571,0.908666666666667,0.117333333333333,0.467777777777778,919.601,-0.857575,-0.148475,-0.54955,3.62511111111111,-1.58722222222222,-2.44277777777778,61.275,-0.0948,0.007825,1.0907875,-0.537142857142857,-1.04142857142857,-0.449857142857143,3.7205,0.11015,-0.4984,0.882725,0.853666666666667,0.467666666666667,-0.338888888888889,750.9785,1,1,1,1
24-May-2018 12:34:33,107,0.046675,0.0703,1.034375,0.4758,-1.154,0.2318,917.940857142857,-0.87342,-0.14248,-0.53548,-2.60488888888889,-11.4038888888889,5.93433333333333,61.275,-0.0974428571428572,0.00744285714285714,1.09155714285714,-0.465714285714286,-0.884285714285714,-0.0682857142857143,3.72075,0.107728571428571,-0.484928571428571,0.889128571428572,0.732,0.47275,-0.122,754.197833333333,1,1,1,1
24-May-2018 12:34:33,107,0.046675,0.0703,1.034375,0.4758,-1.154,0.2318,917.940857142857,-0.87342,-0.14248,-0.53548,-2.60488888888889,-11.4038888888889,5.93433333333333,61.275,-0.0974428571428572,0.00744285714285714,1.09155714285714,-0.465714285714286,-0.884285714285714,-0.0682857142857143,3.72075,0.107728571428571,-0.484928571428571,0.889128571428572,0.732,0.47275,-0.122,754.197833333333,1,1,1,1
24-May-2018 12:34:33,107,0.046675,0.0703,1.034375,0.4758,-1.154,0.2318,917.940857142857,-0.87342,-0.14248,-0.53548,-2.60488888888889,-11.4038888888889,5.93433333333333,61.275,-0.0974428571428572,0.00744285714285714,1.09155714285714,-0.465714285714286,-0.884285714285714,-0.0682857142857143,3.72075,0.107728571428571,-0.484928571428571,0.889128571428572,0.732,0.47275,-0.122,754.197833333333,1,1,1,1
24-May-2018 12:34:33,107,0.046675,0.0703,1.034375,0.4758,-1.154,0.2318,917.940857142857,-0.87342,-0.14248,-0.53548,-2.60488888888889,-11.4038888888889,5.93433333333333,61.275,-0.0974428571428572,0.00744285714285714,1.09155714285714,-0.465714285714286,-0.884285714285714,-0.0682857142857143,3.72075,0.107728571428571,-0.484928571428571,0.889128571428572,0.732,0.47275,-0.122,754.197833333333,1,1,1,1
24-May-2018 12:34:34,-21.875,0.0633833333333333,0.0703,1.03595,0.618714285714286,0.489,0.418285714285714,918.212,-0.88516,-0.13246,-0.51988,1.28877777777778,0.0225555555555555,-5.51666666666667,65.68875,-0.097475,0.00695,1.09005,-0.458,-0.824,-0.372,3.774,0.1077,-0.48476,0.88882,0.427,0.383428571428571,-0.200428571428571,755.5074,1,1,1,1
24-May-2018 12:34:34,-21.875,0.0633833333333333,0.0703,1.03595,0.618714285714286,0.489,0.418285714285714,918.212,-0.88516,-0.13246,-0.51988,1.28877777777778,0.0225555555555555,-5.51666666666667,65.68875,-0.097475,0.00695,1.09005,-0.458,-0.824,-0.372,3.774,0.1077,-0.48476,0.88882,0.427,0.383428571428571,-0.200428571428571,755.5074,1,1,1,1
24-May-2018 12:34:34,-21.875,0.0633833333333333,0.0703,1.03595,0.618714285714286,0.489,0.418285714285714,918.212,-0.88516,-0.13246,-0.51988,1.28877777777778,0.0225555555555555,-5.51666666666667,65.68875,-0.097475,0.00695,1.09005,-0.458,-0.824,-0.372,3.774,0.1077,-0.48476,0.88882,0.427,0.383428571428571,-0.200428571428571,755.5074,1,1,1,1
24-May-2018 12:34:34,-21.875,0.0633833333333333,0.0703,1.03595,0.618714285714286,0.489,0.418285714285714,918.212,-0.88516,-0.13246,-0.51988,1.28877777777778,0.0225555555555555,-5.51666666666667,65.68875,-0.097475,0.00695,1.09005,-0.458,-0.824,-0.372,3.774,0.1077,-0.48476,0.88882,0.427,0.383428571428571,-0.200428571428571,755.5074,1,1,1,1
24-May-2018 12:34:35,-136.125,0.0467285714285714,0.0704857142857143,1.03257142857143,0.813166666666667,1.92083333333333,0.549,919.2625,-0.881725,-0.13975,-0.5151,-1.00055555555556,-0.282333333333333,0.861444444444444,67.16,-0.09525,0.00765,1.0913,-0.41,-0.994,-0.422,3.70483333333333,0.10784,-0.484,0.88942,0.3172,0.2318,-0.2806,755.793,0,1,1,0
24-May-2018 12:34:35,-136.125,0.0467285714285714,0.0704857142857143,1.03257142857143,0.813166666666667,1.92083333333333,0.549,919.2625,-0.881725,-0.13975,-0.5151,-1.00055555555556,-0.282333333333333,0.861444444444444,67.16,-0.09525,0.00765,1.0913,-0.41,-0.994,-0.422,3.70483333333333,0.10784,-0.484,0.88942,0.3172,0.2318,-0.2806,755.793,0,1,1,0
24-May-2018 12:34:35,-136.125,0.0467285714285714,0.0704857142857143,1.03257142857143,0.813166666666667,1.92083333333333,0.549,919.2625,-0.881725,-0.13975,-0.5151,-1.00055555555556,-0.282333333333333,0.861444444444444,67.16,-0.09525,0.00765,1.0913,-0.41,-0.994,-0.422,3.70483333333333,0.10784,-0.484,0.88942,0.3172,0.2318,-0.2806,755.793,0,1,1,0
24-May-2018 12:34:35,-136.125,0.0467285714285714,0.0704857142857143,1.03257142857143,0.813166666666667,1.92083333333333,0.549,919.2625,-0.881725,-0.13975,-0.5151,-1.00055555555556,-0.282333333333333,0.861444444444444,67.16,-0.09525,0.00765,1.0913,-0.41,-0.994,-0.422,3.70483333333333,0.10784,-0.484,0.88942,0.3172,0.2318,-0.2806,755.793,0,1,1,0
