TIME,HELMET_RAW,BELT_ACC_X,BELT_ACC_Y,BELT_ACC_Z,BELT_ANG_X,BELT_ANG_Y,BELT_ANG_Z,BELT_LUMINOSITY,NECK_ACC_X,NECK_ACC_Y,NECK_ACC_Z,NECK_ANG_X,NECK_ANG_Y,NECK_ANG_Z,NECK_LUMINOSITY,PCKT_ACC_X,PCKT_ACC_Y,PCKT_ACC_Z,PCKT_ANG_X,PCKT_ANG_Y,PCKT_ANG_Z,PCKT_LUMINOSITY,WRST_ACC_X,WRST_ACC_Y,WRST_ACC_Z,WRST_ANG_X,WRST_ANG_Y,WRST_ANG_Z,WRST_LUMINOSITY,IR_1,IR_2,IR_3,IR_4
24-May-2018 12:32:36,45.5555555555556,0.027575,0.070125,1.0362,0.630333333333333,1.28066666666667,0.508333333333333,916.193333333333,-0.826133333333333,0.562966666666667,-0.2845,8.545,7.26516666666667,2.05283333333333,58.71,-0.1031,-0.00385,1.09105,-0.41,-0.96,-0.458,3.739,0.1232,-0.5543,0.8423,0.61,0.508333333333333,-0.122,727.879,1,1,1,1
24-May-2018 12:32:36,45.5555555555556,0.027575,0.070125,1.0362,0.630333333333333,1.28066666666667,0.508333333333333,916.193333333333,-0.826133333333333,0.562966666666667,-0.2845,8.545,7.26516666666667,2.05283333333333,58.71,-0.1031,-0.00385,1.09105,-0.41,-0.96,-0.458,3.739,0.1232,-0.5543,0.8423,0.61,0.508333333333333,-0.122,727.879,1,1,1,1
24-May-2018 12:32:36,45.5555555555556,0.027575,0.070125,1.0362,0.630333333333333,1.28066666666667,0.508333333333333,916.193333333333,-0.826133333333333,0.562966666666667,-0.2845,8.545,7.26516666666667,2.05283333333333,58.71,-0.1031,-0.00385,1.09105,-0.41,-0.96,-0.458,3.739,0.1232,-0.5543,0.8423,0.61,0.508333333333333,-0.122,727.879,1,1,1,1
24-May-2018 12:32:36,45.5555555555556,0.027575,0.070125,1.0362,0.630333333333333,1.28066666666667,0.508333333333333,916.193333333333,-0.826133333333333,0.562966666666667,-0.2845,8.545,7.26516666666667,2.05283333333333,58.71,-0.1031,-0.00385,1.09105,-0.41,-0.96,-0.458,3.739,0.1232,-0.5543,0.8423,0.61,0.508333333333333,-0.122,727.879,1,1,1,1
24-May-2018 12:32:37,51.5,0.02495,0.07135,1.0319,0.9882,0.9882,0.5124,916.193333333333,-0.82735,0.5622,-0.28745,0.64325,-3.4575,-2.3575,57.395,-0.1048,-2.0363,1.08956666666667,-0.6225,-1.1825,-0.51,3.739,0.123133333333333,-0.557033333333333,0.841433333333333,0.915,0.5795,-0.0915,729.242,1,1,1,1
24-May-2018 12:32:37,51.5,0.02495,0.07135,1.0319,0.9882,0.9882,0.5124,916.193333333333,-0.82735,0.5622,-0.28745,0.64325,-3.4575,-2.3575,57.395,-0.1048,-2.0363,1.08956666666667,-0.6225,-1.1825,-0.51,3.739,0.123133333333333,-0.557033333333333,0.841433333333333,0.915,0.5795,-0.0915,729.242,1,1,1,1
24-May-2018 12:32:37,51.5,0.02495,0.07135,1.0319,0.9882,0.9882,0.5124,916.193333333333,-0.82735,0.5622,-0.28745,0.64325,-3.4575,-2.3575,57.395,-0.1048,-2.0363,1.08956666666667,-0.6225,-1.1825,-0.51,3.739,0.123133333333333,-0.557033333333333,0.841433333333333,0.915,0.5795,-0.0915,729.242,1,1,1,1
24-May-2018 12:32:37,51.5,0.02495,0.07135,1.0319,0.9882,0.9882,0.5124,916.193333333333,-0.82735,0.5622,-0.28745,0.64325,-3.4575,-2.3575,57.395,-0.1048,-2.0363,1.08956666666667,-0.6225,-1.1825,-0.51,0,0.123133333333333,-0.557033333333333,0.841433333333333,0.915,0.5795,-0.0915,729.242,1,1,1,1
24-May-2018 12:32:38,-35.6,0.00426666666666667,0.0749555555555556,1.03472222222222,0.8005,-0.270625,0.404125,916.193333333333,-0.82826,0.55156,-0.28868,-0.868428571428572,-5.70142857142857,-2.06885714285714,57.395,-0.10265,-0.00206666666666667,1.09048333333333,-0.36,-0.8475,-0.119,3.7415,0.12305,-0.55645,0.841216666666667,0.522857142857143,0.461857142857143,-0.061,729.7905,0,1,1,1
24-May-2018 12:32:38,-35.6,0.00426666666666667,0.0749555555555556,1.03472222222222,0.8005,-0.270625,0.404125,916.193333333333,-0.82826,0.55156,-0.28868,-0.868428571428572,-5.70142857142857,-2.06885714285714,57.395,-0.10265,-0.00206666666666667,1.09048333333333,-0.36,-0.8475,-0.119,3.7415,0.12305,-0.55645,0.841216666666667,0.522857142857143,0.461857142857143,-0.061,729.7905,0,1,1,1
24-May-2018 12:32:38,-35.6,0.00426666666666667,0.0749555555555556,1.03472222222222,0.8005,-0.270625,0.404125,916.193333333333,-0.82826,0.55156,-0.28868,-0.868428571428572,-5.70142857142857,-2.06885714285714,57.395,-0.10265,-0.00206666666666667,1.09048333333333,-0.36,-0.8475,-0.119,3.7415,0.12305,-0.55645,0.841216666666667,0.522857142857143,0.461857142857143,-0.061,729.7905,0,1,1,1
24-May-2018 12:32:38,-35.6,0.00426666666666667,0.0749555555555556,1.03472222222222,0.8005,-0.270625,0.404125,916.193333333333,-0.82826,0.55156,-0.28868,-0.868428571428572,-5.70142857142857,-2.06885714285714,57.395,-0.10265,-0.00206666666666667,1.09048333333333,-0.36,-0.8475,-0.119,3.7415,0.12305,-0.55645,0.841216666666667,0.522857142857143,0.461857142857143,-0.061,729.7905,0,1,1,1
24-May-2018 12:32:39,175,0.013225,0.07215,1.0323875,0.618222222222222,-1.80755555555556,0.136777777777778,916.193333333333,-0.82395,0.5595,-0.2852,2.1906,9.4905,1.7074,57.395,-0.1012875,-0.004125,1.0887125,-0.89,-1.55,-0.210666666666667,3.74066666666667,0.10995,-0.46515,0.9083,-3.73983333333333,-5.63,3.689,763.6865,0,1,1,1
24-May-2018 12:32:39,175,0.013225,0.07215,1.0323875,0.618222222222222,-1.80755555555556,0.136777777777778,916.193333333333,-0.82395,0.5595,-0.2852,2.1906,9.4905,1.7074,57.395,-0.1012875,-0.004125,1.0887125,-0.89,-1.55,-0.210666666666667,3.74066666666667,0.10995,-0.46515,0.9083,-3.73983333333333,-5.63,3.689,763.6865,0,1,1,1
24-May-2018 12:32:39,175,0.013225,0.07215,1.0323875,0.618222222222222,-1.80755555555556,0.136777777777778,916.193333333333,-0.82395,0.5595,-0.2852,2.1906,9.4905,1.7074,57.395,-0.1012875,-0.004125,1.0887125,-0.89,-1.55,-0.210666666666667,3.74066666666667,0.10995,-0.46515,0.9083,-3.73983333333333,-5.63,3.689,763.6865,0,1,1,1
24-May-2018 12:32:39,175,0.013225,0.07215,1.0323875,0.618222222222222,-1.80755555555556,0.136777777777778,916.193333333333,-0.82395,0.5595,-0.2852,2.1906,9.4905,1.7074,57.395,-0.1012875,-0.004125,1.0887125,-0.89,-1.55,-0.210666666666667,3.74066666666667,0.10995,-0.46515,0.9083,-3.73983333333333,-5.63,3.689,763.6865,0,1,1,1
24-May-2018 12:32:40,-195.4,0.0249285714285714,0.0751285714285714,1.03924285714286,1.168125,1.37375,0.2215,915.638,-0.82718,0.55952,-0.28556,-4.33275,-0.562375,2.2485,59.878,-0.10248,1.22194,1.08862,-0.728222222222222,-0.857777777777778,-0.174333333333333,3.74233333333333,0.0689833333333333,-0.5693,0.837183333333333,-5.061,3.23925,2.195125,739.92,1,1,1,0
24-May-2018 12:32:40,-195.4,0.0249285714285714,0.0751285714285714,1.03924285714286,1.168125,1.37375,0.2215,915.638,-0.82718,0.55952,-0.28556,-4.33275,-0.562375,2.2485,59.878,-0.10248,1.22194,1.08862,-0.728222222222222,-0.857777777777778,-0.174333333333333,3.74233333333333,0.0689833333333333,-0.5693,0.837183333333333,-5.061,3.23925,2.195125,739.92,1,1,1,0
24-May-2018 12:32:40,-195.4,0.0249285714285714,0.0751285714285714,1.03924285714286,1.168125,1.37375,0.2215,915.638,-0.82718,0.55952,-0.28556,-4.33275,-0.562375,2.2485,59.878,-0.10248,1.22194,1.08862,-0.728222222222222,-0.857777777777778,-0.174333333333333,3.74233333333333,0.0689833333333333,-0.5693,0.837183333333333,-5.061,3.23925,2.195125,739.92,1,1,1,0
24-May-2018 12:32:40,-195.4,0.0249285714285714,0.0751285714285714,1.03924285714286,1.168125,1.37375,0.2215,915.638,-0.82718,0.55952,-0.28556,-4.33275,-0.562375,2.2485,59.878,-0.10248,1.22194,1.08862,-0.728222222222222,-0.857777777777778,-0.174333333333333,3.74233333333333,0.0689833333333333,-0.5693,0.837183333333333,-5.061,3.23925,2.195125,739.92,1,1,1,0
24-May-2018 12:32:41,-189.666666666667,0.0113714285714286,0.0841142857142857,1.0455,1.03875,-0.0277500000000001,1.02125,917.461166666667,-0.815425,0.57325,-0.284725,-0.144,-11.449,5.0976,59.878,-0.1049875,0.0010375,1.0891375,-0.353428571428571,-1.32857142857143,-0.617,3.774,0.103075,-0.386125,0.88065,-34.6523333333333,-28.9023333333333,-27.764,759.254,0,1,1,0
24-May-2018 12:32:41,-189.666666666667,0.0113714285714286,0.0841142857142857,1.0455,1.03875,-0.0277500000000001,1.02125,917.461166666667,-0.815425,0.57325,-0.284725,-0.144,-11.449,5.0976,59.878,-0.1049875,0.0010375,1.0891375,-0.353428571428571,-1.32857142857143,-0.617,3.774,0.103075,-0.386125,0.88065,-34.6523333333333,-28.9023333333333,-27.764,759.254,0,1,1,0
24-May-2018 12:32:41,-189.666666666667,0.0113714285714286,0.0841142857142857,1.0455,1.03875,-0.0277500000000001,1.02125,917.461166666667,-0.815425,0.57325,-0.284725,-0.144,-11.449,5.0976,59.878,-0.1049875,0.0010375,1.0891375,-0.353428571428571,-1.32857142857143,-0.617,3.774,0.103075,-0.386125,0.88065,-34.6523333333333,-28.9023333333333,-27.764,759.254,0,1,1,0
24-May-2018 12:32:41,-189.666666666667,0.0113714285714286,0.0841142857142857,1.0455,1.03875,-0.0277500000000001,1.02125,917.461166666667,-0.815425,0.57325,-0.284725,-0.144,-11.449,5.0976,59.878,-0.1049875,0.0010375,1.0891375,-0.353428571428571,-1.32857142857143,-0.617,3.774,0.103075,-0.386125,0.88065,-34.6523333333333,-28.9023333333333,-27.764,759.254,0,1,1,0
24-May-2018 12:32:42,-683.555555555556,0.0379,0.07396,1.03406,0.225833333333333,-0.718,0.225166666666667,919.495333333333,-0.81772,0.57496,-0.27734,0.749875,12.41475,0.543625,59.878,-0.105614285714286,-0.00508571428571429,1.08858571428571,-0.3144,-1.046,0.0382,3.75,0.10785,-0.481425,0.8874,-0.808,-0.137,-0.10675,774.429,1,1,1,0
24-May-2018 12:32:42,-683.555555555556,0.0379,0.07396,1.03406,0.225833333333333,-0.718,0.225166666666667,919.495333333333,-0.81772,0.57496,-0.27734,0.749875,12.41475,0.543625,59.878,-0.105614285714286,-0.00508571428571429,1.08858571428571,-0.3144,-1.046,0.0382,3.75,0.10785,-0.481425,0.8874,-0.808,-0.137,-0.10675,774.429,1,1,1,0
24-May-2018 12:32:42,-683.555555555556,0.0379,0.07396,1.03406,0.225833333333333,-0.718,0.225166666666667,919.495333333333,-0.81772,0.57496,-0.27734,0.749875,12.41475,0.543625,59.878,-0.105614285714286,-0.00508571428571429,1.08858571428571,-0.3144,-1.046,0.0382,3.75,0.10785,-0.481425,0.8874,-0.808,-0.137,-0.10675,774.429,1,1,1,0
24-May-2018 12:32:42,-683.555555555556,0.0379,0.07396,1.03406,0.225833333333333,-0.718,0.225166666666667,919.495333333333,-0.81772,0.57496,-0.27734,0.749875,12.41475,0.543625,59.878,-0.105614285714286,-0.00508571428571429,1.08858571428571,-0.3144,-1.046,0.0382,3.75,0.10785,-0.481425,0.8874,-0.808,-0.137,-0.10675,774.429,1,1,1,0
24-May-2018 12:32:43,605.111111111111,0.0349833333333333,0.0750166666666667,1.03203333333333,0.91475,3.00525,0.7165,921.0575,-0.81195,0.585675,-0.283525,2.8179,7.6258,1.1219,56.239,-0.10435,-0.00245,1.08965,-0.5865,-1.22666666666667,-0.668333333333333,3.766,0.10845,-0.48025,0.8918,0.315166666666667,0.376166666666667,-0.183,772.479333333333,0,1,1,0
24-May-2018 12:32:43,605.111111111111,0.0349833333333333,0.0750166666666667,1.03203333333333,0.91475,3.00525,0.7165,921.0575,-0.81195,0.585675,-0.283525,2.8179,7.6258,1.1219,56.239,-0.10435,-0.00245,1.08965,-0.5865,-1.22666666666667,-0.668333333333333,3.766,0.10845,-0.48025,0.8918,0.315166666666667,0.376166666666667,-0.183,772.479333333333,0,1,1,0
24-May-2018 12:32:43,605.111111111111,0.0349833333333333,0.0750166666666667,1.03203333333333,0.91475,3.00525,0.7165,921.0575,-0.81195,0.585675,-0.283525,2.8179,7.6258,1.1219,56.239,-0.10435,-0.00245,1.08965,-0.5865,-1.22666666666667,-0.668333333333333,3.766,0.10845,-0.48025,0.8918,0.315166666666667,0.376166666666667,-0.183,772.479333333333,0,1,1,0
24-May-2018 12:32:43,605.111111111111,0.0349833333333333,0.0750166666666667,1.03203333333333,0.91475,3.00525,0.7165,921.0575,-0.81195,0.585675,-0.283525,2.8179,7.6258,1.1219,56.239,-0.10435,-0.00245,1.08965,-0.5865,-1.22666666666667,-0.668333333333333,3.766,0.10845,-0.48025,0.8918,0.315166666666667,0.376166666666667,-0.183,772.479333333333,0,1,1,0
24-May-2018 12:32:44,584.75,-0.0106428571428571,0.0776285714285714,1.03257142857143,0.5124,2.9286,0.4392,912.359,-0.81176,0.58672,-0.28548,-9.06625,-10.458625,-3.05875,56.239,-0.0997571428571428,-0.00268571428571429,1.09035714285714,-0.441666666666667,-0.788333333333333,-0.0063333333333333,3.816,0.107016666666667,-0.478866666666667,0.8925,0.670857142857143,0.531571428571429,-0.130714285714286,772.479333333333,1,1,1,0
24-May-2018 12:32:44,584.75,-0.0106428571428571,0.0776285714285714,1.03257142857143,0.5124,2.9286,0.4392,912.359,-0.81176,0.58672,-0.28548,-9.06625,-10.458625,-3.05875,56.239,-0.0997571428571428,-0.00268571428571429,1.09035714285714,-0.441666666666667,-0.788333333333333,-0.0063333333333333,3.816,0.107016666666667,-0.478866666666667,0.8925,0.670857142857143,0.531571428571429,-0.130714285714286,772.479333333333,1,1,1,0
24-May-2018 12:32:44,584.75,-0.0106428571428571,0.0776285714285714,1.03257142857143,0.5124,2.9286,0.4392,912.359,-0.81176,0.58672,-0.28548,-9.06625,-10.458625,-3.05875,56.239,-0.0997571428571428,-0.00268571428571429,1.09035714285714,-0.441666666666667,-0.788333333333333,-0.0063333333333333,3.816,0.107016666666667,-0.478866666666667,0.8925,0.670857142857143,0.531571428571429,-0.130714285714286,772.479333333333,1,1,1,0
24-May-2018 12:32:44,584.75,-0.0106428571428571,0.0776285714285714,1.03257142857143,0.5124,2.9286,0.4392,912.359,-0.81176,0.58672,-0.28548,-9.06625,-10.458625,-3.05875,56.239,-0.0997571428571428,-0.00268571428571429,1.09035714285714,-0.441666666666667,-0.788333333333333,-0.0063333333333333,3.816,0.107016666666667,-0.478866666666667,0.8925,0.670857142857143,0.531571428571429,-0.130714285714286,0,1,1,1,0
24-May-2018 12:32:45,704.111111111111,0.015375,0.074175,1.0374,0.295166666666667,-0.182833333333333,0.3355,917.387,-0.8086,0.56875,-0.289,4.463,-7.9234,0.594,56.239,-0.1013,-0.003,1.09035,-0.4126,-1.24,-0.375,3.772,0.10254,-0.48886,0.90506,-0.488,-0.122,-0.1525,773.73375,1,1,1,0
24-May-2018 12:32:45,704.111111111111,0.015375,0.074175,1.0374,0.295166666666667,-0.182833333333333,0.3355,917.387,-0.8086,0.56875,-0.289,4.463,-7.9234,0.594,56.239,-0.1013,-0.003,1.09035,-0.4126,-1.24,-0.375,3.772,0.10254,-0.48886,0.90506,-0.488,-0.122,-0.1525,773.73375,1,1,1,0
24-May-2018 12:32:45,704.111111111111,0.015375,0.074175,1.0374,0.295166666666667,-0.182833333333333,0.3355,917.387,-0.8086,0.56875,-0.289,4.463,-7.9234,0.594,56.239,-0.1013,-0.003,1.09035,-0.4126,-1.24,-0.375,3.772,0.10254,-0.48886,0.90506,-0.488,-0.122,-0.1525,773.73375,1,1,1,0
24-May-2018 12:32:45,704.111111111111,0.015375,0.074175,1.0374,0.295166666666667,-0.182833333333333,0.3355,917.387,-0.8086,0.56875,-0.289,4.463,-7.9234,0.594,56.239,-0.1013,-0.003,1.09035,-0.4126,-1.24,-0.375,3.772,0.10254,-0.48886,0.90506,-0.488,-0.122,-0.1525,773.73375,1,1,1,0
24-May-2018 12:32:46,543.3,0.0217,0.074925,1.035425,0.560833333333333,-0.536,0.224833333333333,919.185,-0.81814,0.5832,-0.28168,8.77288888888889,17.9155555555556,4.87822222222222,56.185,-0.102285714285714,-0.00348571428571429,1.08767142857143,-0.6678,-1.032,-0.29,3.75,0.11345,-0.402925,0.902425,18.195,2.1222,-1.878,729.508,1,1,1,0
24-May-2018 12:32:46,543.3,0.0217,0.074925,1.035425,0.560833333333333,-0.536,0.224833333333333,919.185,-0.81814,0.5832,-0.28168,8.77288888888889,17.9155555555556,4.87822222222222,56.185,-0.102285714285714,-0.00348571428571429,1.08767142857143,-0.6678,-1.032,-0.29,3.75,0.11345,-0.402925,0.902425,18.195,2.1222,-1.878,729.508,1,1,1,0
24-May-2018 12:32:46,543.3,0.0217,0.074925,1.035425,0.560833333333333,-0.536,0.224833333333333,919.185,-0.81814,0.5832,-0.28168,8.77288888888889,17.9155555555556,4.87822222222222,56.185,-0.102285714285714,-0.00348571428571429,1.08767142857143,-0.6678,-1.032,-0.29,3.75,0.11345,-0.402925,0.902425,18.195,2.1222,-1.878,729.508,1,1,1,0
24-May-2018 12:32:46,543.3,0.0217,0.074925,1.035425,0.560833333333333,-0.536,0.224833333333333,919.185,-0.81814,0.5832,-0.28168,8.77288888888889,17.9155555555556,4.87822222222222,56.185,-0.102285714285714,-0.00348571428571429,1.08767142857143,-0.6678,-1.032,-0.29,3.75,0.11345,-0.402925,0.902425,18.195,2.1222,-1.878,729.508,1,1,1,0
24-May-2018 12:32:47,-177.5,0.0315111111111111,0.0728333333333333,1.03525555555556,0.5045,-1.9625,0.1075,919.185,-0.81695,0.580975,-0.282475,-0.947555555555556,-8.50644444444445,-1.48077777777778,56.185,-0.10205,-0.00355,1.0899875,-0.434,-0.91,-0.2898,3.75,0.148766666666667,-0.537433333333333,0.797666666666667,-8.0368,2.9512,-0.2438,811.206333333333,1,1,1,0
24-May-2018 12:32:47,-177.5,0.0315111111111111,0.0728333333333333,1.03525555555556,0.5045,-1.9625,0.1075,919.185,-0.81695,0.580975,-0.282475,-0.947555555555556,-8.50644444444445,-1.48077777777778,56.185,-0.10205,-0.00355,1.0899875,-0.434,-0.91,-0.2898,3.75,0.148766666666667,-0.537433333333333,0.797666666666667,-8.0368,2.9512,-0.2438,811.206333333333,1,1,1,0
24-May-2018 12:32:47,-177.5,0.0315111111111111,0.0728333333333333,1.03525555555556,0.5045,-1.9625,0.1075,919.185,-0.81695,0.580975,-0.282475,-0.947555555555556,-8.50644444444445,-1.48077777777778,56.185,-0.10205,-0.00355,1.0899875,-0.434,-0.91,-0.2898,3.75,0.148766666666667,-0.537433333333333,0.797666666666667,-8.0368,2.9512,-0.2438,811.206333333333,1,1,1,0
24-May-2018 12:32:47,-177.5,0.0315111111111111,0.0728333333333333,1.03525555555556,0.5045,-1.9625,0.1075,919.185,-0.81695,0.580975,-0.282475,-0.947555555555556,-8.50644444444445,-1.48077777777778,56.185,-0.10205,-0.00355,1.0899875,-0.434,-0.91,-0.2898,3.75,0.148766666666667,-0.537433333333333,0.797666666666667,-8.0368,2.9512,-0.2438,811.206333333333,1,1,1,0
24-May-2018 12:32:48,-239.777777777778,0.0166833333333333,0.0764333333333333,1.02903333333333,0.845142857142857,-0.154142857142857,0.383428571428571,919.185,-0.809675,0.5792,-0.289475,-12.990125,-8.3025,-1.927875,57.34825,-0.1019,-0.0023,1.091075,-0.543333333333333,-0.99,-0.321333333333333,3.766,0.110166666666667,-0.487766666666667,0.8857,0.808,0.7015,-0.07625,763.139,1,1,1,0
24-May-2018 12:32:48,-239.777777777778,0.0166833333333333,0.0764333333333333,1.02903333333333,0.845142857142857,-0.154142857142857,0.383428571428571,919.185,-0.809675,0.5792,-0.289475,-12.990125,-8.3025,-1.927875,57.34825,-0.1019,-0.0023,1.091075,-0.543333333333333,-0.99,-0.321333333333333,3.766,0.110166666666667,-0.487766666666667,0.8857,0.808,0.7015,-0.07625,763.139,1,1,1,0
24-May-2018 12:32:48,-239.777777777778,0.0166833333333333,0.0764333333333333,1.02903333333333,0.845142857142857,-0.154142857142857,0.383428571428571,919.185,-0.809675,0.5792,-0.289475,-12.990125,-8.3025,-1.927875,57.34825,-0.1019,-0.0023,1.091075,-0.543333333333333,-0.99,-0.321333333333333,3.766,0.110166666666667,-0.487766666666667,0.8857,0.808,0.7015,-0.07625,763.139,1,1,1,0
24-May-2018 12:32:48,-239.777777777778,0.0166833333333333,0.0764333333333333,1.02903333333333,0.845142857142857,-0.154142857142857,0.383428571428571,919.185,-0.809675,0.5792,-0.289475,-12.990125,-8.3025,-1.927875,57.34825,-0.1019,-0.0023,1.091075,-0.543333333333333,-0.99,-0.321333333333333,3.766,0.110166666666667,-0.487766666666667,0.8857,0.808,0.7015,-0.07625,763.139,1,1,1,0
24-May-2018 12:32:49,-212.1,0.0166833333333333,0.0764333333333333,1.02903333333333,0.845142857142857,-0.154142857142857,0.383428571428571,919.185,-0.80695,0.58195,-0.2859,15.79,1.48,4.07,60.838,-0.103,-0.0049,1.0876,-0.543333333333333,-0.99,-0.321333333333333,3.766,0.110166666666667,-0.487766666666667,0.8857,0.808,0.7015,-0.07625,763.139,0,1,1,1
24-May-2018 12:32:49,-212.1,0.0166833333333333,0.0764333333333333,1.02903333333333,0.845142857142857,-0.154142857142857,0.383428571428571,919.185,-0.80695,0.58195,-0.2859,15.79,1.48,4.07,60.838,-0.103,-0.0049,1.0876,-0.543333333333333,-0.99,-0.321333333333333,3.766,0.110166666666667,-0.487766666666667,0.8857,0.808,0.7015,-0.07625,763.139,0,1,1,1
24-May-2018 12:32:49,-212.1,0.0166833333333333,0.0764333333333333,1.02903333333333,0.845142857142857,-0.154142857142857,0.383428571428571,919.185,-0.80695,0.58195,-0.2859,15.79,1.48,4.07,60.838,-0.103,-0.0049,1.0876,-0.543333333333333,-0.99,-0.321333333333333,3.766,0.110166666666667,-0.487766666666667,0.8857,0.808,0.7015,-0.07625,763.139,0,1,1,1
24-May-2018 12:32:49,-212.1,0,0,0,0,0,0,919.185,-0.80695,0.58195,-0.2859,15.79,1.48,4.07,60.838,-0.103,-0.0049,1.0876,0,0,0,0,0,0,0,0,0,-0.07625,0,0,1,1,1
24-May-2018 12:32:50,-30.5555555555556,0.019975,0.076375,1.0383,0.549,0.0045,0.366,919.185,-0.8142,0.58432,-0.27992,6.455625,18.30375,1.197875,60.838,-0.100166666666667,-0.0024,1.09066666666667,-0.665,-0.665,-0.18,3.75,0.1098,-0.4891,0.8863,0.71675,0.488,-0.07625,760.413,0,1,1,0
24-May-2018 12:32:50,-30.5555555555556,0.019975,0.076375,1.0383,0.549,0.0045,0.366,919.185,-0.8142,0.58432,-0.27992,6.455625,18.30375,1.197875,60.838,-0.100166666666667,-0.0024,1.09066666666667,-0.665,-0.665,-0.18,3.75,0.1098,-0.4891,0.8863,0.71675,0.488,-0.07625,760.413,0,1,1,0
24-May-2018 12:32:50,-30.5555555555556,0.019975,0.076375,1.0383,0.549,0.0045,0.366,919.185,-0.8142,0.58432,-0.27992,6.455625,18.30375,1.197875,60.838,-0.100166666666667,-0.0024,1.09066666666667,-0.665,-0.665,-0.18,3.75,0.1098,-0.4891,0.8863,0.71675,0.488,0,760.413,0,1,1,0
24-May-2018 12:32:50,-30.5555555555556,0.019975,0.076375,1.0383,0.549,0.0045,0.366,919.185,-0.8142,0.58432,-0.27992,6.455625,18.30375,1.197875,60.838,-0.100166666666667,-0.0024,1.09066666666667,-0.665,-0.665,-0.18,3.75,0.1098,-0.4891,0.8863,0.71675,0.488,0,760.413,0,1,1,0
24-May-2018 12:32:51,134.8,0.01992,0.07744,1.03958,0.5795,0.764666666666667,0.406666666666667,919.185,-0.8178,0.5741,-0.2829,-0.232777777777778,-5.79355555555556,-0.857888888888889,60.838,-0.101466666666667,-1.02041666666667,1.09011666666667,-0.485,-1,-0.3,3.75,0.11135,-0.4897,0.8854,0.738555555555556,0.494666666666667,-0.061,760.1695,0,1,1,1
24-May-2018 12:32:51,134.8,0.01992,0.07744,1.03958,0.5795,0.764666666666667,0.406666666666667,919.185,-0.8178,0.5741,-0.2829,-0.232777777777778,-5.79355555555556,-0.857888888888889,60.838,-0.101466666666667,-1.02041666666667,1.09011666666667,-0.485,-1,-0.3,3.75,0.11135,-0.4897,0.8854,0.738555555555556,0.494666666666667,-0.061,760.1695,0,1,1,1
24-May-2018 12:32:51,134.8,0.01992,0.07744,1.03958,0.5795,0.764666666666667,0.406666666666667,0,-0.8178,0.5741,-0.2829,-0.232777777777778,-5.79355555555556,-0.857888888888889,60.838,-0.101466666666667,-1.02041666666667,1.09011666666667,-0.485,-1,-0.3,3.75,0.11135,-0.4897,0.8854,0.738555555555556,0.494666666666667,-0.061,760.1695,0,1,1,1
24-May-2018 12:32:51,134.8,0.01992,0.07744,1.03958,0.5795,0.764666666666667,0.406666666666667,0,-0.8178,0.5741,-0.2829,-0.232777777777778,-5.79355555555556,-0.857888888888889,60.838,-0.101466666666667,-1.02041666666667,1.09011666666667,-0.485,-1,-0.3,3.75,0.11135,-0.4897,0.8854,0.738555555555556,0.494666666666667,-0.061,760.1695,0,1,1,1
24-May-2018 12:32:52,17.4545454545455,0.02948,0.07466,1.03238,0.122,-1.54,0.0413333333333333,918.838,-0.81435,0.5847,-0.28545,-19,-7.7,-2.996,62.6695,-0.1042,-0.00285,1.09085,-0.48,-0.73,-0.06,3.75,0.112585714285714,-0.491928571428571,0.883842857142857,-0.2135,0.122,-0.1525,759.183,0,1,1,1
24-May-2018 12:32:52,17.4545454545455,0.02948,0.07466,1.03238,0.122,-1.54,0.0413333333333333,918.838,-0.81435,0.5847,-0.28545,-19,-7.7,-2.996,62.6695,-0.1042,-0.00285,1.09085,-0.48,-0.73,-0.06,3.75,0.112585714285714,-0.491928571428571,0.883842857142857,-0.2135,0.122,-0.1525,759.183,0,1,1,1
24-May-2018 12:32:52,17.4545454545455,0.02948,0.07466,1.03238,0.122,-1.54,0.0413333333333333,918.838,-0.81435,0.5847,-0.28545,-19,-7.7,-2.996,62.6695,-0.1042,-0.00285,1.09085,-0.48,-0.73,-0.06,3.75,0.112585714285714,-0.491928571428571,0.883842857142857,-0.2135,0.122,-0.1525,759.183,0,1,1,1
24-May-2018 12:32:52,17.4545454545455,0.02948,0.07466,1.03238,0.122,-1.54,0.0413333333333333,918.838,-0.81435,0.5847,-0.28545,-19,-7.7,-2.996,62.6695,-0.1042,-0.00285,1.09085,-0.48,-0.73,-0.06,3.75,0.112585714285714,-0.491928571428571,0.883842857142857,-0.2135,0.122,-0.1525,759.183,0,1,1,1
24-May-2018 12:32:53,273.6,0.04224,0.07506,1.03776,0.630333333333333,-0.251166666666667,0.3965,920.761,-0.808233333333333,0.5795,-0.292866666666667,5.03166666666667,-3.96833333333333,-1.00483333333333,64.501,-0.103085714285714,-0.00297142857142857,1.09048571428571,-0.381666666666667,-0.83,-0.229666666666667,3.754,0.111411111111111,-0.490333333333333,0.884977777777778,0.697,0.522857142857143,-0.235285714285714,759.338,0,1,1,1
24-May-2018 12:32:53,273.6,0.04224,0.07506,1.03776,0.630333333333333,-0.251166666666667,0.3965,920.761,-0.808233333333333,0.5795,-0.292866666666667,5.03166666666667,-3.96833333333333,-1.00483333333333,64.501,-0.103085714285714,-0.00297142857142857,1.09048571428571,-0.381666666666667,-0.83,-0.229666666666667,3.754,0.111411111111111,-0.490333333333333,0.884977777777778,0.697,0.522857142857143,-0.235285714285714,759.338,0,1,1,1
24-May-2018 12:32:53,273.6,0.04224,0.07506,1.03776,0.630333333333333,-0.251166666666667,0.3965,920.761,-0.808233333333333,0.5795,-0.292866666666667,5.03166666666667,-3.96833333333333,-1.00483333333333,64.501,-0.103085714285714,-0.00297142857142857,1.09048571428571,-0.381666666666667,-0.83,-0.229666666666667,3.754,0.111411111111111,-0.490333333333333,0.884977777777778,0.697,0.522857142857143,-0.235285714285714,759.338,0,1,1,1
24-May-2018 12:32:53,273.6,0.04224,0.07506,1.03776,0.630333333333333,-0.251166666666667,0.3965,920.761,-0.808233333333333,0.5795,-0.292866666666667,5.03166666666667,-3.96833333333333,-1.00483333333333,64.501,-0.103085714285714,-0.00297142857142857,1.09048571428571,-0.381666666666667,-0.83,-0.229666666666667,3.754,0.111411111111111,-0.490333333333333,0.884977777777778,0.697,0.522857142857143,-0.235285714285714,759.338,0,1,1,1
24-May-2018 12:32:54,-84.4545454545455,0.0280333333333333,0.07795,1.03451666666667,0.862714285714286,1.96114285714286,0.315571428571429,922.249333333333,-0.814,0.570075,-0.277975,11.444625,11.54625,1.8065,64.501,-0.102228571428571,-0.00301428571428571,1.08981428571429,-0.475555555555556,-0.935555555555556,-0.322111111111111,3.774,0.112983333333333,-0.492833333333333,0.883433333333333,0.843833333333333,0.549,-0.0813333333333333,759.266,0,1,1,1
24-May-2018 12:32:54,-84.4545454545455,0.0280333333333333,0.07795,1.03451666666667,0.862714285714286,1.96114285714286,0.315571428571429,922.249333333333,-0.814,0.570075,-0.277975,11.444625,11.54625,1.8065,64.501,-0.102228571428571,-0.00301428571428571,1.08981428571429,-0.475555555555556,-0.935555555555556,-0.322111111111111,3.774,0.112983333333333,-0.492833333333333,0.883433333333333,0.843833333333333,0.549,-0.0813333333333333,759.266,0,1,1,1
24-May-2018 12:32:54,-84.4545454545455,0.0280333333333333,0.07795,1.03451666666667,0.862714285714286,1.96114285714286,0.315571428571429,922.249333333333,-0.814,0.570075,-0.277975,11.444625,11.54625,1.8065,64.501,-0.102228571428571,-0.00301428571428571,1.08981428571429,-0.475555555555556,-0.935555555555556,-0.322111111111111,3.774,0.112983333333333,-0.492833333333333,0.883433333333333,0.843833333333333,0.549,-0.0813333333333333,759.266,0,1,1,1
24-May-2018 12:32:54,-84.4545454545455,0.0280333333333333,0.07795,1.03451666666667,0.862714285714286,1.96114285714286,0.315571428571429,922.249333333333,-0.814,0.570075,-0.277975,11.444625,11.54625,1.8065,64.501,-0.102228571428571,-0.00301428571428571,1.08981428571429,-0.475555555555556,-0.935555555555556,-0.322111111111111,3.774,0.112983333333333,-0.492833333333333,0.883433333333333,0.843833333333333,0.549,-0.0813333333333333,759.266,0,1,1,1
24-May-2018 12:32:55,22,0.0412666666666667,0.0775833333333333,1.0352,0.731833333333333,-1.37833333333333,0.172833333333333,919.801666666667,-0.823133333333333,0.570533333333333,-0.291,1.5272,4.9528,-2.386,64.501,-0.10295,-0.00278333333333333,1.09115,-0.461666666666667,-0.82,-0.1,3.754,0.113557142857143,-0.494,0.884014285714286,0.22875,0.3355,-0.13725,758.939,0,1,1,1
24-May-2018 12:32:55,22,0.0412666666666667,0.0775833333333333,1.0352,0.731833333333333,-1.37833333333333,0.172833333333333,919.801666666667,-0.823133333333333,0.570533333333333,-0.291,1.5272,4.9528,-2.386,64.501,-0.10295,-0.00278333333333333,1.09115,-0.461666666666667,-0.82,-0.1,3.754,0.113557142857143,-0.494,0.884014285714286,0.22875,0.3355,-0.13725,758.939,0,1,1,1
24-May-2018 12:32:55,22,0.0412666666666667,0.0775833333333333,1.0352,0.731833333333333,-1.37833333333333,0.172833333333333,919.801666666667,-0.823133333333333,0.570533333333333,-0.291,1.5272,4.9528,-2.386,64.501,-0.10295,-0.00278333333333333,1.09115,-0.461666666666667,-0.82,-0.1,3.754,0.113557142857143,-0.494,0.884014285714286,0.22875,0.3355,-0.13725,758.939,0,1,1,1
24-May-2018 12:32:55,22,0.0412666666666667,0.0775833333333333,1.0352,0.731833333333333,-1.37833333333333,0.172833333333333,919.801666666667,-0.823133333333333,0.570533333333333,-0.291,1.5272,4.9528,-2.386,64.501,-0.10295,-0.00278333333333333,1.09115,-0.461666666666667,-0.82,-0.1,3.754,0.113557142857143,-0.494,0.884014285714286,0.22875,0.3355,-0.13725,758.939,0,1,1,1
24-May-2018 12:32:56,47.0909090909091,0.0484142857142857,0.0762142857142857,1.03708571428571,0.592571428571429,2.70057142857143,0.705857142857143,921.720666666667,-0.81925,0.567125,-0.28555,1.5022,-8.6701,1.5792,63.25375,-0.102425,-0.0029125,1.0900875,-0.416666666666667,-1.07888888888889,-0.484444444444444,3.75,0.112833333333333,-0.4932,0.883833333333333,0.470571428571429,0.418285714285714,-0.252714285714286,759.4435,0,1,1,0
24-May-2018 12:32:56,47.0909090909091,0.0484142857142857,0.0762142857142857,1.03708571428571,0.592571428571429,2.70057142857143,0.705857142857143,921.720666666667,-0.81925,0.567125,-0.28555,1.5022,-8.6701,1.5792,63.25375,-0.102425,-0.0029125,1.0900875,-0.416666666666667,-1.07888888888889,-0.484444444444444,3.75,0.112833333333333,-0.4932,0.883833333333333,0.470571428571429,0.418285714285714,-0.252714285714286,759.4435,0,1,1,0
24-May-2018 12:32:56,47.0909090909091,0.0484142857142857,0.0762142857142857,1.03708571428571,0.592571428571429,2.70057142857143,0.705857142857143,921.720666666667,-0.81925,0.567125,-0.28555,1.5022,-8.6701,1.5792,63.25375,-0.102425,-0.0029125,1.0900875,-0.416666666666667,-1.07888888888889,-0.484444444444444,3.75,0.112833333333333,-0.4932,0.883833333333333,0.470571428571429,0.418285714285714,-0.252714285714286,759.4435,0,1,1,0
24-May-2018 12:32:56,47.0909090909091,0.0484142857142857,0.0762142857142857,1.03708571428571,0.592571428571429,2.70057142857143,0.705857142857143,921.720666666667,-0.81925,0.567125,-0.28555,1.5022,-8.6701,1.5792,63.25375,-0.102425,-0.0029125,1.0900875,-0.416666666666667,-1.07888888888889,-0.484444444444444,3.75,0.112833333333333,-0.4932,0.883833333333333,0.470571428571429,0.418285714285714,-0.252714285714286,759.4435,0,1,1,0
24-May-2018 12:32:57,-1134.75,0.0189285714285714,0.0778571428571429,1.03005714285714,0.660833333333333,-1.34783333333333,0.224,920.616,-0.81665,0.5755,-0.2801,9.38733333333333,9.4095,2.00366666666667,62.838,-0.1005,-0.00296666666666667,1.09093333333333,-0.7,-1.0925,-0.4225,3.839,0.1139,-0.49415,0.88075,0.04575,0.19825,-0.19825,758.459333333333,1,1,1,0
24-May-2018 12:32:57,-1134.75,0.0189285714285714,0.0778571428571429,1.03005714285714,0.660833333333333,-1.34783333333333,0.224,920.616,-0.81665,0.5755,-0.2801,9.38733333333333,9.4095,2.00366666666667,62.838,-0.1005,-0.00296666666666667,1.09093333333333,-0.7,-1.0925,-0.4225,3.839,0.1139,-0.49415,0.88075,0.04575,0.19825,-0.19825,758.459333333333,1,1,1,0
24-May-2018 12:32:57,-1134.75,0.0189285714285714,0.0778571428571429,1.03005714285714,0.660833333333333,-1.34783333333333,0.224,920.616,-0.81665,0.5755,-0.2801,9.38733333333333,9.4095,2.00366666666667,62.838,-0.1005,-0.00296666666666667,1.09093333333333,-0.7,-1.0925,-0.4225,3.839,0.1139,-0.49415,0.88075,0.04575,0.19825,-0.19825,758.459333333333,1,1,1,0
24-May-2018 12:32:57,-1134.75,0.0189285714285714,0.0778571428571429,1.03005714285714,0.660833333333333,-1.34783333333333,0.224,920.616,-0.81665,0.5755,-0.2801,9.38733333333333,9.4095,2.00366666666667,62.838,-0.1005,-0.00296666666666667,1.09093333333333,-0.7,-1.0925,-0.4225,3.839,0.1139,-0.49415,0.88075,0.04575,0.19825,-0.19825,758.459333333333,1,1,1,0
24-May-2018 12:32:58,378.3,0.038575,0.075425,1.0356,0.833777777777778,-0.370222222222222,0.325333333333333,917.399,-0.81965,0.569275,-0.28645,-0.952,1.35644444444444,0.828111111111111,62.4735,-0.10065,-0.00395,1.09035,-0.508375,-0.78875,0.070125,3.75,0.1164,-0.484533333333333,0.882466666666667,0.688142857142857,1.00185714285714,-0.505285714285714,757.672333333333,0,1,1,0
24-May-2018 12:32:58,378.3,0.038575,0.075425,1.0356,0.833777777777778,-0.370222222222222,0.325333333333333,917.399,-0.81965,0.569275,-0.28645,-0.952,1.35644444444444,0.828111111111111,62.4735,-0.10065,-0.00395,1.09035,-0.508375,-0.78875,0.070125,3.75,0.1164,-0.484533333333333,0.882466666666667,0.688142857142857,1.00185714285714,-0.505285714285714,757.672333333333,0,1,1,0
24-May-2018 12:32:58,378.3,0.038575,0.075425,1.0356,0.833777777777778,-0.370222222222222,0.325333333333333,917.399,-0.81965,0.569275,-0.28645,-0.952,1.35644444444444,0.828111111111111,62.4735,-0.10065,-0.00395,1.09035,-0.508375,-0.78875,0.070125,3.75,0.1164,-0.484533333333333,0.882466666666667,0.688142857142857,1.00185714285714,-0.505285714285714,757.672333333333,0,1,1,0
24-May-2018 12:32:58,378.3,0.038575,0.075425,1.0356,0.833777777777778,-0.370222222222222,0.325333333333333,917.399,-0.81965,0.569275,-0.28645,-0.952,1.35644444444444,0.828111111111111,62.4735,-0.10065,-0.00395,1.09035,-0.508375,-0.78875,0.070125,3.75,0.1164,-0.484533333333333,0.882466666666667,0.688142857142857,1.00185714285714,-0.505285714285714,757.672333333333,0,1,1,0
24-May-2018 12:32:59,581.8,0.0363625,0.0726625,1.035575,0.420333333333333,0.0564444444444444,0.338888888888889,917.399,-0.81208,0.5847,-0.2853,-4.599875,-1.850125,-2.03125,62.109,-0.103471428571429,-0.00282857142857143,1.08852857142857,-0.597142857142857,-0.78,-0.153714285714286,3.74233333333333,0.112933333333333,-0.490583333333333,0.884933333333333,0.75475,0.648125,-0.1525,759.556333333333,1,1,1,1
24-May-2018 12:32:59,581.8,0.0363625,0.0726625,1.035575,0.420333333333333,0.0564444444444444,0.338888888888889,917.399,-0.81208,0.5847,-0.2853,-4.599875,-1.850125,-2.03125,62.109,-0.103471428571429,-0.00282857142857143,1.08852857142857,-0.597142857142857,-0.78,-0.153714285714286,3.74233333333333,0.112933333333333,-0.490583333333333,0.884933333333333,0.75475,0.648125,-0.1525,759.556333333333,1,1,1,1
24-May-2018 12:32:59,581.8,0.0363625,0.0726625,1.035575,0.420333333333333,0.0564444444444444,0.338888888888889,917.399,-0.81208,0.5847,-0.2853,-4.599875,-1.850125,-2.03125,62.109,-0.103471428571429,-0.00282857142857143,1.08852857142857,-0.597142857142857,-0.78,-0.153714285714286,3.74233333333333,0.112933333333333,-0.490583333333333,0.884933333333333,0.75475,0.648125,-0.1525,759.556333333333,1,1,1,1
24-May-2018 12:32:59,581.8,0.0363625,0.0726625,1.035575,0.420333333333333,0.0564444444444444,0.338888888888889,917.399,-0.81208,0.5847,-0.2853,-4.599875,-1.850125,-2.03125,62.109,-0.103471428571429,-0.00282857142857143,1.08852857142857,-0.597142857142857,-0.78,-0.153714285714286,3.74233333333333,0.112933333333333,-0.490583333333333,0.884933333333333,0.75475,0.648125,-0.1525,759.556333333333,1,1,1,1
24-May-2018 12:33:00,1002.7,0.0236,0.0757125,1.0353875,0.8783,2.4207,0.549,917.399,-0.818975,0.566425,-0.28175,1.78966666666667,-1.97033333333333,-0.526111111111111,60.8865,-0.101785714285714,-0.0027,1.09015714285714,-0.537142857142857,-1.05857142857143,-0.318428571428571,3.735,0.111916666666667,-0.48795,0.887666666666667,0.5856,0.7562,-0.061,759.556333333333,1,1,1,1
24-May-2018 12:33:00,1002.7,0.0236,0.0757125,1.0353875,0.8783,2.4207,0.549,917.399,-0.818975,0.566425,-0.28175,1.78966666666667,-1.97033333333333,-0.526111111111111,60.8865,-0.101785714285714,-0.0027,1.09015714285714,-0.537142857142857,-1.05857142857143,-0.318428571428571,3.735,0.111916666666667,-0.48795,0.887666666666667,0.5856,0.7562,-0.061,759.556333333333,1,1,1,1
24-May-2018 12:33:00,1002.7,0.0236,0.0757125,1.0353875,0.8783,2.4207,0.549,0,-0.818975,0.566425,-0.28175,1.78966666666667,-1.97033333333333,-0.526111111111111,60.8865,-0.101785714285714,-0.0027,1.09015714285714,-0.537142857142857,-1.05857142857143,-0.318428571428571,3.735,0.111916666666667,-0.48795,0.887666666666667,0.5856,0.7562,-0.061,759.556333333333,1,1,1,1
24-May-2018 12:33:00,1002.7,0.0236,0.0757125,1.0353875,0.8783,2.4207,0.549,0,-0.818975,0.566425,-0.28175,1.78966666666667,-1.97033333333333,-0.526111111111111,60.8865,-0.101785714285714,-0.0027,1.09015714285714,-0.537142857142857,-1.05857142857143,-0.318428571428571,3.735,0.111916666666667,-0.48795,0.887666666666667,0.5856,0.7562,-0.061,0,1,1,1,1
24-May-2018 12:33:01,428.555555555556,0.0199666666666667,0.0744666666666667,1.0398,-0.0188333333333333,-2.18033333333333,0.0721666666666667,918.583,-0.818775,0.5718,-0.28245,1.96128571428571,-4.631,3.83257142857143,59.664,-0.102166666666667,-0.00311666666666667,1.09023333333333,-0.4525,-0.82625,0.100625,3.733,0.110325,-0.4844,0.88855,0.439,0.4148,-0.1098,762.8175,1,1,1,1
24-May-2018 12:33:01,428.555555555556,0.0199666666666667,0.0744666666666667,1.0398,-0.0188333333333333,-2.18033333333333,0.0721666666666667,918.583,-0.818775,0.5718,-0.28245,1.96128571428571,-4.631,3.83257142857143,59.664,-0.102166666666667,-0.00311666666666667,1.09023333333333,-0.4525,-0.82625,0.100625,3.733,0.110325,-0.4844,0.88855,0.439,0.4148,-0.1098,762.8175,1,1,1,1
24-May-2018 12:33:01,428.555555555556,0.0199666666666667,0.0744666666666667,1.0398,-0.0188333333333333,-2.18033333333333,0.0721666666666667,918.583,-0.818775,0.5718,-0.28245,1.96128571428571,-4.631,3.83257142857143,59.664,-0.102166666666667,-0.00311666666666667,1.09023333333333,-0.4525,-0.82625,0.100625,3.733,0.110325,-0.4844,0.88855,0.439,0.4148,-0.1098,762.8175,1,1,1,1
24-May-2018 12:33:01,428.555555555556,0.0199666666666667,0.0744666666666667,1.0398,-0.0188333333333333,-2.18033333333333,0.0721666666666667,918.583,-0.818775,0.5718,-0.28245,1.96128571428571,-4.631,3.83257142857143,59.664,-0.102166666666667,-0.00311666666666667,1.09023333333333,-0.4525,-0.82625,0.100625,3.733,0.110325,-0.4844,0.88855,0.439,0.4148,-0.1098,762.8175,1,1,1,1
24-May-2018 12:33:02,-14.8181818181818,0.04465,0.0704833333333333,1.03363333333333,0.6588,-0.8876,0.3538,920.5938,-0.81785,0.5835,-0.28525,-2.58833333333333,4.7255,2.44933333333333,59.664,-0.101916666666667,-0.00283333333333333,1.09105,-0.36,-0.818333333333333,-0.28,3.737,0.111425,-0.48805,0.8869,0.345666666666667,0.366,-0.305,762.348333333333,1,1,1,1
24-May-2018 12:33:02,-14.8181818181818,0.04465,0.0704833333333333,1.03363333333333,0.6588,-0.8876,0.3538,920.5938,-0.81785,0.5835,-0.28525,-2.58833333333333,4.7255,2.44933333333333,59.664,-0.101916666666667,-0.00283333333333333,1.09105,-0.36,-0.818333333333333,-0.28,3.737,0.111425,-0.48805,0.8869,0.345666666666667,0.366,-0.305,762.348333333333,1,1,1,1
24-May-2018 12:33:02,-14.8181818181818,0.04465,0.0704833333333333,1.03363333333333,0.6588,-0.8876,0.3538,920.5938,-0.81785,0.5835,-0.28525,-2.58833333333333,4.7255,2.44933333333333,59.664,-0.101916666666667,-0.00283333333333333,1.09105,-0.36,-0.818333333333333,-0.28,3.737,0.111425,-0.48805,0.8869,0.345666666666667,0.366,-0.305,762.348333333333,1,1,1,1
24-May-2018 12:33:02,-14.8181818181818,0.04465,0.0704833333333333,1.03363333333333,0.6588,-0.8876,0.3538,920.5938,-0.81785,0.5835,-0.28525,-2.58833333333333,4.7255,2.44933333333333,59.664,-0.101916666666667,-0.00283333333333333,1.09105,-0.36,-0.818333333333333,-0.28,3.737,0.111425,-0.48805,0.8869,0.345666666666667,0.366,-0.305,762.348333333333,1,1,1,1
24-May-2018 12:33:03,-132.777777777778,0.0366857142857143,0.0746571428571429,1.03384285714286,0.91475,-0.242,0.382,921.9566,-0.811175,0.5804,-0.281,0.28275,2.7745,0.359875,60.2976666666667,-0.102283333333333,-0.00291666666666667,1.09058333333333,-0.4375,-0.9725,-0.269625,3.7415,0.111483333333333,-0.488616666666667,0.887666666666667,0.203333333333333,0.386333333333333,-0.0813333333333333,763.149666666667,1,1,1,1
24-May-2018 12:33:03,-132.777777777778,0.0366857142857143,0.0746571428571429,1.03384285714286,0.91475,-0.242,0.382,921.9566,-0.811175,0.5804,-0.281,0.28275,2.7745,0.359875,60.2976666666667,-0.102283333333333,-0.00291666666666667,1.09058333333333,-0.4375,-0.9725,-0.269625,3.7415,0.111483333333333,-0.488616666666667,0.887666666666667,0.203333333333333,0.386333333333333,-0.0813333333333333,763.149666666667,1,1,1,1
24-May-2018 12:33:03,-132.777777777778,0.0366857142857143,0.0746571428571429,1.03384285714286,0.91475,-0.242,0.382,921.9566,-0.811175,0.5804,-0.281,0.28275,2.7745,0.359875,60.2976666666667,-0.102283333333333,-0.00291666666666667,1.09058333333333,-0.4375,-0.9725,-0.269625,3.7415,0.111483333333333,-0.488616666666667,0.887666666666667,0.203333333333333,0.386333333333333,-0.0813333333333333,763.149666666667,1,1,1,1
24-May-2018 12:33:03,-132.777777777778,0.0366857142857143,0.0746571428571429,1.03384285714286,0.91475,-0.242,0.382,921.9566,-0.811175,0.5804,-0.281,0.28275,2.7745,0.359875,60.2976666666667,-0.102283333333333,-0.00291666666666667,1.09058333333333,-0.4375,-0.9725,-0.269625,3.7415,0.111483333333333,-0.488616666666667,0.887666666666667,0.203333333333333,0.386333333333333,-0.0813333333333333,763.149666666667,1,1,1,1
24-May-2018 12:33:04,-111.25,0.0336,0.07485,1.0323,0.741285714285714,-0.928,0.174714285714286,920.494,-0.8169,0.5817,-0.283925,-2.71625,-1.43825,0.43525,61.565,-0.101514285714286,-0.00427142857142857,1.09062857142857,-0.375,-1.0925,0.001,3.744,0.11095,-0.48755,0.886375,0.223666666666667,0.305,-0.223666666666667,763.316,0,1,1,0
24-May-2018 12:33:04,-111.25,0.0336,0.07485,1.0323,0.741285714285714,-0.928,0.174714285714286,920.494,-0.8169,0.5817,-0.283925,-2.71625,-1.43825,0.43525,61.565,-0.101514285714286,-0.00427142857142857,1.09062857142857,-0.375,-1.0925,0.001,3.744,0.11095,-0.48755,0.886375,0.223666666666667,0.305,-0.223666666666667,763.316,0,1,1,0
24-May-2018 12:33:04,-111.25,0.0336,0.07485,1.0323,0.741285714285714,-0.928,0.174714285714286,920.494,-0.8169,0.5817,-0.283925,-2.71625,-1.43825,0.43525,61.565,-0.101514285714286,-0.00427142857142857,1.09062857142857,-0.375,-1.0925,0.001,3.744,0.11095,-0.48755,0.886375,0.223666666666667,0.305,-0.223666666666667,763.316,0,1,1,0
24-May-2018 12:33:04,-111.25,0.0336,0.07485,1.0323,0.741285714285714,-0.928,0.174714285714286,920.494,-0.8169,0.5817,-0.283925,-2.71625,-1.43825,0.43525,61.565,-0.101514285714286,-0.00427142857142857,1.09062857142857,-0.375,-1.0925,0.001,3.744,0.11095,-0.48755,0.886375,0.223666666666667,0.305,-0.223666666666667,763.316,0,1,1,0
24-May-2018 12:33:05,-110.444444444444,0.0442285714285714,0.0737571428571429,1.03745714285714,0.5002,-0.4098,0.2806,921.358666666667,-0.8088,0.58305,-0.2828,-0.340625,2.97275,-0.789,61.565,-0.102175,-0.0030625,1.090325,-0.403333333333333,-0.95,-0.22,3.76,0.111485714285714,-0.488257142857143,0.886771428571429,0.71675,0.56425,-0.22875,762.657,1,1,1,0
24-May-2018 12:33:05,-110.444444444444,0.0442285714285714,0.0737571428571429,1.03745714285714,0.5002,-0.4098,0.2806,921.358666666667,-0.8088,0.58305,-0.2828,-0.340625,2.97275,-0.789,61.565,-0.102175,-0.0030625,1.090325,-0.403333333333333,-0.95,-0.22,3.76,0.111485714285714,-0.488257142857143,0.886771428571429,0.71675,0.56425,-0.22875,762.657,1,1,1,0
24-May-2018 12:33:05,-110.444444444444,0.0442285714285714,0.0737571428571429,1.03745714285714,0.5002,-0.4098,0.2806,921.358666666667,-0.8088,0.58305,-0.2828,-0.340625,2.97275,-0.789,61.565,-0.102175,-0.0030625,1.090325,-0.403333333333333,-0.95,-0.22,3.76,0.111485714285714,-0.488257142857143,0.886771428571429,0.71675,0.56425,-0.22875,762.657,1,1,1,0
24-May-2018 12:33:05,-110.444444444444,0.0442285714285714,0.0737571428571429,1.03745714285714,0.5002,-0.4098,0.2806,921.358666666667,-0.8088,0.58305,-0.2828,-0.340625,2.97275,-0.789,61.565,-0.102175,-0.0030625,1.090325,-0.403333333333333,-0.95,-0.22,3.76,0.111485714285714,-0.488257142857143,0.886771428571429,0.71675,0.56425,-0.22875,762.657,1,1,1,0
24-May-2018 12:33:06,7.8,0.038,0.07505,1.0326,0.758285714285714,0.664571428571428,0.461857142857143,922.049333333333,-0.80708,0.5817,-0.28132,4.877875,0.00212500000000007,1.30425,61.033,-0.1006,-0.00368571428571429,1.09095714285714,-0.551111111111111,-0.957777777777778,-0.354333333333333,3.759,0.11025,-0.4864,0.8896,0.7775,0.62525,-0.13725,763.05,1,1,1,0
24-May-2018 12:33:06,7.8,0.038,0.07505,1.0326,0.758285714285714,0.664571428571428,0.461857142857143,922.049333333333,-0.80708,0.5817,-0.28132,4.877875,0.00212500000000007,1.30425,61.033,-0.1006,-0.00368571428571429,1.09095714285714,-0.551111111111111,-0.957777777777778,-0.354333333333333,3.759,0.11025,-0.4864,0.8896,0.7775,0.62525,-0.13725,763.05,1,1,1,0
24-May-2018 12:33:06,7.8,0.038,0.07505,1.0326,0.758285714285714,0.664571428571428,0.461857142857143,922.049333333333,-0.80708,0.5817,-0.28132,4.877875,0.00212500000000007,1.30425,61.033,-0.1006,-0.00368571428571429,1.09095714285714,-0.551111111111111,-0.957777777777778,-0.354333333333333,3.759,0.11025,-0.4864,0.8896,0.7775,0.62525,-0.13725,763.05,1,1,1,0
24-May-2018 12:33:06,7.8,0.038,0.07505,1.0326,0.758285714285714,0.664571428571428,0.461857142857143,922.049333333333,-0.80708,0.5817,-0.28132,4.877875,0.00212500000000007,1.30425,61.033,-0.1006,-0.00368571428571429,1.09095714285714,-0.551111111111111,-0.957777777777778,-0.354333333333333,3.759,0.11025,-0.4864,0.8896,0.7775,0.62525,-0.13725,763.05,1,1,1,0
24-May-2018 12:33:07,-27.3,0.0238571428571429,0.0772571428571428,1.03404285714286,0.650666666666667,-2.81411111111111,0.0752222222222222,922.758,-0.8221,0.566075,-0.28395,-1.6477,-2.7966,0.0830999999999999,59.437,-0.101142857142857,-0.00384285714285714,1.0902,-0.5675,-0.81875,0.085,3.774,0.110857142857143,-0.486542857142857,0.8874,0.305,0.305,-0.113285714285714,763.9585,1,1,1,1
24-May-2018 12:33:07,-27.3,0.0238571428571429,0.0772571428571428,1.03404285714286,0.650666666666667,-2.81411111111111,0.0752222222222222,922.758,-0.8221,0.566075,-0.28395,-1.6477,-2.7966,0.0830999999999999,59.437,-0.101142857142857,-0.00384285714285714,1.0902,-0.5675,-0.81875,0.085,3.774,0.110857142857143,-0.486542857142857,0.8874,0.305,0.305,-0.113285714285714,763.9585,1,1,1,1
24-May-2018 12:33:07,-27.3,0.0238571428571429,0.0772571428571428,1.03404285714286,0.650666666666667,-2.81411111111111,0.0752222222222222,922.758,-0.8221,0.566075,-0.28395,-1.6477,-2.7966,0.0830999999999999,59.437,-0.101142857142857,-0.00384285714285714,1.0902,-0.5675,-0.81875,0.085,3.774,0.110857142857143,-0.486542857142857,0.8874,0.305,0.305,-0.113285714285714,763.9585,1,1,1,1
24-May-2018 12:33:07,-27.3,0.0238571428571429,0.0772571428571428,1.03404285714286,0.650666666666667,-2.81411111111111,0.0752222222222222,922.758,-0.8221,0.566075,-0.28395,-1.6477,-2.7966,0.0830999999999999,59.437,-0.101142857142857,-0.00384285714285714,1.0902,-0.5675,-0.81875,0.085,3.774,0.110857142857143,-0.486542857142857,0.8874,0.305,0.305,-0.113285714285714,763.9585,1,1,1,1
24-May-2018 12:33:08,116.222222222222,0.0486428571428571,0.0740142857142857,1.03735714285714,0.576111111111111,-0.198777777777778,0.352444444444444,922.758,-0.808025,0.5892,-0.28555,6.335125,0.809125,6.39475,59.437,-0.10228,-0.00268,1.09132,-0.441666666666667,-0.84,-0.24,3.744,0.11246,-0.4882,0.88758,0.461857142857143,0.400857142857143,-0.217857142857143,763.404333333333,1,1,1,1
24-May-2018 12:33:08,116.222222222222,0.0486428571428571,0.0740142857142857,1.03735714285714,0.576111111111111,-0.198777777777778,0.352444444444444,922.758,-0.808025,0.5892,-0.28555,6.335125,0.809125,6.39475,59.437,-0.10228,-0.00268,1.09132,-0.441666666666667,-0.84,-0.24,3.744,0.11246,-0.4882,0.88758,0.461857142857143,0.400857142857143,-0.217857142857143,763.404333333333,1,1,1,1
24-May-2018 12:33:08,116.222222222222,0.0486428571428571,0.0740142857142857,1.03735714285714,0.576111111111111,-0.198777777777778,0.352444444444444,922.758,-0.808025,0.5892,-0.28555,6.335125,0.809125,6.39475,59.437,-0.10228,-0.00268,1.09132,-0.441666666666667,-0.84,-0.24,3.744,0.11246,-0.4882,0.88758,0.461857142857143,0.400857142857143,-0.217857142857143,763.404333333333,1,1,1,1
24-May-2018 12:33:08,116.222222222222,0.0486428571428571,0.0740142857142857,1.03735714285714,0.576111111111111,-0.198777777777778,0.352444444444444,922.758,-0.808025,0.5892,-0.28555,6.335125,0.809125,6.39475,59.437,-0.10228,-0.00268,1.09132,-0.441666666666667,-0.84,-0.24,3.744,0.11246,-0.4882,0.88758,0.461857142857143,0.400857142857143,-0.217857142857143,763.404333333333,1,1,1,1
24-May-2018 12:33:09,64,0.0452,0.0736857142857143,1.03238571428571,0.782666666666667,0.764,0.538833333333333,922.758,-0.8133,0.5864,-0.28075,-0.535833333333333,6.64616666666667,-4.67,59.437,-0.10124,-0.00258,1.09,-0.36,-1.0925,-0.56,3.768,0.1108,-0.48626,0.88736,0.183,0.305,-0.264333333333333,764.187,1,1,1,1
24-May-2018 12:33:09,64,0.0452,0.0736857142857143,1.03238571428571,0.782666666666667,0.764,0.538833333333333,922.758,-0.8133,0.5864,-0.28075,-0.535833333333333,6.64616666666667,-4.67,59.437,-0.10124,-0.00258,1.09,-0.36,-1.0925,-0.56,3.768,0.1108,-0.48626,0.88736,0.183,0.305,-0.264333333333333,764.187,1,1,1,1
24-May-2018 12:33:09,64,0.0452,0.0736857142857143,1.03238571428571,0.782666666666667,0.764,0.538833333333333,922.758,-0.8133,0.5864,-0.28075,-0.535833333333333,6.64616666666667,-4.67,59.437,-0.10124,-0.00258,1.09,-0.36,-1.0925,-0.56,3.768,0.1108,-0.48626,0.88736,0.183,0.305,-0.264333333333333,764.187,1,1,1,1
24-May-2018 12:33:09,64,0.0452,0.0736857142857143,1.03238571428571,0.782666666666667,0.764,0.538833333333333,922.758,-0.8133,0.5864,-0.28075,-0.535833333333333,6.64616666666667,-4.67,59.437,-0.10124,-0.00258,1.09,-0.36,-1.0925,-0.56,3.768,0.1108,-0.48626,0.88736,0.183,0.305,-0.264333333333333,764.187,1,1,1,1
24-May-2018 12:33:10,55.4,0.0375285714285714,0.0749714285714286,1.03288571428571,0.454111111111111,-0.621111111111111,0.210111111111111,922.758,-0.80725,0.58305,-0.282775,0.0795000000000001,-5.431,2.347875,60.599,-0.1,-0.0027625,1.0906125,-0.595714285714286,-0.787142857142857,-0.0155714285714286,3.75,0.110983333333333,-0.48745,0.887166666666667,0.41175,0.3355,-0.122,764.2465,0,1,1,1
24-May-2018 12:33:10,55.4,0.0375285714285714,0.0749714285714286,1.03288571428571,0.454111111111111,-0.621111111111111,0.210111111111111,922.758,-0.80725,0.58305,-0.282775,0.0795000000000001,-5.431,2.347875,60.599,-0.1,-0.0027625,1.0906125,-0.595714285714286,-0.787142857142857,-0.0155714285714286,3.75,0.110983333333333,-0.48745,0.887166666666667,0.41175,0.3355,-0.122,764.2465,0,1,1,1
24-May-2018 12:33:10,55.4,0.0375285714285714,0.0749714285714286,1.03288571428571,0.454111111111111,-0.621111111111111,0.210111111111111,922.758,-0.80725,0.58305,-0.282775,0.0795000000000001,-5.431,2.347875,60.599,-0.1,-0.0027625,1.0906125,-0.595714285714286,-0.787142857142857,-0.0155714285714286,3.75,0.110983333333333,-0.48745,0.887166666666667,0.41175,0.3355,-0.122,764.2465,0,1,1,1
24-May-2018 12:33:10,55.4,0.0375285714285714,0.0749714285714286,1.03288571428571,0.454111111111111,-0.621111111111111,0.210111111111111,922.758,-0.80725,0.58305,-0.282775,0.0795000000000001,-5.431,2.347875,60.599,-0.1,-0.0027625,1.0906125,-0.595714285714286,-0.787142857142857,-0.0155714285714286,3.75,0.110983333333333,-0.48745,0.887166666666667,0.41175,0.3355,-0.122,764.2465,0,1,1,1
24-May-2018 12:33:11,-49.2857142857143,0.0515,0.073075,1.037275,0.56425,-0.16425,0.28975,923.714333333333,-0.808175,0.58765,-0.2842,1.83055555555556,-5.13022222222222,-1.08733333333333,60.599,-0.1017,-0.00284,1.09056,-0.39,-0.88,-0.18,3.75,0.110766666666667,-0.484716666666667,0.888133333333333,0.914714285714286,0.618714285714286,-0.122,764.276,1,1,1,1
24-May-2018 12:33:11,-49.2857142857143,0.0515,0.073075,1.037275,0.56425,-0.16425,0.28975,923.714333333333,-0.808175,0.58765,-0.2842,1.83055555555556,-5.13022222222222,-1.08733333333333,60.599,-0.1017,-0.00284,1.09056,-0.39,-0.88,-0.18,3.75,0.110766666666667,-0.484716666666667,0.888133333333333,0.914714285714286,0.618714285714286,-0.122,764.276,1,1,1,1
24-May-2018 12:33:11,-49.2857142857143,0.0515,0.073075,1.037275,0.56425,-0.16425,0.28975,923.714333333333,-0.808175,0.58765,-0.2842,1.83055555555556,-5.13022222222222,-1.08733333333333,60.599,-0.1017,-0.00284,1.09056,-0.39,-0.88,-0.18,3.75,0.110766666666667,-0.484716666666667,0.888133333333333,0.914714285714286,0.618714285714286,-0.122,764.276,1,1,1,1
24-May-2018 12:33:11,-49.2857142857143,0.0515,0.073075,1.037275,0.56425,-0.16425,0.28975,923.714333333333,-0.808175,0.58765,-0.2842,1.83055555555556,-5.13022222222222,-1.08733333333333,60.599,-0.1017,-0.00284,1.09056,-0.39,-0.88,-0.18,3.75,0.110766666666667,-0.484716666666667,0.888133333333333,0.914714285714286,0.618714285714286,-0.122,764.276,1,1,1,1
24-May-2018 12:33:12,88.1111111111111,0.0517166666666667,0.0743333333333333,1.03458333333333,0.888857142857143,0.514714285714286,0.479285714285714,925.110333333333,-0.813425,0.57775,-0.27985,2.81911111111111,7.19455555555556,0.0276666666666667,60.599,-0.1007375,-0.00255,1.0908125,-0.50375,-0.9775,-0.45,3.75,0.11062,-0.48412,0.88808,0.7564,0.5368,-0.2318,764.224,0,1,1,0
24-May-2018 12:33:12,88.1111111111111,0.0517166666666667,0.0743333333333333,1.03458333333333,0.888857142857143,0.514714285714286,0.479285714285714,925.110333333333,-0.813425,0.57775,-0.27985,2.81911111111111,7.19455555555556,0.0276666666666667,60.599,-0.1007375,-0.00255,1.0908125,-0.50375,-0.9775,-0.45,3.75,0.11062,-0.48412,0.88808,0.7564,0.5368,-0.2318,764.224,0,1,1,0
24-May-2018 12:33:12,88.1111111111111,0.0517166666666667,0.0743333333333333,1.03458333333333,0.888857142857143,0.514714285714286,0.479285714285714,925.110333333333,-0.813425,0.57775,-0.27985,2.81911111111111,7.19455555555556,0.0276666666666667,60.599,-0.1007375,-0.00255,1.0908125,-0.50375,-0.9775,-0.45,3.75,0.11062,-0.48412,0.88808,0.7564,0.5368,-0.2318,764.224,0,1,1,0
24-May-2018 12:33:12,88.1111111111111,0.0517166666666667,0.0743333333333333,1.03458333333333,0.888857142857143,0.514714285714286,0.479285714285714,925.110333333333,-0.813425,0.57775,-0.27985,2.81911111111111,7.19455555555556,0.0276666666666667,60.599,-0.1007375,-0.00255,1.0908125,-0.50375,-0.9775,-0.45,3.75,0.11062,-0.48412,0.88808,0.7564,0.5368,-0.2318,764.224,0,1,1,0
24-May-2018 12:33:13,-42.25,0.03535,0.074625,1.035425,0.3178,0.3066,0.2806,923.701,-0.81592,0.57618,-0.28272,0.984444444444444,-0.917555555555556,0.279444444444444,59.149,-0.100442857142857,-0.00327142857142857,1.0905,-0.421428571428571,-0.815714285714286,-0.0672857142857143,3.82366666666667,0.1115,-0.4839,0.888533333333333,0.601285714285714,0.435714285714286,-0.113285714285714,764.307,0,1,1,0
24-May-2018 12:33:13,-42.25,0.03535,0.074625,1.035425,0.3178,0.3066,0.2806,923.701,-0.81592,0.57618,-0.28272,0.984444444444444,-0.917555555555556,0.279444444444444,59.149,-0.100442857142857,-0.00327142857142857,1.0905,-0.421428571428571,-0.815714285714286,-0.0672857142857143,3.82366666666667,0.1115,-0.4839,0.888533333333333,0.601285714285714,0.435714285714286,-0.113285714285714,764.307,0,1,1,0
24-May-2018 12:33:13,-42.25,0.03535,0.074625,1.035425,0.3178,0.3066,0.2806,923.701,-0.81592,0.57618,-0.28272,0.984444444444444,-0.917555555555556,0.279444444444444,59.149,-0.100442857142857,-0.00327142857142857,1.0905,-0.421428571428571,-0.815714285714286,-0.0672857142857143,3.82366666666667,0.1115,-0.4839,0.888533333333333,0.601285714285714,0.435714285714286,-0.113285714285714,764.307,0,1,1,0
24-May-2018 12:33:13,-42.25,0.03535,0.074625,1.035425,0.3178,0.3066,0.2806,923.701,-0.81592,0.57618,-0.28272,0.984444444444444,-0.917555555555556,0.279444444444444,59.149,-0.100442857142857,-0.00327142857142857,1.0905,-0.421428571428571,-0.815714285714286,-0.0672857142857143,3.82366666666667,0.1115,-0.4839,0.888533333333333,0.601285714285714,0.435714285714286,-0.113285714285714,764.307,0,1,1,0
24-May-2018 12:33:14,51.1111111111111,0.0503166666666667,0.0711666666666667,1.03828333333333,0.683,-0.7516,0.2806,923.840333333333,-0.817075,0.577325,-0.28565,-1.48055555555556,-1.42744444444444,-0.254333333333333,59.149,-0.10304,-0.0027,1.09126,-0.465714285714286,-0.962857142857143,-0.622857142857143,3.75,0.112,-0.483983333333333,0.888533333333333,0.477666666666667,0.498166666666667,-0.305,765.033,0,1,1,0
24-May-2018 12:33:14,51.1111111111111,0.0503166666666667,0.0711666666666667,1.03828333333333,0.683,-0.7516,0.2806,923.840333333333,-0.817075,0.577325,-0.28565,-1.48055555555556,-1.42744444444444,-0.254333333333333,59.149,-0.10304,-0.0027,1.09126,-0.465714285714286,-0.962857142857143,-0.622857142857143,3.75,0.112,-0.483983333333333,0.888533333333333,0.477666666666667,0.498166666666667,-0.305,765.033,0,1,1,0
24-May-2018 12:33:14,51.1111111111111,0.0503166666666667,0.0711666666666667,1.03828333333333,0.683,-0.7516,0.2806,923.840333333333,-0.817075,0.577325,-0.28565,-1.48055555555556,-1.42744444444444,-0.254333333333333,59.149,-0.10304,-0.0027,1.09126,-0.465714285714286,-0.962857142857143,-0.622857142857143,3.75,0.112,-0.483983333333333,0.888533333333333,0.477666666666667,0.498166666666667,-0.305,765.033,0,1,1,0
24-May-2018 12:33:14,51.1111111111111,0.0503166666666667,0.0711666666666667,1.03828333333333,0.683,-0.7516,0.2806,923.840333333333,-0.817075,0.577325,-0.28565,-1.48055555555556,-1.42744444444444,-0.254333333333333,59.149,-0.10304,-0.0027,1.09126,-0.465714285714286,-0.962857142857143,-0.622857142857143,3.75,0.112,-0.483983333333333,0.888533333333333,0.477666666666667,0.498166666666667,-0.305,765.033,0,1,1,0
24-May-2018 12:33:15,90,0.02002,0.07572,1.02862,0.762333333333333,-2.12133333333333,0.214333333333333,922.792333333333,-0.80832,0.58496,-0.2835,0.184,1.304375,0.930125,59.149,-0.101842857142857,-0.00401428571428571,1.09102857142857,-0.391666666666667,-0.636666666666667,0.0423333333333333,3.75,0.110433333333333,-0.485883333333333,0.888183333333333,0.203333333333333,0.264333333333333,-0.203333333333333,764.224,0,1,1,0
24-May-2018 12:33:15,90,0.02002,0.07572,1.02862,0.762333333333333,-2.12133333333333,0.214333333333333,922.792333333333,-0.80832,0.58496,-0.2835,0.184,1.304375,0.930125,59.149,-0.101842857142857,-0.00401428571428571,1.09102857142857,-0.391666666666667,-0.636666666666667,0.0423333333333333,3.75,0.110433333333333,-0.485883333333333,0.888183333333333,0.203333333333333,0.264333333333333,-0.203333333333333,764.224,0,1,1,0
24-May-2018 12:33:15,90,0.02002,0.07572,1.02862,0.762333333333333,-2.12133333333333,0.214333333333333,922.792333333333,-0.80832,0.58496,-0.2835,0.184,1.304375,0.930125,59.149,-0.101842857142857,-0.00401428571428571,1.09102857142857,-0.391666666666667,-0.636666666666667,0.0423333333333333,3.75,0.110433333333333,-0.485883333333333,0.888183333333333,0.203333333333333,0.264333333333333,-0.203333333333333,764.224,0,1,1,0
24-May-2018 12:33:15,90,0.02002,0.07572,1.02862,0.762333333333333,-2.12133333333333,0.214333333333333,922.792333333333,-0.80832,0.58496,-0.2835,0.184,1.304375,0.930125,59.149,-0.101842857142857,-0.00401428571428571,1.09102857142857,-0.391666666666667,-0.636666666666667,0.0423333333333333,3.75,0.110433333333333,-0.485883333333333,0.888183333333333,0.203333333333333,0.264333333333333,-0.203333333333333,764.224,0,1,1,0
24-May-2018 12:33:16,-192.666666666667,0.0387428571428571,0.0717,1.03442857142857,0.569333333333333,0.650666666666667,0.437166666666667,923.268,-0.81615,0.57705,-0.281175,0.2533,1.0442,-0.5696,60.073,-0.101233333333333,-0.00438333333333333,1.09048333333333,-0.383166666666667,-1.03333333333333,-0.21,3.766,0.11098,-0.48596,0.88714,0.592571428571429,0.418285714285714,-0.130714285714286,764.656,1,1,1,0
24-May-2018 12:33:16,-192.666666666667,0.0387428571428571,0.0717,1.03442857142857,0.569333333333333,0.650666666666667,0.437166666666667,923.268,-0.81615,0.57705,-0.281175,0.2533,1.0442,-0.5696,60.073,-0.101233333333333,-0.00438333333333333,1.09048333333333,-0.383166666666667,-1.03333333333333,-0.21,3.766,0.11098,-0.48596,0.88714,0.592571428571429,0.418285714285714,-0.130714285714286,764.656,1,1,1,0
24-May-2018 12:33:16,-192.666666666667,0.0387428571428571,0.0717,1.03442857142857,0.569333333333333,0.650666666666667,0.437166666666667,923.268,-0.81615,0.57705,-0.281175,0.2533,1.0442,-0.5696,60.073,-0.101233333333333,-0.00438333333333333,1.09048333333333,-0.383166666666667,-1.03333333333333,-0.21,3.766,0.11098,-0.48596,0.88714,0.592571428571429,0.418285714285714,-0.130714285714286,764.656,1,1,1,0
24-May-2018 12:33:16,-192.666666666667,0.0387428571428571,0.0717,1.03442857142857,0.569333333333333,0.650666666666667,0.437166666666667,923.268,-0.81615,0.57705,-0.281175,0.2533,1.0442,-0.5696,60.073,-0.101233333333333,-0.00438333333333333,1.09048333333333,-0.383166666666667,-1.03333333333333,-0.21,3.766,0.11098,-0.48596,0.88714,0.592571428571429,0.418285714285714,-0.130714285714286,764.656,1,1,1,0
24-May-2018 12:33:17,-16.2222222222222,0.0456,0.0719,1.037425,0.7198,0.2712,0.3294,923.301,-0.81282,0.58224,-0.28254,1.87755555555556,-0.484666666666667,-0.107777777777778,60.073,-0.101233333333333,-0.0038,1.08803333333333,-0.704,-0.934,-0.0714,3.75,0.111814285714286,-0.487228571428571,0.887514285714286,0.976,0.59475,-0.07625,763.36,1,1,1,0
24-May-2018 12:33:17,-16.2222222222222,0.0456,0.0719,1.037425,0.7198,0.2712,0.3294,923.301,-0.81282,0.58224,-0.28254,1.87755555555556,-0.484666666666667,-0.107777777777778,60.073,-0.101233333333333,-0.0038,1.08803333333333,-0.704,-0.934,-0.0714,3.75,0.111814285714286,-0.487228571428571,0.887514285714286,0.976,0.59475,-0.07625,763.36,1,1,1,0
24-May-2018 12:33:17,-16.2222222222222,0.0456,0.0719,1.037425,0.7198,0.2712,0.3294,923.301,-0.81282,0.58224,-0.28254,1.87755555555556,-0.484666666666667,-0.107777777777778,60.073,-0.101233333333333,-0.0038,1.08803333333333,-0.704,-0.934,-0.0714,3.75,0.111814285714286,-0.487228571428571,0.887514285714286,0.976,0.59475,-0.07625,763.36,1,1,1,0
24-May-2018 12:33:17,-16.2222222222222,0.0456,0.0719,1.037425,0.7198,0.2712,0.3294,923.301,-0.81282,0.58224,-0.28254,1.87755555555556,-0.484666666666667,-0.107777777777778,60.073,-0.101233333333333,-0.0038,1.08803333333333,-0.704,-0.934,-0.0714,3.75,0.111814285714286,-0.487228571428571,0.887514285714286,0.976,0.59475,-0.07625,763.36,1,1,1,0
24-May-2018 12:33:18,483.571428571429,0.0503166666666667,0.0724666666666667,1.03718333333333,0.538833333333333,0.378333333333333,0.4575,923.301,-0.816125,0.571225,-0.282525,-1.216375,0.15425,1.664,60.61,-0.10134,-0.0034,1.09132,-0.285,-1.0925,-0.4225,3.744,0.1117,-0.48535,0.8877,0.93025,0.62525,-0.22875,763.315333333333,1,1,1,0
24-May-2018 12:33:18,483.571428571429,0.0503166666666667,0.0724666666666667,1.03718333333333,0.538833333333333,0.378333333333333,0.4575,923.301,-0.816125,0.571225,-0.282525,-1.216375,0.15425,1.664,60.61,-0.10134,-0.0034,1.09132,-0.285,-1.0925,-0.4225,3.744,0.1117,-0.48535,0.8877,0.93025,0.62525,-0.22875,763.315333333333,1,1,1,0
24-May-2018 12:33:18,483.571428571429,0.0503166666666667,0.0724666666666667,1.03718333333333,0.538833333333333,0.378333333333333,0.4575,923.301,-0.816125,0.571225,-0.282525,-1.216375,0.15425,1.664,60.61,-0.10134,-0.0034,1.09132,-0.285,-1.0925,-0.4225,3.744,0.1117,-0.48535,0.8877,0.93025,0.62525,-0.22875,763.315333333333,1,1,1,0
24-May-2018 12:33:18,483.571428571429,0.0503166666666667,0.0724666666666667,1.03718333333333,0.538833333333333,0.378333333333333,0.4575,923.301,-0.816125,0.571225,-0.282525,-1.216375,0.15425,1.664,60.61,-0.10134,-0.0034,1.09132,-0.285,-1.0925,-0.4225,3.744,0.1117,-0.48535,0.8877,0.93025,0.62525,-0.22875,763.315333333333,1,1,1,0
24-May-2018 12:33:19,134.857142857143,0.0428142857142857,0.0735857142857143,1.03165714285714,0.679714285714286,0.446142857142857,0.348571428571428,923.301,-0.8143,0.57724,-0.2833,1.70971428571429,3.73828571428571,0.593142857142857,60.789,-0.101285714285714,-0.874171428571429,1.09068571428571,-0.53625,-0.96375,-0.25625,3.739,0.111483333333333,-0.48515,0.88845,0.7625,0.571875,-0.0915,763.315333333333,1,1,1,0
24-May-2018 12:33:19,134.857142857143,0.0428142857142857,0.0735857142857143,1.03165714285714,0.679714285714286,0.446142857142857,0.348571428571428,923.301,-0.8143,0.57724,-0.2833,1.70971428571429,3.73828571428571,0.593142857142857,60.789,-0.101285714285714,-0.874171428571429,1.09068571428571,-0.53625,-0.96375,-0.25625,3.739,0.111483333333333,-0.48515,0.88845,0.7625,0.571875,-0.0915,763.315333333333,1,1,1,0
24-May-2018 12:33:19,134.857142857143,0.0428142857142857,0.0735857142857143,1.03165714285714,0.679714285714286,0.446142857142857,0.348571428571428,923.301,-0.8143,0.57724,-0.2833,1.70971428571429,3.73828571428571,0.593142857142857,60.789,-0.101285714285714,-0.874171428571429,1.09068571428571,-0.53625,-0.96375,-0.25625,3.739,0.111483333333333,-0.48515,0.88845,0.7625,0.571875,-0.0915,763.315333333333,1,1,1,0
24-May-2018 12:33:19,134.857142857143,0.0428142857142857,0.0735857142857143,1.03165714285714,0.679714285714286,0.446142857142857,0.348571428571428,923.301,-0.8143,0.57724,-0.2833,1.70971428571429,3.73828571428571,0.593142857142857,60.789,-0.101285714285714,-0.874171428571429,1.09068571428571,-0.53625,-0.96375,-0.25625,3.739,0.111483333333333,-0.48515,0.88845,0.7625,0.571875,-0.0915,0,1,1,1,0
24-May-2018 12:33:20,26.5555555555556,0.0554428571428571,0.0739285714285714,1.03474285714286,0.693875,-0.63,0.3355,923.301,-0.813825,0.581775,-0.2815,-0.6864,1.185,0.8424,61.272,-0.101233333333333,-0.00348333333333333,1.09113333333333,-0.325714285714286,-1.07428571428571,-0.334285714285714,3.739,0.11222,-0.4846,0.88852,0.59475,0.4575,-0.16775,763.183,1,1,1,0
24-May-2018 12:33:20,26.5555555555556,0.0554428571428571,0.0739285714285714,1.03474285714286,0.693875,-0.63,0.3355,923.301,-0.813825,0.581775,-0.2815,-0.6864,1.185,0.8424,61.272,-0.101233333333333,-0.00348333333333333,1.09113333333333,-0.325714285714286,-1.07428571428571,-0.334285714285714,3.739,0.11222,-0.4846,0.88852,0.59475,0.4575,-0.16775,763.183,1,1,1,0
24-May-2018 12:33:20,26.5555555555556,0.0554428571428571,0.0739285714285714,1.03474285714286,0.693875,-0.63,0.3355,923.301,-0.813825,0.581775,-0.2815,-0.6864,1.185,0.8424,61.272,-0.101233333333333,-0.00348333333333333,1.09113333333333,-0.325714285714286,-1.07428571428571,-0.334285714285714,3.739,0.11222,-0.4846,0.88852,0.59475,0.4575,-0.16775,763.183,1,1,1,0
24-May-2018 12:33:20,26.5555555555556,0.0554428571428571,0.0739285714285714,1.03474285714286,0.693875,-0.63,0.3355,923.301,-0.813825,0.581775,-0.2815,-0.6864,1.185,0.8424,61.272,-0.101233333333333,-0.00348333333333333,1.09113333333333,-0.325714285714286,-1.07428571428571,-0.334285714285714,3.739,0.11222,-0.4846,0.88852,0.59475,0.4575,-0.16775,763.183,1,1,1,0
24-May-2018 12:33:21,313.625,0.0396666666666667,0.0748,1.0256,0.762166666666667,0.589666666666667,0.3965,924.6052,-0.80942,0.58462,-0.28152,-0.145666666666667,-4.82,-0.0503333333333333,61.272,-0.0998666666666667,-0.00305,1.0909,-0.6025,-0.91,-0.455,3.768,0.111714285714286,-0.485585714285714,0.888271428571429,0.7808,0.61,-0.122,763.183,0,1,1,0
24-May-2018 12:33:21,313.625,0.0396666666666667,0.0748,1.0256,0.762166666666667,0.589666666666667,0.3965,924.6052,-0.80942,0.58462,-0.28152,-0.145666666666667,-4.82,-0.0503333333333333,61.272,-0.0998666666666667,-0.00305,1.0909,-0.6025,-0.91,-0.455,3.768,0.111714285714286,-0.485585714285714,0.888271428571429,0.7808,0.61,-0.122,763.183,0,1,1,0
24-May-2018 12:33:21,313.625,0.0396666666666667,0.0748,1.0256,0.762166666666667,0.589666666666667,0.3965,924.6052,-0.80942,0.58462,-0.28152,-0.145666666666667,-4.82,-0.0503333333333333,61.272,-0.0998666666666667,-0.00305,1.0909,-0.6025,-0.91,-0.455,3.768,0.111714285714286,-0.485585714285714,0.888271428571429,0.7808,0.61,-0.122,763.183,0,1,1,0
24-May-2018 12:33:21,313.625,0.0396666666666667,0.0748,1.0256,0.762166666666667,0.589666666666667,0.3965,924.6052,-0.80942,0.58462,-0.28152,-0.145666666666667,-4.82,-0.0503333333333333,61.272,-0.0998666666666667,-0.00305,1.0909,-0.6025,-0.91,-0.455,3.768,0.111714285714286,-0.485585714285714,0.888271428571429,0.7808,0.61,-0.122,0,0,1,1,0
24-May-2018 12:33:22,16.4,0.05234,0.07348,1.0351,0.6344,-1.386,0.11,923.19,-0.81436,0.58092,-0.2816,2.34466666666667,3.29388888888889,0.367888888888889,61.272,-0.101433333333333,-0.00306666666666667,1.09001666666667,-0.52,-0.826,0.0136,3.774,0.110366666666667,-0.483333333333333,0.890733333333333,0.813333333333333,0.447333333333333,-0.203333333333333,764.3405,0,1,1,0
24-May-2018 12:33:22,16.4,0.05234,0.07348,1.0351,0.6344,-1.386,0.11,923.19,-0.81436,0.58092,-0.2816,2.34466666666667,3.29388888888889,0.367888888888889,61.272,-0.101433333333333,-0.00306666666666667,1.09001666666667,-0.52,-0.826,0.0136,3.774,0.110366666666667,-0.483333333333333,0.890733333333333,0.813333333333333,0.447333333333333,-0.203333333333333,764.3405,0,1,1,0
24-May-2018 12:33:22,16.4,0.05234,0.07348,1.0351,0.6344,-1.386,0.11,923.19,-0.81436,0.58092,-0.2816,2.34466666666667,3.29388888888889,0.367888888888889,61.272,-0.101433333333333,-0.00306666666666667,1.09001666666667,-0.52,-0.826,0.0136,3.774,0.110366666666667,-0.483333333333333,0.890733333333333,0.813333333333333,0.447333333333333,-0.203333333333333,764.3405,0,1,1,0
24-May-2018 12:33:22,16.4,0.05234,0.07348,1.0351,0.6344,-1.386,0.11,923.19,-0.81436,0.58092,-0.2816,2.34466666666667,3.29388888888889,0.367888888888889,61.272,-0.101433333333333,-0.00306666666666667,1.09001666666667,-0.52,-0.826,0.0136,3.774,0.110366666666667,-0.483333333333333,0.890733333333333,0.813333333333333,0.447333333333333,-0.203333333333333,764.3405,0,1,1,0
24-May-2018 12:33:23,-197.875,0.058325,0.07185,1.034475,0.444428571428571,0.202142857142857,0.444428571428571,924.043,-0.816725,0.5809,-0.284475,2.683,2.26433333333333,-0.713555555555556,61.156,-0.10114,-0.00276,1.09086,-0.47,-1.006,-0.288,3.744,0.111,-0.482666666666667,0.889433333333333,0.7806,0.549,-0.0488,764.1855,0,1,1,1
24-May-2018 12:33:23,-197.875,0.058325,0.07185,1.034475,0.444428571428571,0.202142857142857,0.444428571428571,924.043,-0.816725,0.5809,-0.284475,2.683,2.26433333333333,-0.713555555555556,61.156,-0.10114,-0.00276,1.09086,-0.47,-1.006,-0.288,3.744,0.111,-0.482666666666667,0.889433333333333,0.7806,0.549,-0.0488,764.1855,0,1,1,1
24-May-2018 12:33:23,-197.875,0.058325,0.07185,1.034475,0.444428571428571,0.202142857142857,0.444428571428571,924.043,-0.816725,0.5809,-0.284475,2.683,2.26433333333333,-0.713555555555556,61.156,-0.10114,-0.00276,1.09086,-0.47,-1.006,-0.288,3.744,0.111,-0.482666666666667,0.889433333333333,0.7806,0.549,-0.0488,764.1855,0,1,1,1
24-May-2018 12:33:23,-197.875,0.058325,0.07185,1.034475,0.444428571428571,0.202142857142857,0.444428571428571,924.043,-0.816725,0.5809,-0.284475,2.683,2.26433333333333,-0.713555555555556,61.156,-0.10114,-0.00276,1.09086,-0.47,-1.006,-0.288,3.744,0.111,-0.482666666666667,0.889433333333333,0.7806,0.549,-0.0488,764.1855,0,1,1,1
24-May-2018 12:33:24,241.1,0.04406,0.0751,1.02964,0.927,-0.814,0.3176,924.508333333333,-0.814825,0.576,-0.283175,-0.530625,-4.26625,1.243125,61.156,-0.0999125,-0.00285,1.090025,-0.282166666666667,-0.768166666666667,-0.390666666666667,3.747,0.1113,-0.4856,0.88898,0.461857142857143,0.444428571428571,-0.261428571428571,764.231,0,1,1,0
24-May-2018 12:33:24,241.1,0.04406,0.0751,1.02964,0.927,-0.814,0.3176,924.508333333333,-0.814825,0.576,-0.283175,-0.530625,-4.26625,1.243125,61.156,-0.0999125,-0.00285,1.090025,-0.282166666666667,-0.768166666666667,-0.390666666666667,3.747,0.1113,-0.4856,0.88898,0.461857142857143,0.444428571428571,-0.261428571428571,764.231,0,1,1,0
24-May-2018 12:33:24,241.1,0.04406,0.0751,1.02964,0.927,-0.814,0.3176,924.508333333333,-0.814825,0.576,-0.283175,-0.530625,-4.26625,1.243125,61.156,-0.0999125,-0.00285,1.090025,-0.282166666666667,-0.768166666666667,-0.390666666666667,3.747,0.1113,-0.4856,0.88898,0.461857142857143,0.444428571428571,-0.261428571428571,764.231,0,1,1,0
24-May-2018 12:33:24,241.1,0.04406,0.0751,1.02964,0.927,-0.814,0.3176,924.508333333333,-0.814825,0.576,-0.283175,-0.530625,-4.26625,1.243125,61.156,-0.0999125,-0.00285,1.090025,-0.282166666666667,-0.768166666666667,-0.390666666666667,3.747,0.1113,-0.4856,0.88898,0.461857142857143,0.444428571428571,-0.261428571428571,764.231,0,1,1,0
24-May-2018 12:33:25,-4.8,0.0408,0.0718666666666667,1.03553333333333,0.294,-1.2888,0.1098,923.313,-0.80995,0.5802,-0.280825,-3.20066666666667,-0.892555555555556,5.691,61.78425,-0.1017125,-0.003025,1.09,-0.515,-0.865,0.002,3.768,0.1123,-0.48685,0.88775,0.10675,0.2745,-0.10675,764.401333333333,0,1,1,0
24-May-2018 12:33:25,-4.8,0.0408,0.0718666666666667,1.03553333333333,0.294,-1.2888,0.1098,923.313,-0.80995,0.5802,-0.280825,-3.20066666666667,-0.892555555555556,5.691,61.78425,-0.1017125,-0.003025,1.09,-0.515,-0.865,0.002,3.768,0.1123,-0.48685,0.88775,0.10675,0.2745,-0.10675,764.401333333333,0,1,1,0
24-May-2018 12:33:25,-4.8,0.0408,0.0718666666666667,1.03553333333333,0.294,-1.2888,0.1098,923.313,-0.80995,0.5802,-0.280825,-3.20066666666667,-0.892555555555556,5.691,61.78425,-0.1017125,-0.003025,1.09,-0.515,-0.865,0.002,3.768,0.1123,-0.48685,0.88775,0.10675,0.2745,-0.10675,764.401333333333,0,1,1,0
24-May-2018 12:33:25,-4.8,0.0408,0.0718666666666667,1.03553333333333,0.294,-1.2888,0.1098,923.313,-0.80995,0.5802,-0.280825,-3.20066666666667,-0.892555555555556,5.691,61.78425,-0.1017125,-0.003025,1.09,-0.515,-0.865,0.002,3.768,0.1123,-0.48685,0.88775,0.10675,0.2745,-0.10675,764.401333333333,0,1,1,0
24-May-2018 12:33:26,-86,0.0559625,0.0691625,1.0339875,0.3904,0.4534,0.4758,923.77425,-0.80606,0.59562,-0.28088,-1.1124,9.517,2.0437,63.669,-0.100728571428571,-0.00321428571428571,1.09022857142857,-0.37,-0.962857142857143,-0.368571428571428,3.774,0.11215,-0.4876,0.887875,0.183,0.3294,-0.2074,763.426,0,1,1,0
24-May-2018 12:33:26,-86,0.0559625,0.0691625,1.0339875,0.3904,0.4534,0.4758,923.77425,-0.80606,0.59562,-0.28088,-1.1124,9.517,2.0437,63.669,-0.100728571428571,-0.00321428571428571,1.09022857142857,-0.37,-0.962857142857143,-0.368571428571428,3.774,0.11215,-0.4876,0.887875,0.183,0.3294,-0.2074,763.426,0,1,1,0
24-May-2018 12:33:26,-86,0.0559625,0.0691625,1.0339875,0.3904,0.4534,0.4758,923.77425,-0.80606,0.59562,-0.28088,-1.1124,9.517,2.0437,63.669,-0.100728571428571,-0.00321428571428571,1.09022857142857,-0.37,-0.962857142857143,-0.368571428571428,3.774,0.11215,-0.4876,0.887875,0.183,0.3294,-0.2074,763.426,0,1,1,0
24-May-2018 12:33:26,-86,0.0559625,0.0691625,1.0339875,0.3904,0.4534,0.4758,923.77425,-0.80606,0.59562,-0.28088,-1.1124,9.517,2.0437,63.669,-0.100728571428571,-0.00321428571428571,1.09022857142857,-0.37,-0.962857142857143,-0.368571428571428,3.774,0.11215,-0.4876,0.887875,0.183,0.3294,-0.2074,763.426,0,1,1,0
24-May-2018 12:33:27,-290.444444444444,0.0406714285714286,0.0725,1.03221428571429,0.572625,0.800875,0.388875,926.081,-0.796375,0.60565,-0.280475,-6.65625,2.463,0.4125,63.669,-0.099825,-0.00305,1.090225,-0.5425,-1.0625,-0.435,3.80933333333333,0.111675,-0.48675,0.8884,0.282125,0.343125,-0.22875,764.6285,0,1,1,0
24-May-2018 12:33:27,-290.444444444444,0.0406714285714286,0.0725,1.03221428571429,0.572625,0.800875,0.388875,926.081,-0.796375,0.60565,-0.280475,-6.65625,2.463,0.4125,63.669,-0.099825,-0.00305,1.090225,-0.5425,-1.0625,-0.435,3.80933333333333,0.111675,-0.48675,0.8884,0.282125,0.343125,-0.22875,764.6285,0,1,1,0
24-May-2018 12:33:27,-290.444444444444,0.0406714285714286,0.0725,1.03221428571429,0.572625,0.800875,0.388875,926.081,-0.796375,0.60565,-0.280475,-6.65625,2.463,0.4125,63.669,-0.099825,-0.00305,1.090225,-0.5425,-1.0625,-0.435,3.80933333333333,0.111675,-0.48675,0.8884,0.282125,0.343125,-0.22875,764.6285,0,1,1,0
24-May-2018 12:33:27,-290.444444444444,0.0406714285714286,0.0725,1.03221428571429,0.572625,0.800875,0.388875,926.081,-0.796375,0.60565,-0.280475,-6.65625,2.463,0.4125,63.669,-0.099825,-0.00305,1.090225,-0.5425,-1.0625,-0.435,3.80933333333333,0.111675,-0.48675,0.8884,0.282125,0.343125,-0.22875,764.6285,0,1,1,0
24-May-2018 12:33:28,5.22222222222222,0.0475875,0.071125,1.0303875,0.813166666666667,-0.0666666666666668,0.274666666666667,926.081,-0.79026,0.61252,-0.28032,0.341555555555556,-8.92222222222222,-1.47488888888889,63.471,-0.102725,-0.766025,1.0910625,-0.641428571428571,-0.937142857142857,-0.112714285714286,3.816,0.112775,-0.4887,0.8879,0.282125,0.2562,-0.1952,764.019,0,1,1,0
24-May-2018 12:33:28,5.22222222222222,0.0475875,0.071125,1.0303875,0.813166666666667,-0.0666666666666668,0.274666666666667,926.081,-0.79026,0.61252,-0.28032,0.341555555555556,-8.92222222222222,-1.47488888888889,63.471,-0.102725,-0.766025,1.0910625,-0.641428571428571,-0.937142857142857,-0.112714285714286,3.816,0.112775,-0.4887,0.8879,0.282125,0.2562,-0.1952,764.019,0,1,1,0
24-May-2018 12:33:28,5.22222222222222,0.0475875,0.071125,1.0303875,0.813166666666667,-0.0666666666666668,0.274666666666667,926.081,-0.79026,0.61252,-0.28032,0.341555555555556,-8.92222222222222,-1.47488888888889,63.471,-0.102725,-0.766025,1.0910625,-0.641428571428571,-0.937142857142857,-0.112714285714286,3.816,0.112775,-0.4887,0.8879,0.282125,0.2562,-0.1952,764.019,0,1,1,0
24-May-2018 12:33:28,5.22222222222222,0.0475875,0.071125,1.0303875,0.813166666666667,-0.0666666666666668,0.274666666666667,926.081,-0.79026,0.61252,-0.28032,0.341555555555556,-8.92222222222222,-1.47488888888889,63.471,-0.102725,-0.766025,1.0910625,-0.641428571428571,-0.937142857142857,-0.112714285714286,3.816,0.112775,-0.4887,0.8879,0,0.2562,-0.1952,764.019,0,1,1,0
24-May-2018 12:33:29,-550.777777777778,0.0314166666666667,0.0742166666666667,1.03758333333333,0.271571428571429,-0.998857142857143,-0.102571428571429,926.081,-0.79585,0.60295,-0.274725,-1.75188888888889,10.6815555555556,-0.897777777777778,63.075,-0.0994666666666667,-0.0036,1.08706666666667,-0.300857142857143,-0.895142857142857,-0.449714285714286,3.75,0.0896666666666667,-0.441766666666667,0.9098,4.70533333333333,-0.558833333333334,2.1445,777.845,0,1,1,0
24-May-2018 12:33:29,-550.777777777778,0.0314166666666667,0.0742166666666667,1.03758333333333,0.271571428571429,-0.998857142857143,-0.102571428571429,926.081,-0.79585,0.60295,-0.274725,-1.75188888888889,10.6815555555556,-0.897777777777778,63.075,-0.0994666666666667,-0.0036,1.08706666666667,-0.300857142857143,-0.895142857142857,-0.449714285714286,3.75,0.0896666666666667,-0.441766666666667,0.9098,4.70533333333333,-0.558833333333334,2.1445,777.845,0,1,1,0
24-May-2018 12:33:29,-550.777777777778,0.0314166666666667,0.0742166666666667,1.03758333333333,0.271571428571429,-0.998857142857143,-0.102571428571429,926.081,-0.79585,0.60295,-0.274725,-1.75188888888889,10.6815555555556,-0.897777777777778,63.075,-0.0994666666666667,-0.0036,1.08706666666667,-0.300857142857143,-0.895142857142857,-0.449714285714286,3.75,0.0896666666666667,-0.441766666666667,0.9098,4.70533333333333,-0.558833333333334,2.1445,777.845,0,1,1,0
24-May-2018 12:33:29,-550.777777777778,0.0314166666666667,0.0742166666666667,1.03758333333333,0.271571428571429,-0.998857142857143,-0.102571428571429,926.081,-0.79585,0.60295,-0.274725,-1.75188888888889,10.6815555555556,-0.897777777777778,63.075,-0.0994666666666667,-0.0036,1.08706666666667,-0.300857142857143,-0.895142857142857,-0.449714285714286,3.75,0.0896666666666667,-0.441766666666667,0.9098,4.70533333333333,-0.558833333333334,2.1445,777.845,0,1,1,0
24-May-2018 12:33:30,-342.375,0.0401571428571429,0.0692428571428571,1.039,1.129,-0.941875,0.6555,926.081,-0.805675,0.5913,-0.27875,8.54271428571428,-6.00357142857143,-5.48285714285714,63.075,-0.100033333333333,-0.00355,1.09221666666667,-0.738333333333333,-1.095,0.0121666666666667,3.762,0.107775,-0.4814,0.89045,0.8385,0.5335,-3.07925,765.420333333333,0,1,1,1
24-May-2018 12:33:30,-342.375,0.0401571428571429,0.0692428571428571,1.039,1.129,-0.941875,0.6555,926.081,-0.805675,0.5913,-0.27875,8.54271428571428,-6.00357142857143,-5.48285714285714,63.075,-0.100033333333333,-0.00355,1.09221666666667,-0.738333333333333,-1.095,0.0121666666666667,3.762,0.107775,-0.4814,0.89045,0.8385,0.5335,-3.07925,765.420333333333,0,1,1,1
24-May-2018 12:33:30,-342.375,0.0401571428571429,0.0692428571428571,1.039,1.129,-0.941875,0.6555,926.081,-0.805675,0.5913,-0.27875,8.54271428571428,-6.00357142857143,-5.48285714285714,63.075,-0.100033333333333,-0.00355,1.09221666666667,-0.738333333333333,-1.095,0.0121666666666667,3.762,0.107775,-0.4814,0.89045,0.8385,0.5335,-3.07925,765.420333333333,0,1,1,1
24-May-2018 12:33:30,-342.375,0.0401571428571429,0.0692428571428571,1.039,1.129,-0.941875,0.6555,926.081,-0.805675,0.5913,-0.27875,8.54271428571428,-6.00357142857143,-5.48285714285714,63.075,-0.100033333333333,-0.00355,1.09221666666667,-0.738333333333333,-1.095,0.0121666666666667,3.762,0.107775,-0.4814,0.89045,0.8385,0.5335,-3.07925,765.420333333333,0,1,1,1
24-May-2018 12:33:31,298.6,0.049825,0.070275,1.03295,0.864333333333333,0.236833333333333,0.427,923.534,-0.816025,0.572975,-0.286325,-2.817875,2.439875,-2.456625,63.075,-0.102525,-0.00205,1.09155,-0.379857142857143,-0.858571428571429,-0.231285714285714,3.744,0.1046,-0.475816666666667,0.892333333333333,0.777375,0.57175,-0.1525,767.415,1,1,1,1
24-May-2018 12:33:31,298.6,0.049825,0.070275,1.03295,0.864333333333333,0.236833333333333,0.427,923.534,-0.816025,0.572975,-0.286325,-2.817875,2.439875,-2.456625,63.075,-0.102525,-0.00205,1.09155,-0.379857142857143,-0.858571428571429,-0.231285714285714,3.744,0.1046,-0.475816666666667,0.892333333333333,0.777375,0.57175,-0.1525,767.415,1,1,1,1
24-May-2018 12:33:31,298.6,0.049825,0.070275,1.03295,0.864333333333333,0.236833333333333,0.427,923.534,-0.816025,0.572975,-0.286325,-2.817875,2.439875,-2.456625,63.075,-0.102525,-0.00205,1.09155,-0.379857142857143,-0.858571428571429,-0.231285714285714,3.744,0.1046,-0.475816666666667,0.892333333333333,0.777375,0.57175,-0.1525,767.415,1,1,1,1
24-May-2018 12:33:31,298.6,0.049825,0.070275,1.03295,0.864333333333333,0.236833333333333,0.427,923.534,-0.816025,0.572975,-0.286325,-2.817875,2.439875,-2.456625,63.075,-0.102525,-0.00205,1.09155,-0.379857142857143,-0.858571428571429,-0.231285714285714,3.744,0.1046,-0.475816666666667,0.892333333333333,0.777375,0.57175,-0.1525,767.415,1,1,1,1
24-May-2018 12:33:32,628.25,0.05166,0.071,1.03344,1.11275,-1.305,0.305,924.06525,-0.81546,0.576,-0.2813,2.2144,-3.1556,0.124,61.681,-0.09845,-0.00248333333333333,1.08898333333333,-0.585,-0.991666666666667,-0.179166666666667,3.756,0.10446,-0.47902,0.89216,0.89925,0.65575,-0.04575,769.011,0,1,1,1
24-May-2018 12:33:32,628.25,0.05166,0.071,1.03344,1.11275,-1.305,0.305,924.06525,-0.81546,0.576,-0.2813,2.2144,-3.1556,0.124,61.681,-0.09845,-0.00248333333333333,1.08898333333333,-0.585,-0.991666666666667,-0.179166666666667,3.756,0.10446,-0.47902,0.89216,0.89925,0.65575,-0.04575,769.011,0,1,1,1
24-May-2018 12:33:32,628.25,0.05166,0.071,1.03344,1.11275,-1.305,0.305,924.06525,-0.81546,0.576,-0.2813,2.2144,-3.1556,0.124,61.681,-0.09845,-0.00248333333333333,1.08898333333333,-0.585,-0.991666666666667,-0.179166666666667,3.756,0.10446,-0.47902,0.89216,0.89925,0.65575,-0.04575,769.011,0,1,1,1
24-May-2018 12:33:32,628.25,0.05166,0.071,1.03344,1.11275,-1.305,0.305,924.06525,-0.81546,0.576,-0.2813,2.2144,-3.1556,0.124,61.681,-0.09845,-0.00248333333333333,1.08898333333333,-0.585,-0.991666666666667,-0.179166666666667,3.756,0.10446,-0.47902,0.89216,0.89925,0.65575,-0.04575,769.011,0,1,1,1
24-May-2018 12:33:33,968.111111111111,0.04276,0.0752,1.0304,0.8695,-0.219625,0.358375,923.90725,-0.813475,0.5788,-0.2824,2.19611111111111,3.03611111111111,1.19233333333333,61.681,-0.09805,-0.00153333333333333,1.09031666666667,-0.553333333333333,-1.03166666666667,-0.493333333333333,3.75833333333333,0.10538,-0.47848,0.89192,0.2074,0.305,-0.2684,769.299,0,1,1,1
24-May-2018 12:33:33,968.111111111111,0.04276,0.0752,1.0304,0.8695,-0.219625,0.358375,923.90725,-0.813475,0.5788,-0.2824,2.19611111111111,3.03611111111111,1.19233333333333,61.681,-0.09805,-0.00153333333333333,1.09031666666667,-0.553333333333333,-1.03166666666667,-0.493333333333333,3.75833333333333,0.10538,-0.47848,0.89192,0.2074,0.305,-0.2684,769.299,0,1,1,1
24-May-2018 12:33:33,968.111111111111,0.04276,0.0752,1.0304,0.8695,-0.219625,0.358375,923.90725,-0.813475,0.5788,-0.2824,2.19611111111111,3.03611111111111,1.19233333333333,61.681,-0.09805,-0.00153333333333333,1.09031666666667,-0.553333333333333,-1.03166666666667,-0.493333333333333,3.75833333333333,0.10538,-0.47848,0.89192,0.2074,0.305,-0.2684,769.299,0,1,1,1
24-May-2018 12:33:33,968.111111111111,0.04276,0.0752,1.0304,0.8695,-0.219625,0.358375,923.90725,-0.813475,0.5788,-0.2824,2.19611111111111,3.03611111111111,1.19233333333333,61.681,-0.09805,-0.00153333333333333,1.09031666666667,-0.553333333333333,-1.03166666666667,-0.493333333333333,3.75833333333333,0.10538,-0.47848,0.89192,0.2074,0.305,-0.2684,769.299,0,1,1,1
24-May-2018 12:33:34,-151.636363636364,0.0365666666666667,0.0742333333333333,1.03303333333333,0.488,-1.7034,0.1832,922.348666666667,-0.81648,0.57674,-0.28152,-1.91455555555556,1.187,-0.519555555555556,61.6625,-0.09986,-0.00286,1.09236,-0.655,-0.646666666666667,0.1425,3.756,0.104766666666667,-0.479033333333333,0.893,0.6952,0.5246,-0.1464,769.162666666667,0,1,1,1
24-May-2018 12:33:34,-151.636363636364,0.0365666666666667,0.0742333333333333,1.03303333333333,0.488,-1.7034,0.1832,922.348666666667,-0.81648,0.57674,-0.28152,-1.91455555555556,1.187,-0.519555555555556,61.6625,-0.09986,-0.00286,1.09236,-0.655,-0.646666666666667,0.1425,3.756,0.104766666666667,-0.479033333333333,0.893,0.6952,0.5246,-0.1464,769.162666666667,0,1,1,1
24-May-2018 12:33:34,-151.636363636364,0.0365666666666667,0.0742333333333333,1.03303333333333,0.488,-1.7034,0.1832,922.348666666667,-0.81648,0.57674,-0.28152,-1.91455555555556,1.187,-0.519555555555556,61.6625,-0.09986,-0.00286,1.09236,-0.655,-0.646666666666667,0.1425,3.756,0.104766666666667,-0.479033333333333,0.893,0.6952,0.5246,-0.1464,769.162666666667,0,1,1,1
24-May-2018 12:33:34,-151.636363636364,0.0365666666666667,0.0742333333333333,1.03303333333333,0.488,-1.7034,0.1832,922.348666666667,-0.81648,0.57674,-0.28152,-1.91455555555556,1.187,-0.519555555555556,61.6625,-0.09986,-0.00286,1.09236,-0.655,-0.646666666666667,0.1425,3.756,0.104766666666667,-0.479033333333333,0.893,0.6952,0.5246,-0.1464,769.162666666667,0,1,1,1
24-May-2018 12:33:35,-101.666666666667,0.0550666666666667,0.0726,1.03633333333333,0.5124,-0.1072,0.3172,923.544,-0.8116,0.578275,-0.28385,-1.13444444444444,-2.60333333333333,1.25411111111111,61.607,-0.09995,-0.003125,1.090175,-0.556,-0.862,-0.192,3.744,0.104466666666667,-0.476866666666667,0.894566666666667,0.244,0.305,-0.165571428571429,769.332,0,1,1,0
24-May-2018 12:33:35,-101.666666666667,0.0550666666666667,0.0726,1.03633333333333,0.5124,-0.1072,0.3172,923.544,-0.8116,0.578275,-0.28385,-1.13444444444444,-2.60333333333333,1.25411111111111,61.607,-0.09995,-0.003125,1.090175,-0.556,-0.862,-0.192,3.744,0.104466666666667,-0.476866666666667,0.894566666666667,0.244,0.305,-0.165571428571429,769.332,0,1,1,0
24-May-2018 12:33:35,-101.666666666667,0.0550666666666667,0.0726,1.03633333333333,0.5124,-0.1072,0.3172,923.544,-0.8116,0.578275,-0.28385,-1.13444444444444,-2.60333333333333,1.25411111111111,61.607,-0.09995,-0.003125,1.090175,-0.556,-0.862,-0.192,3.744,0.104466666666667,-0.476866666666667,0.894566666666667,0.244,0.305,-0.165571428571429,769.332,0,1,1,0
24-May-2018 12:33:35,-101.666666666667,0.0550666666666667,0.0726,1.03633333333333,0.5124,-0.1072,0.3172,923.544,-0.8116,0.578275,-0.28385,-1.13444444444444,-2.60333333333333,1.25411111111111,61.607,-0.09995,-0.003125,1.090175,-0.556,-0.862,-0.192,3.744,0.104466666666667,-0.476866666666667,0.894566666666667,0.244,0.305,-0.165571428571429,769.332,0,1,1,0
