TIME,HELMET_RAW,BELT_ACC_X,BELT_ACC_Y,BELT_ACC_Z,BELT_ANG_X,BELT_ANG_Y,BELT_ANG_Z,BELT_LUMINOSITY,NECK_ACC_X,NECK_ACC_Y,NECK_ACC_Z,NECK_ANG_X,NECK_ANG_Y,NECK_ANG_Z,NECK_LUMINOSITY,PCKT_ACC_X,PCKT_ACC_Y,PCKT_ACC_Z,PCKT_ANG_X,PCKT_ANG_Y,PCKT_ANG_Z,PCKT_LUMINOSITY,WRST_ACC_X,WRST_ACC_Y,WRST_ACC_Z,WRST_ANG_X,WRST_ANG_Y,WRST_ANG_Z,WRST_LUMINOSITY,IR_1,IR_2,IR_3,IR_4
24-May-2018 12:50:48,52.1,0.904785714285714,-0.173642857142857,0.301414285714286,0.697142857142857,0.357571428571429,0.279285714285714,5.41333333333333,-0.78775,0.10125,-0.664075,-18.7366666666667,-17.5988888888889,-16.3555555555556,154.228,0.7311,0.398,0.591066666666667,-0.019,-0.523333333333333,-0.383333333333333,0.088,-0.719225,-0.389825,0.52615,0.894166666666667,0.742,-0.488,712.4975,1,1,1,1
24-May-2018 12:50:48,52.1,0.904785714285714,-0.173642857142857,0.301414285714286,0.697142857142857,0.357571428571429,0.279285714285714,5.41333333333333,-0.78775,0.10125,-0.664075,-18.7366666666667,-17.5988888888889,-16.3555555555556,154.228,0.7311,0.398,0.591066666666667,-0.019,-0.523333333333333,-0.383333333333333,0.088,-0.719225,-0.389825,0.52615,0.894166666666667,0.742,-0.488,712.4975,1,1,1,1
24-May-2018 12:50:48,52.1,0.904785714285714,-0.173642857142857,0.301414285714286,0.697142857142857,0.357571428571429,0.279285714285714,5.41333333333333,-0.78775,0.10125,-0.664075,-18.7366666666667,-17.5988888888889,-16.3555555555556,154.228,0.7311,0.398,0.591066666666667,-0.019,-0.523333333333333,-0.383333333333333,0.088,-0.719225,-0.389825,0.52615,0.894166666666667,0.742,-0.488,712.4975,1,1,1,1
24-May-2018 12:50:48,52.1,0.904785714285714,-0.173642857142857,0.301414285714286,0.697142857142857,0.357571428571429,0.279285714285714,5.41333333333333,-0.78775,0.10125,-0.664075,-18.7366666666667,-17.5988888888889,-16.3555555555556,154.228,0.7311,0.398,0.591066666666667,-0.019,-0.523333333333333,-0.383333333333333,0.088,-0.719225,-0.389825,0.52615,0.894166666666667,0.742,0,712.4975,1,1,1,1
24-May-2018 12:50:49,52,0.906885714285714,-0.173014285714286,0.298885714285714,0.5185,-0.5115,0.538666666666667,5.4155,-0.9047,0.0648,-0.7626,17.0073333333333,14.8416666666667,-12.5045555555556,154.228,0.73182,0.39586,0.59154,-0.18,-0.91,-0.54,0.1,-0.710485714285714,-0.387728571428571,0.535914285714286,0.0815000000000001,-0.752,-0.376166666666667,709.744,1,1,1,1
24-May-2018 12:50:49,52,0.906885714285714,-0.173014285714286,0.298885714285714,0.5185,-0.5115,0.538666666666667,5.4155,-0.9047,0.0648,-0.7626,17.0073333333333,14.8416666666667,-12.5045555555556,154.228,0.73182,0.39586,0.59154,-0.18,-0.91,-0.54,0.1,-0.710485714285714,-0.387728571428571,0.535914285714286,0.0815000000000001,-0.752,-0.376166666666667,709.744,1,1,1,1
24-May-2018 12:50:49,52,0.906885714285714,-0.173014285714286,0.298885714285714,0.5185,-0.5115,0.538666666666667,5.4155,-0.9047,0.0648,-0.7626,17.0073333333333,14.8416666666667,-12.5045555555556,154.228,0.73182,0.39586,0.59154,-0.18,-0.91,-0.54,0.1,-0.710485714285714,-0.387728571428571,0.535914285714286,0.0815000000000001,-0.752,-0.376166666666667,709.744,1,1,1,1
24-May-2018 12:50:49,52,0.906885714285714,-0.173014285714286,0.298885714285714,0.5185,-0.5115,0.538666666666667,5.4155,-0.9047,0.0648,-0.7626,17.0073333333333,14.8416666666667,-12.5045555555556,154.228,0.73182,0.39586,0.59154,-0.18,-0.91,-0.54,0.1,-0.710485714285714,-0.387728571428571,0.535914285714286,0.0815000000000001,-0.752,-0.376166666666667,709.744,1,1,1,1
24-May-2018 12:50:50,52,0.903114285714286,-0.174714285714286,0.305471428571429,-1.12928571428571,1.56028571428571,-0.0852857142857143,5.37433333333333,-0.8278,0.00468333333333333,-0.5536,23.2677777777778,14.1775555555556,22.0101111111111,154.228,0.72875,0.3953,0.59735,-1.17666666666667,0.0633333333333334,0.0236666666666667,0.1,-0.722933333333333,-0.3918,0.514533333333333,2.878,4.2072,-0.622,717.59325,1,1,1,1
24-May-2018 12:50:50,52,0.903114285714286,-0.174714285714286,0.305471428571429,-1.12928571428571,1.56028571428571,-0.0852857142857143,5.37433333333333,-0.8278,0.00468333333333333,-0.5536,23.2677777777778,14.1775555555556,22.0101111111111,154.228,0.72875,0.3953,0.59735,-1.17666666666667,0.0633333333333334,0.0236666666666667,0.1,-0.722933333333333,-0.3918,0.514533333333333,2.878,4.2072,-0.622,717.59325,1,1,1,1
24-May-2018 12:50:50,52,0.903114285714286,-0.174714285714286,0.305471428571429,-1.12928571428571,1.56028571428571,-0.0852857142857143,5.37433333333333,-0.8278,0.00468333333333333,-0.5536,23.2677777777778,14.1775555555556,22.0101111111111,154.228,0.72875,0.3953,0.59735,-1.17666666666667,0.0633333333333334,0.0236666666666667,0.1,-0.722933333333333,-0.3918,0.514533333333333,2.878,4.2072,-0.622,717.59325,1,1,1,1
24-May-2018 12:50:50,52,0.903114285714286,-0.174714285714286,0.305471428571429,-1.12928571428571,1.56028571428571,-0.0852857142857143,5.37433333333333,-0.8278,0.00468333333333333,-0.5536,23.2677777777778,14.1775555555556,22.0101111111111,154.228,0.72875,0.3953,0.59735,-1.17666666666667,0.0633333333333334,0.0236666666666667,0.1,-0.722933333333333,-0.3918,0.514533333333333,2.878,4.2072,-0.622,717.59325,1,1,1,1
24-May-2018 12:50:51,52,0.905216666666667,-0.170833333333333,0.300283333333333,1.02555555555556,0.223555555555556,0.298777777777778,5.26933333333333,-0.76598,0.11392,-0.64906,45.4888888888889,4.09477777777778,67.4144444444444,139.505,0.7249,0.39205,0.59875,-2.09875,-3.2275,-2.5725,0.124,-0.733757142857143,-0.383542857142857,0.506857142857143,0.538833333333333,0.335333333333333,-0.4775,696.336,1,1,1,1
24-May-2018 12:50:51,52,0.905216666666667,-0.170833333333333,0.300283333333333,1.02555555555556,0.223555555555556,0.298777777777778,5.26933333333333,-0.76598,0.11392,-0.64906,45.4888888888889,4.09477777777778,67.4144444444444,139.505,0.7249,0.39205,0.59875,-2.09875,-3.2275,-2.5725,0.124,-0.733757142857143,-0.383542857142857,0.506857142857143,0.538833333333333,0.335333333333333,-0.4775,696.336,1,1,1,1
24-May-2018 12:50:51,52,0.905216666666667,-0.170833333333333,0.300283333333333,1.02555555555556,0.223555555555556,0.298777777777778,5.26933333333333,-0.76598,0.11392,-0.64906,45.4888888888889,4.09477777777778,67.4144444444444,139.505,0.7249,0.39205,0.59875,-2.09875,-3.2275,-2.5725,0.124,-0.733757142857143,-0.383542857142857,0.506857142857143,0.538833333333333,0.335333333333333,-0.4775,696.336,1,1,1,1
24-May-2018 12:50:51,52,0.905216666666667,-0.170833333333333,0.300283333333333,1.02555555555556,0.223555555555556,0.298777777777778,5.26933333333333,-0.76598,0.11392,-0.64906,45.4888888888889,4.09477777777778,67.4144444444444,139.505,0.7249,0.39205,0.59875,-2.09875,-3.2275,-2.5725,0.124,-0.733757142857143,-0.383542857142857,0.506857142857143,0.538833333333333,0.335333333333333,-0.4775,696.336,1,1,1,1
24-May-2018 12:50:52,51.9090909090909,0.903177777777778,-0.173666666666667,0.308733333333333,1.68711111111111,0.719888888888889,0.664222222222222,5.26933333333333,-0.81144,0.10174,-0.69866,87.17,-4.065,93.0288888888889,139.505,0.730766666666667,0.4045,0.580333333333333,2.21025,-1.6725,0.7775,0.091,-0.7287,-0.3903,0.502166666666667,-0.6584,-0.61,0.2562,696.3892,1,1,1,1
24-May-2018 12:50:52,51.9090909090909,0.903177777777778,-0.173666666666667,0.308733333333333,1.68711111111111,0.719888888888889,0.664222222222222,5.26933333333333,-0.81144,0.10174,-0.69866,87.17,-4.065,93.0288888888889,139.505,0.730766666666667,0.4045,0.580333333333333,2.21025,-1.6725,0.7775,0.091,-0.7287,-0.3903,0.502166666666667,-0.6584,-0.61,0.2562,696.3892,1,1,1,1
24-May-2018 12:50:52,51.9090909090909,0.903177777777778,-0.173666666666667,0.308733333333333,1.68711111111111,0.719888888888889,0.664222222222222,5.26933333333333,-0.81144,0.10174,-0.69866,87.17,-4.065,93.0288888888889,139.505,0.730766666666667,0.4045,0.580333333333333,2.21025,-1.6725,0.7775,0.091,-0.7287,-0.3903,0.502166666666667,-0.6584,-0.61,0.2562,696.3892,1,1,1,1
24-May-2018 12:50:52,51.9090909090909,0.903177777777778,-0.173666666666667,0.308733333333333,1.68711111111111,0.719888888888889,0.664222222222222,5.26933333333333,-0.81144,0.10174,-0.69866,87.17,-4.065,93.0288888888889,139.505,0.730766666666667,0.4045,0.580333333333333,2.21025,-1.6725,0.7775,0.091,-0.7287,-0.3903,0.502166666666667,-0.6584,-0.61,0.2562,696.3892,1,1,1,1
24-May-2018 12:50:53,52,0.902322222222222,-0.174566666666667,0.309166666666667,-0.134375,-0.355,0.267625,5.26933333333333,-0.68664,0.26978,-0.71352,63.7222222222222,5.60377777777778,78.4255555555556,148.808,0.73475,0.4111,0.57765,-3.535,-1.975,-1.55,0.088,-0.72575,-0.39405,0.5118,1.4756,1.244,-0.6954,699.442,1,1,1,1
24-May-2018 12:50:53,52,0.902322222222222,-0.174566666666667,0.309166666666667,-0.134375,-0.355,0.267625,5.26933333333333,-0.68664,0.26978,-0.71352,63.7222222222222,5.60377777777778,78.4255555555556,148.808,0.73475,0.4111,0.57765,-3.535,-1.975,-1.55,0.088,-0.72575,-0.39405,0.5118,1.4756,1.244,-0.6954,699.442,1,1,1,1
24-May-2018 12:50:53,52,0.902322222222222,-0.174566666666667,0.309166666666667,-0.134375,-0.355,0.267625,5.26933333333333,-0.68664,0.26978,-0.71352,63.7222222222222,5.60377777777778,78.4255555555556,148.808,0.73475,0.4111,0.57765,-3.535,-1.975,-1.55,0.088,-0.72575,-0.39405,0.5118,1.4756,1.244,-0.6954,699.442,1,1,1,1
24-May-2018 12:50:53,52,0.902322222222222,-0.174566666666667,0.309166666666667,-0.134375,-0.355,0.267625,5.26933333333333,-0.68664,0.26978,-0.71352,63.7222222222222,5.60377777777778,78.4255555555556,148.808,0.73475,0.4111,0.57765,-3.535,-1.975,-1.55,0.088,-0.72575,-0.39405,0.5118,1.4756,1.244,-0.6954,699.442,1,1,1,1
24-May-2018 12:50:54,51.8181818181818,0.900925,-0.1738125,0.31175,0.0758888888888889,0.164,0.169777777777778,5.26933333333333,-0.70324,0.30082,-0.73664,98.98,-23.432,89.697,151.909,0.725866666666667,0.4139,0.583533333333333,-0.179,-0.322666666666667,-0.179666666666667,0.109,-0.7168,-0.396185714285714,0.511028571428571,1.2072,0.0366,-1.6222,702.0602,1,1,1,1
24-May-2018 12:50:54,51.8181818181818,0.900925,-0.1738125,0.31175,0.0758888888888889,0.164,0.169777777777778,5.26933333333333,-0.70324,0.30082,-0.73664,98.98,-23.432,89.697,151.909,0.725866666666667,0.4139,0.583533333333333,-0.179,-0.322666666666667,-0.179666666666667,0.109,-0.7168,-0.396185714285714,0.511028571428571,1.2072,0.0366,-1.6222,702.0602,1,1,1,1
24-May-2018 12:50:54,51.8181818181818,0.900925,-0.1738125,0.31175,0.0758888888888889,0.164,0.169777777777778,5.26933333333333,-0.70324,0.30082,-0.73664,98.98,-23.432,89.697,151.909,0.725866666666667,0.4139,0.583533333333333,-0.179,-0.322666666666667,-0.179666666666667,0.109,-0.7168,-0.396185714285714,0.511028571428571,1.2072,0.0366,-1.6222,702.0602,1,1,1,1
24-May-2018 12:50:54,51.8181818181818,0.900925,-0.1738125,0.31175,0.0758888888888889,0.164,0.169777777777778,5.26933333333333,-0.70324,0.30082,-0.73664,98.98,-23.432,89.697,151.909,0.725866666666667,0.4139,0.583533333333333,-0.179,-0.322666666666667,-0.179666666666667,0.109,-0.7168,-0.396185714285714,0.511028571428571,1.2072,0.0366,-1.6222,702.0602,1,1,1,1
24-May-2018 12:50:55,52,0.90265,-0.17225,0.307825,0.549,-0.2292,0.147,5.26933333333333,-0.7179,0.16315,-0.7236,80.264,-25.8,60.446,151.909,0.7217,0.4113,0.5902,-0.91,0.0945,0.305,0.094,-0.71195,-0.3983,0.514075,-1.91066666666667,-0.345666666666667,-0.305,705.106,1,1,1,1
24-May-2018 12:50:55,52,0.90265,-0.17225,0.307825,0.549,-0.2292,0.147,5.26933333333333,-0.7179,0.16315,-0.7236,80.264,-25.8,60.446,151.909,0.7217,0.4113,0.5902,-0.91,0.0945,0.305,0.094,-0.71195,-0.3983,0.514075,-1.91066666666667,-0.345666666666667,-0.305,705.106,1,1,1,1
24-May-2018 12:50:55,52,0.90265,-0.17225,0.307825,0.549,-0.2292,0.147,5.26933333333333,-0.7179,0.16315,-0.7236,80.264,-25.8,60.446,151.909,0.7217,0.4113,0.5902,-0.91,0.0945,0.305,0.094,-0.71195,-0.3983,0.514075,-1.91066666666667,-0.345666666666667,-0.305,705.106,1,1,1,1
24-May-2018 12:50:55,52,0.90265,-0.17225,0.307825,0.549,-0.2292,0.147,0,-0.7179,0.16315,-0.7236,80.264,-25.8,60.446,151.909,0.7217,0.4113,0.5902,-0.91,0.0945,0.305,0.094,-0.71195,-0.3983,0.514075,-1.91066666666667,-0.345666666666667,-0.305,705.106,1,1,1,1
24-May-2018 12:50:56,52,0.904233333333333,-0.1739,0.3026,0.102,0.325,0.508333333333333,5.2585,-0.651666666666667,0.1943,-0.717633333333333,47.82,-12.4583333333333,46.5083333333333,149.286,0.726,0.41726,0.58534,-0.179,-1.41666666666667,-0.583333333333333,0.106,-0.710275,-0.39935,0.530375,0.82325,1.89025,-0.3505,706.2605,1,1,1,1
24-May-2018 12:50:56,52,0.904233333333333,-0.1739,0.3026,0.102,0.325,0.508333333333333,5.2585,-0.651666666666667,0.1943,-0.717633333333333,47.82,-12.4583333333333,46.5083333333333,149.286,0.726,0.41726,0.58534,-0.179,-1.41666666666667,-0.583333333333333,0.106,-0.710275,-0.39935,0.530375,0.82325,1.89025,-0.3505,706.2605,1,1,1,1
24-May-2018 12:50:56,52,0.904233333333333,-0.1739,0.3026,0.102,0.325,0.508333333333333,5.2585,-0.651666666666667,0.1943,-0.717633333333333,47.82,-12.4583333333333,46.5083333333333,149.286,0.726,0.41726,0.58534,-0.179,-1.41666666666667,-0.583333333333333,0.106,-0.710275,-0.39935,0.530375,0.82325,1.89025,-0.3505,706.2605,1,1,1,1
24-May-2018 12:50:56,52,0.904233333333333,-0.1739,0.3026,0.102,0.325,0.508333333333333,5.2585,-0.651666666666667,0.1943,-0.717633333333333,47.82,-12.4583333333333,46.5083333333333,149.286,0.726,0.41726,0.58534,-0.179,-1.41666666666667,-0.583333333333333,0.106,-0.710275,-0.39935,0.530375,0.82325,1.89025,-0.3505,706.2605,1,1,1,1
24-May-2018 12:50:57,52,0.902383333333333,-0.17445,0.313,0.184,-0.2646,0.1466,5.228,-0.7192,0.2048,-0.79085,55.125,-21.475,43.15125,149.286,0.72166,0.41656,0.59114,-1.80333333333333,-0.953333333333333,-0.686666666666667,0.133,-0.717714285714286,-0.404257142857143,0.518,0.836142857142857,-0.0522857142857143,0.357142857142857,704.197,1,1,1,1
24-May-2018 12:50:57,52,0.902383333333333,-0.17445,0.313,0.184,-0.2646,0.1466,5.228,-0.7192,0.2048,-0.79085,55.125,-21.475,43.15125,149.286,0.72166,0.41656,0.59114,-1.80333333333333,-0.953333333333333,-0.686666666666667,0.133,-0.717714285714286,-0.404257142857143,0.518,0.836142857142857,-0.0522857142857143,0.357142857142857,704.197,1,1,1,1
24-May-2018 12:50:57,52,0.902383333333333,-0.17445,0.313,0.184,-0.2646,0.1466,5.228,-0.7192,0.2048,-0.79085,55.125,-21.475,43.15125,149.286,0.72166,0.41656,0.59114,-1.80333333333333,-0.953333333333333,-0.686666666666667,0.133,-0.717714285714286,-0.404257142857143,0.518,0.836142857142857,-0.0522857142857143,0.357142857142857,704.197,1,1,1,1
24-May-2018 12:50:57,52,0.902383333333333,-0.17445,0.313,0.184,-0.2646,0.1466,5.228,-0.7192,0.2048,-0.79085,55.125,-21.475,43.15125,149.286,0.72166,0.41656,0.59114,-1.80333333333333,-0.953333333333333,-0.686666666666667,0.133,-0.717714285714286,-0.404257142857143,0.518,0.836142857142857,-0.0522857142857143,0.357142857142857,704.197,1,1,1,1
24-May-2018 12:50:58,51.8333333333333,0.906214285714286,-0.175314285714286,0.298371428571429,1.68128571428571,-1.52,0.949285714285714,5.31266666666667,-0.686725,0.15565,-0.79855,63.0022222222222,-17.5855555555556,33.5388888888889,149.286,0.72182,0.41612,0.59028,-0.973333333333333,-0.669333333333333,0.226666666666667,0.133,-0.706625,-0.395775,0.538025,-0.0732,0.6706,0.4268,710.8084,1,1,1,1
24-May-2018 12:50:58,51.8333333333333,0.906214285714286,-0.175314285714286,0.298371428571429,1.68128571428571,-1.52,0.949285714285714,5.31266666666667,-0.686725,0.15565,-0.79855,63.0022222222222,-17.5855555555556,33.5388888888889,149.286,0.72182,0.41612,0.59028,-0.973333333333333,-0.669333333333333,0.226666666666667,0.133,-0.706625,-0.395775,0.538025,-0.0732,0.6706,0.4268,710.8084,1,1,1,1
24-May-2018 12:50:58,51.8333333333333,0.906214285714286,-0.175314285714286,0.298371428571429,1.68128571428571,-1.52,0.949285714285714,5.31266666666667,-0.686725,0.15565,-0.79855,63.0022222222222,-17.5855555555556,33.5388888888889,149.286,0.72182,0.41612,0.59028,-0.973333333333333,-0.669333333333333,0.226666666666667,0.133,-0.706625,-0.395775,0.538025,-0.0732,0.6706,0.4268,710.8084,1,1,1,1
24-May-2018 12:50:58,51.8333333333333,0.906214285714286,-0.175314285714286,0.298371428571429,1.68128571428571,-1.52,0.949285714285714,5.31266666666667,-0.686725,0.15565,-0.79855,63.0022222222222,-17.5855555555556,33.5388888888889,149.286,0.72182,0.41612,0.59028,-0.973333333333333,-0.669333333333333,0.226666666666667,0,-0.706625,-0.395775,0.538025,-0.0732,0.6706,0.4268,710.8084,1,1,1,1
24-May-2018 12:50:59,52,0.90915,-0.1768,0.29335,-1.19666666666667,-0.198666666666667,-0.24,5.404,-0.67195,0.0949,-0.77145,50.65,-8.9325,23.41,140.762,0.723,0.4055,0.601,-0.973333333333333,-0.669333333333333,0.226666666666667,0.106,-0.7133,-0.38665,0.52995,1.6465,0.61,-0.2135,712.24,1,1,1,1
24-May-2018 12:50:59,52,0.90915,-0.1768,0.29335,-1.19666666666667,-0.198666666666667,-0.24,5.404,-0.67195,0.0949,-0.77145,50.65,-8.9325,23.41,140.762,0.723,0.4055,0.601,-0.973333333333333,-0.669333333333333,0.226666666666667,0.106,-0.7133,-0.38665,0.52995,1.6465,0.61,-0.2135,712.24,1,1,1,1
24-May-2018 12:50:59,52,0.90915,-0.1768,0.29335,-1.19666666666667,-0.198666666666667,-0.24,5.404,-0.67195,0.0949,-0.77145,50.65,-8.9325,23.41,140.762,0.723,0.4055,0.601,-0.973333333333333,-0.669333333333333,0.226666666666667,0.106,-0.7133,-0.38665,0.52995,1.6465,0.61,-0.2135,712.24,1,1,1,1
24-May-2018 12:50:59,52,0.90915,-0.1768,0.29335,-1.19666666666667,-0.198666666666667,-0.24,5.404,-0.67195,0.0949,-0.77145,50.65,-8.9325,23.41,140.762,0.723,0.4055,0.601,0,0,0,0.106,-0.7133,-0.38665,0.52995,1.6465,0.61,-0.2135,712.24,1,1,1,1
24-May-2018 12:51:00,52,0.903,-0.171,0.305066666666667,0.36775,1.32625,0.06275,5.30133333333333,-0.69585,0.0558,-0.7666,19.3171428571429,-5.81571428571429,-0.163142857142857,132.238,0.7136,0.4044,0.6111,-0.2288,-1.18,-0.437,0.142,-0.71115,-0.388483333333333,0.534133333333333,-0.5285,-0.416666666666667,0.0711666666666666,710.356,1,1,1,1
24-May-2018 12:51:00,52,0.903,-0.171,0.305066666666667,0.36775,1.32625,0.06275,5.30133333333333,-0.69585,0.0558,-0.7666,19.3171428571429,-5.81571428571429,-0.163142857142857,132.238,0.7136,0.4044,0.6111,-0.2288,-1.18,-0.437,0.142,-0.71115,-0.388483333333333,0.534133333333333,-0.5285,-0.416666666666667,0.0711666666666666,710.356,1,1,1,1
24-May-2018 12:51:00,52,0.903,-0.171,0.305066666666667,0.36775,1.32625,0.06275,5.30133333333333,-0.69585,0.0558,-0.7666,19.3171428571429,-5.81571428571429,-0.163142857142857,132.238,0.7136,0.4044,0.6111,-0.2288,-1.18,-0.437,0.142,-0.71115,-0.388483333333333,0.534133333333333,-0.5285,-0.416666666666667,0.0711666666666666,710.356,1,1,1,1
24-May-2018 12:51:00,52,0.903,-0.171,0.305066666666667,0.36775,1.32625,0.06275,5.30133333333333,-0.69585,0.0558,-0.7666,19.3171428571429,-5.81571428571429,-0.163142857142857,132.238,0.7136,0.4044,0.6111,-0.2288,-1.18,-0.437,0.142,-0.71115,-0.388483333333333,0.534133333333333,-0.5285,-0.416666666666667,0.0711666666666666,710.356,1,1,1,1
24-May-2018 12:51:01,52,0.90648,-0.1712,0.3002,1.0122,-0.862,0.5612,5.3265,-0.6987,0.0641,-0.779266666666667,20.1,1.01271428571429,-11.1942857142857,132.238,0.7168,0.4189,0.5988,-0.28725,-0.7,0.16925,0.1,-0.7093,-0.3842,0.538914285714286,0.693625,0.899625,0.243875,715.065,1,1,1,1
24-May-2018 12:51:01,52,0.90648,-0.1712,0.3002,1.0122,-0.862,0.5612,5.3265,-0.6987,0.0641,-0.779266666666667,20.1,1.01271428571429,-11.1942857142857,132.238,0.7168,0.4189,0.5988,-0.28725,-0.7,0.16925,0.1,-0.7093,-0.3842,0.538914285714286,0.693625,0.899625,0.243875,715.065,1,1,1,1
24-May-2018 12:51:01,52,0.90648,-0.1712,0.3002,1.0122,-0.862,0.5612,5.3265,-0.6987,0.0641,-0.779266666666667,20.1,1.01271428571429,-11.1942857142857,132.238,0.7168,0.4189,0.5988,-0.28725,-0.7,0.16925,0.1,-0.7093,-0.3842,0.538914285714286,0.693625,0.899625,0.243875,715.065,1,1,1,1
24-May-2018 12:51:01,52,0.90648,-0.1712,0.3002,1.0122,-0.862,0.5612,5.3265,-0.6987,0.0641,-0.779266666666667,20.1,1.01271428571429,-11.1942857142857,132.238,0.7168,0.4189,0.5988,-0.28725,-0.7,0.16925,0.1,-0.7093,-0.3842,0.538914285714286,0.693625,0.899625,0.243875,715.065,1,1,1,1
24-May-2018 12:51:02,51.8333333333333,0.906933333333333,-0.171733333333333,0.295516666666667,1.33257142857143,-0.0238571428571429,0.175285714285714,5.31925,-0.80584,0.00986,-0.7966,39.7722222222222,18.5552222222222,2.852,132.238,0.7136,0.4021,0.6107,-0.424333333333333,-0.262333333333333,0.447333333333333,0.1,-0.720766666666667,-0.380166666666667,0.529033333333333,1.46342857142857,0.958285714285714,-0.636,709.786333333333,1,1,1,1
24-May-2018 12:51:02,51.8333333333333,0.906933333333333,-0.171733333333333,0.295516666666667,1.33257142857143,-0.0238571428571429,0.175285714285714,5.31925,-0.80584,0.00986,-0.7966,39.7722222222222,18.5552222222222,2.852,132.238,0.7136,0.4021,0.6107,-0.424333333333333,-0.262333333333333,0.447333333333333,0.1,-0.720766666666667,-0.380166666666667,0.529033333333333,1.46342857142857,0.958285714285714,-0.636,709.786333333333,1,1,1,1
24-May-2018 12:51:02,51.8333333333333,0.906933333333333,-0.171733333333333,0.295516666666667,1.33257142857143,-0.0238571428571429,0.175285714285714,5.31925,-0.80584,0.00986,-0.7966,39.7722222222222,18.5552222222222,2.852,132.238,0.7136,0.4021,0.6107,-0.424333333333333,-0.262333333333333,0.447333333333333,0.1,-0.720766666666667,-0.380166666666667,0.529033333333333,1.46342857142857,0.958285714285714,-0.636,709.786333333333,1,1,1,1
24-May-2018 12:51:02,51.8333333333333,0.906933333333333,-0.171733333333333,0.295516666666667,1.33257142857143,-0.0238571428571429,0.175285714285714,5.31925,-0.80584,0.00986,-0.7966,39.7722222222222,18.5552222222222,2.852,132.238,0.7136,0.4021,0.6107,-0.424333333333333,-0.262333333333333,0.447333333333333,0.1,-0.720766666666667,-0.380166666666667,0.529033333333333,1.46342857142857,0.958285714285714,-0.636,709.786333333333,1,1,1,1
24-May-2018 12:51:03,51.9090909090909,0.904833333333333,-0.16885,0.301916666666667,-0.2152,0.7446,0.2446,5.256,-0.724766666666667,-0.0906666666666667,-0.6392,21.7385714285714,6.02714285714286,5.40142857142857,127.176,0.722225,0.407725,0.5958,-0.85225,-2.405,-0.5775,0.106,-0.719325,-0.3808,0.530525,0.442,0.16775,0.16775,707.29425,1,1,1,1
24-May-2018 12:51:03,51.9090909090909,0.904833333333333,-0.16885,0.301916666666667,-0.2152,0.7446,0.2446,5.256,-0.724766666666667,-0.0906666666666667,-0.6392,21.7385714285714,6.02714285714286,5.40142857142857,127.176,0.722225,0.407725,0.5958,-0.85225,-2.405,-0.5775,0.106,-0.719325,-0.3808,0.530525,0.442,0.16775,0.16775,707.29425,1,1,1,1
24-May-2018 12:51:03,51.9090909090909,0.904833333333333,-0.16885,0.301916666666667,-0.2152,0.7446,0.2446,5.256,-0.724766666666667,-0.0906666666666667,-0.6392,21.7385714285714,6.02714285714286,5.40142857142857,127.176,0.722225,0.407725,0.5958,-0.85225,-2.405,-0.5775,0.106,-0.719325,-0.3808,0.530525,0.442,0.16775,0.16775,707.29425,1,1,1,1
24-May-2018 12:51:03,51.9090909090909,0.904833333333333,-0.16885,0.301916666666667,-0.2152,0.7446,0.2446,5.256,-0.724766666666667,-0.0906666666666667,-0.6392,21.7385714285714,6.02714285714286,5.40142857142857,127.176,0.722225,0.407725,0.5958,-0.85225,-2.405,-0.5775,0.106,-0.719325,-0.3808,0.530525,0.442,0.16775,0.16775,707.29425,1,1,1,1
24-May-2018 12:51:04,52,0.9055875,-0.169325,0.301225,0.5725,0.4965,0.236375,5.256,-0.77346,-0.10968,-0.6912,11.3765,-12.28,10.715875,127.176,0.720583333333333,0.414133333333333,0.593216666666667,-1.4,1.098,-0.06,0.106,-0.7211,-0.37674,0.52236,1.82916666666667,1.3315,-0.193166666666667,707.33825,1,1,1,1
24-May-2018 12:51:04,52,0.9055875,-0.169325,0.301225,0.5725,0.4965,0.236375,5.256,-0.77346,-0.10968,-0.6912,11.3765,-12.28,10.715875,127.176,0.720583333333333,0.414133333333333,0.593216666666667,-1.4,1.098,-0.06,0.106,-0.7211,-0.37674,0.52236,1.82916666666667,1.3315,-0.193166666666667,707.33825,1,1,1,1
24-May-2018 12:51:04,52,0.9055875,-0.169325,0.301225,0.5725,0.4965,0.236375,5.256,-0.77346,-0.10968,-0.6912,11.3765,-12.28,10.715875,127.176,0.720583333333333,0.414133333333333,0.593216666666667,-1.4,1.098,-0.06,0.106,-0.7211,-0.37674,0.52236,1.82916666666667,1.3315,-0.193166666666667,707.33825,1,1,1,1
24-May-2018 12:51:04,52,0.9055875,-0.169325,0.301225,0.5725,0.4965,0.236375,5.256,-0.77346,-0.10968,-0.6912,11.3765,-12.28,10.715875,127.176,0.720583333333333,0.414133333333333,0.593216666666667,-1.4,1.098,-0.06,0,-0.7211,-0.37674,0.52236,1.82916666666667,1.3315,-0.193166666666667,707.33825,1,1,1,1
24-May-2018 12:51:05,52,0.9058875,-0.1684625,0.3005625,0.603222222222222,0.346777777777778,0.271444444444444,5.256,-0.7434,-0.0775,-0.668375,17.0764444444444,-21.6222222222222,27.5488888888889,127.176,0.719566666666667,0.410066666666667,0.600733333333333,-0.142333333333333,-0.85,-0.219,0.094,-0.698457142857143,-0.280257142857143,0.612157142857143,21.6668333333333,-5.762,3.882,716.91175,1,1,1,1
24-May-2018 12:51:05,52,0.9058875,-0.1684625,0.3005625,0.603222222222222,0.346777777777778,0.271444444444444,5.256,-0.7434,-0.0775,-0.668375,17.0764444444444,-21.6222222222222,27.5488888888889,127.176,0.719566666666667,0.410066666666667,0.600733333333333,-0.142333333333333,-0.85,-0.219,0.094,-0.698457142857143,-0.280257142857143,0.612157142857143,21.6668333333333,-5.762,3.882,716.91175,1,1,1,1
24-May-2018 12:51:05,52,0.9058875,-0.1684625,0.3005625,0.603222222222222,0.346777777777778,0.271444444444444,5.256,-0.7434,-0.0775,-0.668375,17.0764444444444,-21.6222222222222,27.5488888888889,127.176,0.719566666666667,0.410066666666667,0.600733333333333,-0.142333333333333,-0.85,-0.219,0.094,-0.698457142857143,-0.280257142857143,0.612157142857143,21.6668333333333,-5.762,3.882,716.91175,1,1,1,1
24-May-2018 12:51:05,52,0.9058875,-0.1684625,0.3005625,0.603222222222222,0.346777777777778,0.271444444444444,5.256,-0.7434,-0.0775,-0.668375,17.0764444444444,-21.6222222222222,27.5488888888889,127.176,0.719566666666667,0.410066666666667,0.600733333333333,-0.142333333333333,-0.85,-0.219,0.094,-0.698457142857143,-0.280257142857143,0.612157142857143,21.6668333333333,-5.762,3.882,716.91175,1,1,1,1
24-May-2018 12:51:06,52,0.905755555555556,-0.167211111111111,0.301766666666667,0.337,-0.022,0.381375,5.256,-0.76064,-0.0879,-0.68328,19.5535,-10.48875,31.49,117.249,0.71865,0.4158,0.59735,-1.15,-2.01,-0.54,0.094,-0.70096,-0.25492,0.6213,-1.76828571428571,1.91657142857143,-0.531571428571429,746.2364,1,1,1,1
24-May-2018 12:51:06,52,0.905755555555556,-0.167211111111111,0.301766666666667,0.337,-0.022,0.381375,5.256,-0.76064,-0.0879,-0.68328,19.5535,-10.48875,31.49,117.249,0.71865,0.4158,0.59735,-1.15,-2.01,-0.54,0.094,-0.70096,-0.25492,0.6213,-1.76828571428571,1.91657142857143,-0.531571428571429,746.2364,1,1,1,1
24-May-2018 12:51:06,52,0.905755555555556,-0.167211111111111,0.301766666666667,0.337,-0.022,0.381375,5.256,-0.76064,-0.0879,-0.68328,19.5535,-10.48875,31.49,117.249,0.71865,0.4158,0.59735,-1.15,-2.01,-0.54,0.094,-0.70096,-0.25492,0.6213,-1.76828571428571,1.91657142857143,-0.531571428571429,746.2364,1,1,1,1
24-May-2018 12:51:06,52,0.905755555555556,-0.167211111111111,0.301766666666667,0.337,-0.022,0.381375,5.256,-0.76064,-0.0879,-0.68328,19.5535,-10.48875,31.49,117.249,0.71865,0.4158,0.59735,-1.15,-2.01,-0.54,0.094,-0.70096,-0.25492,0.6213,-1.76828571428571,1.91657142857143,-0.531571428571429,746.2364,1,1,1,1
24-May-2018 12:51:07,52,0.908028571428572,-0.1676,0.295957142857143,0.820777777777778,0.455111111111111,0.355555555555556,5.226,-0.8449,-0.01188,-0.76902,-14.7044444444444,7.58088888888889,21.2822222222222,117.249,0.7209,0.407733333333333,0.600566666666667,-0.563333333333333,-2.19,-0.483333333333333,0.092,-0.7076,-0.2556,0.617666666666667,1.70733333333333,0.406333333333333,-0.416666666666667,740.383,1,1,1,1
24-May-2018 12:51:07,52,0.908028571428572,-0.1676,0.295957142857143,0.820777777777778,0.455111111111111,0.355555555555556,5.226,-0.8449,-0.01188,-0.76902,-14.7044444444444,7.58088888888889,21.2822222222222,117.249,0.7209,0.407733333333333,0.600566666666667,-0.563333333333333,-2.19,-0.483333333333333,0.092,-0.7076,-0.2556,0.617666666666667,1.70733333333333,0.406333333333333,-0.416666666666667,740.383,1,1,1,1
24-May-2018 12:51:07,52,0.908028571428572,-0.1676,0.295957142857143,0.820777777777778,0.455111111111111,0.355555555555556,5.226,-0.8449,-0.01188,-0.76902,-14.7044444444444,7.58088888888889,21.2822222222222,117.249,0.7209,0.407733333333333,0.600566666666667,-0.563333333333333,-2.19,-0.483333333333333,0.092,-0.7076,-0.2556,0.617666666666667,1.70733333333333,0.406333333333333,-0.416666666666667,740.383,1,1,1,1
24-May-2018 12:51:07,52,0.908028571428572,-0.1676,0.295957142857143,0.820777777777778,0.455111111111111,0.355555555555556,5.226,-0.8449,-0.01188,-0.76902,-14.7044444444444,7.58088888888889,21.2822222222222,117.249,0.7209,0.407733333333333,0.600566666666667,-0.563333333333333,-2.19,-0.483333333333333,0.092,-0.7076,-0.2556,0.617666666666667,1.70733333333333,0.406333333333333,-0.416666666666667,740.383,1,1,1,1
24-May-2018 12:51:08,51.8,0.9062,-0.16798,0.29862,0.97575,0.59725,0.36725,5.202,-0.7786,0.25994,-0.61606,-16.9188888888889,19.0944444444444,56.2011111111111,115.41725,0.7142,0.4155,0.5997,-0.5694,-2.154,-0.1332,0.088,-0.697585714285714,-0.2706,0.623042857142857,-2.085,-0.7682,-0.3658,742.28,1,1,1,1
24-May-2018 12:51:08,51.8,0.9062,-0.16798,0.29862,0.97575,0.59725,0.36725,5.202,-0.7786,0.25994,-0.61606,-16.9188888888889,19.0944444444444,56.2011111111111,115.41725,0.7142,0.4155,0.5997,-0.5694,-2.154,-0.1332,0.088,-0.697585714285714,-0.2706,0.623042857142857,-2.085,-0.7682,-0.3658,742.28,1,1,1,1
24-May-2018 12:51:08,51.8,0.9062,-0.16798,0.29862,0.97575,0.59725,0.36725,5.202,-0.7786,0.25994,-0.61606,-16.9188888888889,19.0944444444444,56.2011111111111,115.41725,0.7142,0.4155,0.5997,-0.5694,-2.154,-0.1332,0.088,-0.697585714285714,-0.2706,0.623042857142857,-2.085,-0.7682,-0.3658,742.28,1,1,1,1
24-May-2018 12:51:08,51.8,0.9062,-0.16798,0.29862,0.97575,0.59725,0.36725,5.202,-0.7786,0.25994,-0.61606,-16.9188888888889,19.0944444444444,56.2011111111111,115.41725,0.7142,0.4155,0.5997,-0.5694,-2.154,-0.1332,0.088,-0.697585714285714,-0.2706,0.623042857142857,-2.085,-0.7682,-0.3658,742.28,1,1,1,1
24-May-2018 12:51:09,52,0.90392,-0.1656,0.30832,0.344875,-0.00587499999999999,0.510875,5.196,-0.68885,0.298666666666667,-0.6541,38.67,-28.125,18.612125,109.922,0.7278,0.4085,0.58905,-0.95,-1.21333333333333,-0.523333333333333,0.0546666666666667,-0.699175,-0.27105,0.617775,1.40233333333333,1.67683333333333,0.488,747.199,1,1,1,1
24-May-2018 12:51:09,52,0.90392,-0.1656,0.30832,0.344875,-0.00587499999999999,0.510875,5.196,-0.68885,0.298666666666667,-0.6541,38.67,-28.125,18.612125,109.922,0.7278,0.4085,0.58905,-0.95,-1.21333333333333,-0.523333333333333,0.0546666666666667,-0.699175,-0.27105,0.617775,1.40233333333333,1.67683333333333,0.488,747.199,1,1,1,1
24-May-2018 12:51:09,52,0.90392,-0.1656,0.30832,0.344875,-0.00587499999999999,0.510875,5.196,-0.68885,0.298666666666667,-0.6541,38.67,-28.125,18.612125,109.922,0.7278,0.4085,0.58905,-0.95,-1.21333333333333,-0.523333333333333,0.0546666666666667,-0.699175,-0.27105,0.617775,1.40233333333333,1.67683333333333,0.488,747.199,1,1,1,1
24-May-2018 12:51:09,52,0.90392,-0.1656,0.30832,0.344875,-0.00587499999999999,0.510875,5.196,-0.68885,0.298666666666667,-0.6541,38.67,-28.125,18.612125,109.922,0.7278,0.4085,0.58905,-0.95,-1.21333333333333,-0.523333333333333,0.0546666666666667,-0.699175,-0.27105,0.617775,1.40233333333333,1.67683333333333,0.488,747.199,1,1,1,1
24-May-2018 12:51:10,52.1,0.904385714285714,-0.173,0.293071428571429,0.879571428571429,-0.371285714285714,0.296571428571429,5.23325,-0.82404,0.23992,-0.72906,7.791,0.7764,-27.29,108.987333333333,0.7247,0.3942,0.60385,-0.11675,-0.058,0.77825,0.0188,-0.70678,-0.27138,0.6015,0.8904,1,-0.4756,740.3835,1,1,1,1
24-May-2018 12:51:10,52.1,0.904385714285714,-0.173,0.293071428571429,0.879571428571429,-0.371285714285714,0.296571428571429,5.23325,-0.82404,0.23992,-0.72906,7.791,0.7764,-27.29,108.987333333333,0.7247,0.3942,0.60385,-0.11675,-0.058,0.77825,0.0188,-0.70678,-0.27138,0.6015,0.8904,1,-0.4756,740.3835,1,1,1,1
24-May-2018 12:51:10,52.1,0.904385714285714,-0.173,0.293071428571429,0.879571428571429,-0.371285714285714,0.296571428571429,5.23325,-0.82404,0.23992,-0.72906,7.791,0.7764,-27.29,108.987333333333,0.7247,0.3942,0.60385,-0.11675,-0.058,0.77825,0.0188,-0.70678,-0.27138,0.6015,0.8904,1,-0.4756,740.3835,1,1,1,1
24-May-2018 12:51:10,52.1,0.904385714285714,-0.173,0.293071428571429,0.879571428571429,-0.371285714285714,0.296571428571429,5.23325,-0.82404,0.23992,-0.72906,7.791,0.7764,-27.29,108.987333333333,0.7247,0.3942,0.60385,-0.11675,-0.058,0.77825,0.0188,-0.70678,-0.27138,0.6015,0.8904,1,-0.4756,740.3835,1,1,1,1
24-May-2018 12:51:11,12.9,0.91105,-0.1691,0.28735,0.976,0.427,-0.73,5.23325,-0.7906,0.0334,-0.5505,26.7,-2.25,-54.1,107.118,0.73,0.4067,0.588,-2.74,-2.25,-1.95,0.0188,-0.7265,-0.3381,0.5503,-0.244,1.159,-0.976,740.3835,1,1,1,1
24-May-2018 12:51:11,12.9,0.91105,-0.1691,0.28735,0.976,0.427,-0.73,5.23325,-0.7906,0.0334,-0.5505,26.7,-2.25,-54.1,107.118,0.73,0.4067,0.588,-2.74,-2.25,-1.95,0.0188,-0.7265,-0.3381,0.5503,-0.244,1.159,-0.976,740.3835,1,1,1,1
24-May-2018 12:51:11,12.9,0.91105,-0.1691,0.28735,0.976,0.427,-0.73,5.23325,-0.7906,0.0334,-0.5505,26.7,-2.25,-54.1,107.118,0.73,0.4067,0.588,-2.74,-2.25,-1.95,0.0188,-0.7265,-0.3381,0.5503,-0.244,1.159,-0.976,740.3835,1,1,1,1
24-May-2018 12:51:11,12.9,0.91105,-0.1691,0.28735,0.976,0.427,-0.73,0,-0.7906,0.0334,-0.5505,26.7,-2.25,-54.1,107.118,0.73,0.4067,0.588,-2.74,-2.25,-1.95,0.0188,-0.7265,-0.3381,0.5503,-0.244,1.159,-0.976,0,1,1,1,1
24-May-2018 12:51:12,299,0.90672,-0.16814,0.29322,0.6472,1.001,0.537,5.24766666666667,-0.781233333333333,-0.0810666666666667,-0.5448,3.99485714285714,10.2014285714286,-35.8142857142857,104.8415,0.729875,0.403725,0.591175,-2.23,-1.70333333333333,-1.09,0.0188,-0.7226,-0.3461,0.5474,0.435428571428571,0.435571428571428,-0.365857142857143,726.018666666667,1,1,1,1
24-May-2018 12:51:12,299,0.90672,-0.16814,0.29322,0.6472,1.001,0.537,5.24766666666667,-0.781233333333333,-0.0810666666666667,-0.5448,3.99485714285714,10.2014285714286,-35.8142857142857,104.8415,0.729875,0.403725,0.591175,-2.23,-1.70333333333333,-1.09,0.0188,-0.7226,-0.3461,0.5474,0.435428571428571,0.435571428571428,-0.365857142857143,726.018666666667,1,1,1,1
24-May-2018 12:51:12,299,0.90672,-0.16814,0.29322,0.6472,1.001,0.537,5.24766666666667,-0.781233333333333,-0.0810666666666667,-0.5448,3.99485714285714,10.2014285714286,-35.8142857142857,104.8415,0.729875,0.403725,0.591175,-2.23,-1.70333333333333,-1.09,0,-0.7226,-0.3461,0.5474,0.435428571428571,0.435571428571428,-0.365857142857143,726.018666666667,1,1,1,1
24-May-2018 12:51:12,299,0.90672,-0.16814,0.29322,0.6472,1.001,0.537,5.24766666666667,-0.781233333333333,-0.0810666666666667,-0.5448,3.99485714285714,10.2014285714286,-35.8142857142857,104.8415,0.729875,0.403725,0.591175,-2.23,-1.70333333333333,-1.09,0,-0.7226,-0.3461,0.5474,0.435428571428571,0.435571428571428,-0.365857142857143,726.018666666667,1,1,1,1
24-May-2018 12:51:13,-69,0.905733333333333,-0.16875,0.30275,0.558571428571429,0.410285714285714,0.566428571428571,5.19666666666667,-0.826514285714286,-0.0692571428571429,-0.6715,-21.1588888888889,-5.826,3.77444444444445,98.012,0.730425,0.4,0.5883,-1.27666666666667,-0.729666666666667,-0.523333333333333,0.088,-0.716383333333333,-0.349733333333333,0.5556,-0.871142857142857,-0.252714285714286,0.148142857142857,716.549,1,1,1,1
24-May-2018 12:51:13,-69,0.905733333333333,-0.16875,0.30275,0.558571428571429,0.410285714285714,0.566428571428571,5.19666666666667,-0.826514285714286,-0.0692571428571429,-0.6715,-21.1588888888889,-5.826,3.77444444444445,98.012,0.730425,0.4,0.5883,-1.27666666666667,-0.729666666666667,-0.523333333333333,0.088,-0.716383333333333,-0.349733333333333,0.5556,-0.871142857142857,-0.252714285714286,0.148142857142857,716.549,1,1,1,1
24-May-2018 12:51:13,-69,0.905733333333333,-0.16875,0.30275,0.558571428571429,0.410285714285714,0.566428571428571,5.19666666666667,-0.826514285714286,-0.0692571428571429,-0.6715,-21.1588888888889,-5.826,3.77444444444445,98.012,0.730425,0.4,0.5883,-1.27666666666667,-0.729666666666667,-0.523333333333333,0.088,-0.716383333333333,-0.349733333333333,0.5556,-0.871142857142857,-0.252714285714286,0.148142857142857,716.549,1,1,1,1
24-May-2018 12:51:13,-69,0.905733333333333,-0.16875,0.30275,0.558571428571429,0.410285714285714,0.566428571428571,5.19666666666667,-0.826514285714286,-0.0692571428571429,-0.6715,-21.1588888888889,-5.826,3.77444444444445,98.012,0.730425,0.4,0.5883,-1.27666666666667,-0.729666666666667,-0.523333333333333,0.088,-0.716383333333333,-0.349733333333333,0.5556,-0.871142857142857,-0.252714285714286,0.148142857142857,716.549,1,1,1,1
24-May-2018 12:51:14,-228.666666666667,0.903057142857143,-0.172957142857143,0.308914285714286,0.366333333333333,0.144166666666667,0.549,5.208,-0.89104,0.1512,-0.5969,-25.44,16.1308,14.5937,90.4653333333333,0.72955,0.3969,0.595725,-0.99,-0.709333333333333,-0.0796666666666667,0.094,-0.715142857142857,-0.352671428571429,0.553442857142857,1.79442857142857,0.426857142857143,-0.357285714285714,718.95675,1,1,1,1
24-May-2018 12:51:14,-228.666666666667,0.903057142857143,-0.172957142857143,0.308914285714286,0.366333333333333,0.144166666666667,0.549,5.208,-0.89104,0.1512,-0.5969,-25.44,16.1308,14.5937,90.4653333333333,0.72955,0.3969,0.595725,-0.99,-0.709333333333333,-0.0796666666666667,0.094,-0.715142857142857,-0.352671428571429,0.553442857142857,1.79442857142857,0.426857142857143,-0.357285714285714,718.95675,1,1,1,1
24-May-2018 12:51:14,-228.666666666667,0.903057142857143,-0.172957142857143,0.308914285714286,0.366333333333333,0.144166666666667,0.549,5.208,-0.89104,0.1512,-0.5969,-25.44,16.1308,14.5937,90.4653333333333,0.72955,0.3969,0.595725,-0.99,-0.709333333333333,-0.0796666666666667,0.094,-0.715142857142857,-0.352671428571429,0.553442857142857,1.79442857142857,0.426857142857143,-0.357285714285714,718.95675,1,1,1,1
24-May-2018 12:51:14,-228.666666666667,0.903057142857143,-0.172957142857143,0.308914285714286,0.366333333333333,0.144166666666667,0.549,5.208,-0.89104,0.1512,-0.5969,-25.44,16.1308,14.5937,90.4653333333333,0.72955,0.3969,0.595725,-0.99,-0.709333333333333,-0.0796666666666667,0.094,-0.715142857142857,-0.352671428571429,0.553442857142857,1.79442857142857,0.426857142857143,-0.357285714285714,718.95675,1,1,1,1
24-May-2018 12:51:15,-21.4,0.9050375,-0.1739875,0.300125,0.61,-0.552,0.3356,5.208,-0.82492,0.23366,-0.5612,35.9022222222222,-6.50122222222222,22.6366666666667,86.692,0.72955,0.3969,0.595725,-0.4008,-0.6796,-0.4008,0.088,-0.71068,-0.34106,0.56686,0.873833333333333,0.904333333333333,-0.101666666666667,722.752,1,1,1,1
24-May-2018 12:51:15,-21.4,0.9050375,-0.1739875,0.300125,0.61,-0.552,0.3356,5.208,-0.82492,0.23366,-0.5612,35.9022222222222,-6.50122222222222,22.6366666666667,86.692,0.72955,0.3969,0.595725,-0.4008,-0.6796,-0.4008,0.088,-0.71068,-0.34106,0.56686,0.873833333333333,0.904333333333333,-0.101666666666667,722.752,1,1,1,1
24-May-2018 12:51:15,-21.4,0.9050375,-0.1739875,0.300125,0.61,-0.552,0.3356,5.208,-0.82492,0.23366,-0.5612,35.9022222222222,-6.50122222222222,22.6366666666667,86.692,0.72955,0.3969,0.595725,-0.4008,-0.6796,-0.4008,0.088,-0.71068,-0.34106,0.56686,0.873833333333333,0.904333333333333,-0.101666666666667,722.752,1,1,1,1
24-May-2018 12:51:15,-21.4,0.9050375,-0.1739875,0.300125,0.61,-0.552,0.3356,5.208,-0.82492,0.23366,-0.5612,35.9022222222222,-6.50122222222222,22.6366666666667,86.692,0,0,0,-0.4008,-0.6796,-0.4008,0.088,-0.71068,-0.34106,0.56686,0.873833333333333,0.904333333333333,-0.101666666666667,722.752,1,1,1,1
24-May-2018 12:51:16,100.25,0.906655555555556,-0.172388888888889,0.2983,0.0625555555555555,0.131,0.117555555555556,5.208,-0.77938,0.12062,-0.61548,7.94822222222223,-14.0522222222222,-8.66422222222222,89.3273333333333,0.7239,0.3926,0.606,0.00233333333333337,-1.92333333333333,-0.503333333333333,0.088,-0.7175,-0.34702,0.55528,0.599666666666667,0.752333333333333,0.142333333333333,719.829333333333,1,1,1,1
24-May-2018 12:51:16,100.25,0.906655555555556,-0.172388888888889,0.2983,0.0625555555555555,0.131,0.117555555555556,5.208,-0.77938,0.12062,-0.61548,7.94822222222223,-14.0522222222222,-8.66422222222222,89.3273333333333,0.7239,0.3926,0.606,0.00233333333333337,-1.92333333333333,-0.503333333333333,0.088,-0.7175,-0.34702,0.55528,0.599666666666667,0.752333333333333,0.142333333333333,719.829333333333,1,1,1,1
24-May-2018 12:51:16,100.25,0.906655555555556,-0.172388888888889,0.2983,0.0625555555555555,0.131,0.117555555555556,5.208,-0.77938,0.12062,-0.61548,7.94822222222223,-14.0522222222222,-8.66422222222222,89.3273333333333,0.7239,0.3926,0.606,0.00233333333333337,-1.92333333333333,-0.503333333333333,0.088,-0.7175,-0.34702,0.55528,0.599666666666667,0.752333333333333,0.142333333333333,719.829333333333,1,1,1,1
24-May-2018 12:51:16,100.25,0.906655555555556,-0.172388888888889,0.2983,0.0625555555555555,0.131,0.117555555555556,5.208,-0.77938,0.12062,-0.61548,7.94822222222223,-14.0522222222222,-8.66422222222222,89.3273333333333,0.7239,0.3926,0.606,0.00233333333333337,-1.92333333333333,-0.503333333333333,0.088,-0.7175,-0.34702,0.55528,0.599666666666667,0.752333333333333,0.142333333333333,719.829333333333,1,1,1,1
24-May-2018 12:51:17,159.8,0.9075,-0.1735625,0.2854625,1.875375,-0.783,0.770875,5.208,-0.83855,0.1209,-0.6642,-80.7222222222222,-3.643,-63.5777777777778,94.598,0.727466666666667,0.391,0.6019,0.589666666666667,-2.13,-0.159333333333333,0.088,-0.72222,-0.34454,0.54998,0.627142857142857,0.984714285714286,-0.339857142857143,718.078,1,1,1,1
24-May-2018 12:51:17,159.8,0.9075,-0.1735625,0.2854625,1.875375,-0.783,0.770875,5.208,-0.83855,0.1209,-0.6642,-80.7222222222222,-3.643,-63.5777777777778,94.598,0.727466666666667,0.391,0.6019,0.589666666666667,-2.13,-0.159333333333333,0.088,-0.72222,-0.34454,0.54998,0.627142857142857,0.984714285714286,-0.339857142857143,718.078,1,1,1,1
24-May-2018 12:51:17,159.8,0.9075,-0.1735625,0.2854625,1.875375,-0.783,0.770875,5.208,-0.83855,0.1209,-0.6642,-80.7222222222222,-3.643,-63.5777777777778,94.598,0.727466666666667,0.391,0.6019,0.589666666666667,-2.13,-0.159333333333333,0.088,-0.72222,-0.34454,0.54998,0.627142857142857,0.984714285714286,-0.339857142857143,718.078,1,1,1,1
24-May-2018 12:51:17,159.8,0.9075,-0.1735625,0.2854625,1.875375,-0.783,0.770875,5.208,-0.83855,0.1209,-0.6642,-80.7222222222222,-3.643,-63.5777777777778,94.598,0.727466666666667,0.391,0.6019,0.589666666666667,-2.13,-0.159333333333333,0.088,-0.72222,-0.34454,0.54998,0.627142857142857,0.984714285714286,-0.339857142857143,718.078,1,1,1,1
24-May-2018 12:51:18,51.3,0.909714285714286,-0.171228571428571,0.290314285714286,0.262125,0.343375,0.123,5.163,-0.94295,-0.010125,-0.645025,-82.1333333333333,15.8936666666667,-72.05,94.598,0.7299,0.3973,0.5965,0.142666666666667,-0.826666666666667,0.306666666666667,0.059,-0.72706,-0.34644,0.54126,1.573,0.0122,-0.634,712.294,1,1,1,1
24-May-2018 12:51:18,51.3,0.909714285714286,-0.171228571428571,0.290314285714286,0.262125,0.343375,0.123,5.163,-0.94295,-0.010125,-0.645025,-82.1333333333333,15.8936666666667,-72.05,94.598,0.7299,0.3973,0.5965,0.142666666666667,-0.826666666666667,0.306666666666667,0.059,-0.72706,-0.34644,0.54126,1.573,0.0122,-0.634,712.294,1,1,1,1
24-May-2018 12:51:18,51.3,0.909714285714286,-0.171228571428571,0.290314285714286,0.262125,0.343375,0.123,5.163,-0.94295,-0.010125,-0.645025,-82.1333333333333,15.8936666666667,-72.05,94.598,0.7299,0.3973,0.5965,0.142666666666667,-0.826666666666667,0.306666666666667,0.059,-0.72706,-0.34644,0.54126,1.573,0.0122,-0.634,712.294,1,1,1,1
24-May-2018 12:51:18,51.3,0.909714285714286,-0.171228571428571,0.290314285714286,0.262125,0.343375,0.123,5.163,-0.94295,-0.010125,-0.645025,-82.1333333333333,15.8936666666667,-72.05,94.598,0.7299,0.3973,0.5965,0.142666666666667,-0.826666666666667,0.306666666666667,0.059,-0.72706,-0.34644,0.54126,1.573,0.0122,-0.634,712.294,1,1,1,1
24-May-2018 12:51:19,18,0.906933333333333,-0.170533333333333,0.294916666666667,0.35225,0.56425,0.25925,5.1432,-0.848675,-0.181525,-0.48055,-89.5,10.4293,-86.26,92.7576666666667,0.731725,0.399425,0.5895,-0.06,-0.79,-0.24,0.059,-0.71348,-0.34596,0.5591,1.05414285714286,-0.322142857142857,-1.35028571428571,717.02,1,1,1,1
24-May-2018 12:51:19,18,0.906933333333333,-0.170533333333333,0.294916666666667,0.35225,0.56425,0.25925,5.1432,-0.848675,-0.181525,-0.48055,-89.5,10.4293,-86.26,92.7576666666667,0.731725,0.399425,0.5895,-0.06,-0.79,-0.24,0.059,-0.71348,-0.34596,0.5591,1.05414285714286,-0.322142857142857,-1.35028571428571,717.02,1,1,1,1
24-May-2018 12:51:19,18,0.906933333333333,-0.170533333333333,0.294916666666667,0.35225,0.56425,0.25925,5.1432,-0.848675,-0.181525,-0.48055,-89.5,10.4293,-86.26,92.7576666666667,0.731725,0.399425,0.5895,-0.06,-0.79,-0.24,0.059,-0.71348,-0.34596,0.5591,1.05414285714286,-0.322142857142857,-1.35028571428571,717.02,1,1,1,1
24-May-2018 12:51:19,18,0.906933333333333,-0.170533333333333,0.294916666666667,0.35225,0.56425,0.25925,5.1432,-0.848675,-0.181525,-0.48055,-89.5,10.4293,-86.26,92.7576666666667,0.731725,0.399425,0.5895,-0.06,-0.79,-0.24,0.059,-0.71348,-0.34596,0.5591,1.05414285714286,-0.322142857142857,-1.35028571428571,717.02,1,1,1,1
24-May-2018 12:51:20,-0.714285714285714,0.9046,-0.169,0.2984,1.4325,0.305,0.5185,5.096,-0.8681,-0.2485,-0.4941,-130,1.4965,-100.85,89.077,0.7355,0.4067,0.57735,-0.06,-0.79,-0.24,0.059,-0.71348,-0.34596,0.5591,5.854,2.561,1.524,717.02,1,1,1,1
24-May-2018 12:51:20,-0.714285714285714,0.9046,-0.169,0.2984,1.4325,0.305,0.5185,5.096,-0.8681,-0.2485,-0.4941,-130,1.4965,-100.85,89.077,0.7355,0.4067,0.57735,-0.06,-0.79,-0.24,0.059,-0.71348,-0.34596,0.5591,5.854,2.561,1.524,717.02,1,1,1,1
24-May-2018 12:51:20,-0.714285714285714,0.9046,-0.169,0.2984,1.4325,0.305,0.5185,5.096,-0.8681,-0.2485,-0.4941,-130,1.4965,-100.85,89.077,0.7355,0.4067,0.57735,-0.06,-0.79,-0.24,0,-0.71348,-0.34596,0.5591,5.854,2.561,1.524,717.02,1,1,1,1
24-May-2018 12:51:20,-0.714285714285714,0.9046,-0.169,0.2984,1.4325,0.305,0.5185,5.096,-0.8681,-0.2485,-0.4941,-130,1.4965,-100.85,89.077,0.7355,0.4067,0.57735,0,0,0,0,0,0,0,5.854,2.561,1.524,717.02,1,1,1,1
24-May-2018 12:51:21,-76.1111111111111,0.90775,-0.17185,0.2986,0.8235,1.037,0.61,5.096,-0.8861,-0.2208,-0.5134,-130,1.4965,-100.85,89.077,0.7311,0.3946,0.594633333333333,0.00300000000000004,0.975666666666667,1.07866666666667,0.088,-0.7103,-0.3493,0.5672,0.976,0.061,1.159,717.02,1,1,1,1
24-May-2018 12:51:21,-76.1111111111111,0.90775,-0.17185,0.2986,0.8235,1.037,0.61,5.096,-0.8861,-0.2208,-0.5134,-130,1.4965,-100.85,89.077,0.7311,0.3946,0.594633333333333,0.00300000000000004,0.975666666666667,1.07866666666667,0.088,-0.7103,-0.3493,0.5672,0.976,0.061,1.159,717.02,1,1,1,1
24-May-2018 12:51:21,-76.1111111111111,0.90775,-0.17185,0.2986,0.8235,1.037,0.61,5.096,-0.8861,-0.2208,-0.5134,-130,1.4965,-100.85,89.077,0.7311,0.3946,0.594633333333333,0.00300000000000004,0.975666666666667,1.07866666666667,0.088,-0.7103,-0.3493,0.5672,0.976,0.061,1.159,0,1,1,1,1
24-May-2018 12:51:21,-76.1111111111111,0.90775,-0.17185,0.2986,0.8235,1.037,0.61,0,-0.8861,-0.2208,-0.5134,0,0,0,89.077,0.7311,0.3946,0.594633333333333,0.00300000000000004,0.975666666666667,1.07866666666667,0.088,-0.7103,-0.3493,0.5672,0.976,0.061,1.159,0,1,1,1,1
24-May-2018 12:51:22,158.444444444444,0.90598,-0.1697,0.30372,0.0946250000000001,-0.19625,0.2745,5.09275,-0.863866666666667,-0.120433333333333,-0.5747,-127,-12.0685714285714,-97.4142857142857,89.077,0.728185714285714,0.393128571428571,0.599314285714286,-0.712714285714286,-1.81685714285714,-0.476,0.088,-0.71645,-0.348983333333333,0.555383333333333,-1.04528571428571,0.836142857142857,0.165571428571429,721.658,1,1,1,1
24-May-2018 12:51:22,158.444444444444,0.90598,-0.1697,0.30372,0.0946250000000001,-0.19625,0.2745,5.09275,-0.863866666666667,-0.120433333333333,-0.5747,-127,-12.0685714285714,-97.4142857142857,89.077,0.728185714285714,0.393128571428571,0.599314285714286,-0.712714285714286,-1.81685714285714,-0.476,0.088,-0.71645,-0.348983333333333,0.555383333333333,-1.04528571428571,0.836142857142857,0.165571428571429,721.658,1,1,1,1
24-May-2018 12:51:22,158.444444444444,0.90598,-0.1697,0.30372,0.0946250000000001,-0.19625,0.2745,5.09275,-0.863866666666667,-0.120433333333333,-0.5747,-127,-12.0685714285714,-97.4142857142857,89.077,0.728185714285714,0.393128571428571,0.599314285714286,-0.712714285714286,-1.81685714285714,-0.476,0.088,-0.71645,-0.348983333333333,0.555383333333333,-1.04528571428571,0.836142857142857,0.165571428571429,721.658,1,1,1,1
24-May-2018 12:51:22,158.444444444444,0.90598,-0.1697,0.30372,0.0946250000000001,-0.19625,0.2745,5.09275,-0.863866666666667,-0.120433333333333,-0.5747,-127,-12.0685714285714,-97.4142857142857,89.077,0.728185714285714,0.393128571428571,0.599314285714286,-0.712714285714286,-1.81685714285714,-0.476,0,-0.71645,-0.348983333333333,0.555383333333333,-1.04528571428571,0.836142857142857,0.165571428571429,721.658,1,1,1,1
24-May-2018 12:51:23,170.8,0.90825,-0.171875,0.2889625,1.16785714285714,-0.285571428571429,0.671,5.13133333333333,-0.81106,-0.03272,-0.65,-105.211111111111,-15.0577777777778,-59.1555555555556,98.4596666666667,0.728185714285714,0.393128571428571,0.599314285714286,-0.4245,-0.34825,-0.423,0.0895,-0.714971428571429,-0.363742857142857,0.5512,0.922375,-0.205875,0.304875,715.274666666667,1,1,1,1
24-May-2018 12:51:23,170.8,0.90825,-0.171875,0.2889625,1.16785714285714,-0.285571428571429,0.671,5.13133333333333,-0.81106,-0.03272,-0.65,-105.211111111111,-15.0577777777778,-59.1555555555556,98.4596666666667,0.728185714285714,0.393128571428571,0.599314285714286,-0.4245,-0.34825,-0.423,0.0895,-0.714971428571429,-0.363742857142857,0.5512,0.922375,-0.205875,0.304875,715.274666666667,1,1,1,1
24-May-2018 12:51:23,170.8,0.90825,-0.171875,0.2889625,1.16785714285714,-0.285571428571429,0.671,5.13133333333333,-0.81106,-0.03272,-0.65,-105.211111111111,-15.0577777777778,-59.1555555555556,98.4596666666667,0.728185714285714,0.393128571428571,0.599314285714286,-0.4245,-0.34825,-0.423,0.0895,-0.714971428571429,-0.363742857142857,0.5512,0.922375,-0.205875,0.304875,715.274666666667,1,1,1,1
24-May-2018 12:51:23,170.8,0.90825,-0.171875,0.2889625,1.16785714285714,-0.285571428571429,0.671,5.13133333333333,-0.81106,-0.03272,-0.65,-105.211111111111,-15.0577777777778,-59.1555555555556,98.4596666666667,0,0,0,-0.4245,-0.34825,-0.423,0.0895,-0.714971428571429,-0.363742857142857,0.5512,0.922375,-0.205875,0.304875,715.274666666667,1,1,1,1
24-May-2018 12:51:24,135.1,0.908714285714286,-0.173914285714286,0.289571428571429,1.03666666666667,0.58,0.569333333333333,5.137,-0.8215,-0.009175,-0.6468,-73.2777777777778,-12.7666666666667,-49.1,117.225,0.7259,0.389233333333333,0.604433333333333,-0.33,-0.665,0.2145,0.094,-0.708025,-0.3582375,0.56435,0.487857142857143,0.00885714285714282,0.130714285714286,721.725,1,1,1,1
24-May-2018 12:51:24,135.1,0.908714285714286,-0.173914285714286,0.289571428571429,1.03666666666667,0.58,0.569333333333333,5.137,-0.8215,-0.009175,-0.6468,-73.2777777777778,-12.7666666666667,-49.1,117.225,0.7259,0.389233333333333,0.604433333333333,-0.33,-0.665,0.2145,0.094,-0.708025,-0.3582375,0.56435,0.487857142857143,0.00885714285714282,0.130714285714286,721.725,1,1,1,1
24-May-2018 12:51:24,135.1,0.908714285714286,-0.173914285714286,0.289571428571429,1.03666666666667,0.58,0.569333333333333,5.137,-0.8215,-0.009175,-0.6468,-73.2777777777778,-12.7666666666667,-49.1,117.225,0.7259,0.389233333333333,0.604433333333333,-0.33,-0.665,0.2145,0.094,-0.708025,-0.3582375,0.56435,0.487857142857143,0.00885714285714282,0.130714285714286,721.725,1,1,1,1
24-May-2018 12:51:24,135.1,0.908714285714286,-0.173914285714286,0.289571428571429,1.03666666666667,0.58,0.569333333333333,5.137,-0.8215,-0.009175,-0.6468,-73.2777777777778,-12.7666666666667,-49.1,117.225,0.7259,0.389233333333333,0.604433333333333,-0.33,-0.665,0.2145,0.094,-0.708025,-0.3582375,0.56435,0.487857142857143,0.00885714285714282,0.130714285714286,721.725,1,1,1,1
24-May-2018 12:51:25,195.6,0.906116666666667,-0.1758,0.285883333333333,-0.013875,-0.25575,0.25975,5.054,-0.835133333333333,-0.0412666666666667,-0.618066666666667,-44.5714285714286,-10.85,-48,117.225,0.7259,0.38825,0.6052,-0.604666666666667,-0.798333333333333,-0.351666666666667,0.094,-0.7047625,-0.3591375,0.563425,-0.148142857142857,0.505142857142857,-0.365857142857143,724.263,1,1,1,1
24-May-2018 12:51:25,195.6,0.906116666666667,-0.1758,0.285883333333333,-0.013875,-0.25575,0.25975,5.054,-0.835133333333333,-0.0412666666666667,-0.618066666666667,-44.5714285714286,-10.85,-48,117.225,0.7259,0.38825,0.6052,-0.604666666666667,-0.798333333333333,-0.351666666666667,0.094,-0.7047625,-0.3591375,0.563425,-0.148142857142857,0.505142857142857,-0.365857142857143,724.263,1,1,1,1
24-May-2018 12:51:25,195.6,0.906116666666667,-0.1758,0.285883333333333,-0.013875,-0.25575,0.25975,5.054,-0.835133333333333,-0.0412666666666667,-0.618066666666667,-44.5714285714286,-10.85,-48,117.225,0.7259,0.38825,0.6052,-0.604666666666667,-0.798333333333333,-0.351666666666667,0.094,-0.7047625,-0.3591375,0.563425,-0.148142857142857,0.505142857142857,-0.365857142857143,724.263,1,1,1,1
24-May-2018 12:51:25,195.6,0.906116666666667,-0.1758,0.285883333333333,-0.013875,-0.25575,0.25975,5.054,-0.835133333333333,-0.0412666666666667,-0.618066666666667,-44.5714285714286,-10.85,-48,117.225,0.7259,0.38825,0.6052,-0.604666666666667,-0.798333333333333,-0.351666666666667,0.094,-0.7047625,-0.3591375,0.563425,-0.148142857142857,0.505142857142857,-0.365857142857143,724.263,1,1,1,1
24-May-2018 12:51:26,319.7,0.90835,-0.1748125,0.2883125,1.075,-0.01225,0.4575,5.054,-0.82708,-0.0896,-0.6398,-27.1111111111111,-6.32777777777778,-23.2222222222222,117.447666666667,0.72392,0.389,0.60632,-0.54,-1.64,-0.36,0.094,-0.704885714285714,-0.365357142857143,0.561671428571429,0.195,0.366,-0.0852,722.35975,1,1,1,1
24-May-2018 12:51:26,319.7,0.90835,-0.1748125,0.2883125,1.075,-0.01225,0.4575,5.054,-0.82708,-0.0896,-0.6398,-27.1111111111111,-6.32777777777778,-23.2222222222222,117.447666666667,0.72392,0.389,0.60632,-0.54,-1.64,-0.36,0.094,-0.704885714285714,-0.365357142857143,0.561671428571429,0.195,0.366,-0.0852,722.35975,1,1,1,1
24-May-2018 12:51:26,319.7,0.90835,-0.1748125,0.2883125,1.075,-0.01225,0.4575,5.054,-0.82708,-0.0896,-0.6398,-27.1111111111111,-6.32777777777778,-23.2222222222222,117.447666666667,0.72392,0.389,0.60632,-0.54,-1.64,-0.36,0.094,-0.704885714285714,-0.365357142857143,0.561671428571429,0.195,0.366,-0.0852,722.35975,1,1,1,1
24-May-2018 12:51:26,319.7,0.90835,-0.1748125,0.2883125,1.075,-0.01225,0.4575,5.054,-0.82708,-0.0896,-0.6398,-27.1111111111111,-6.32777777777778,-23.2222222222222,117.447666666667,0.72392,0.389,0.60632,-0.54,-1.64,-0.36,0.094,-0.704885714285714,-0.365357142857143,0.561671428571429,0.195,0.366,-0.0852,722.35975,1,1,1,1
24-May-2018 12:51:27,222.3,0.9083375,-0.1750875,0.2859375,0.357285714285714,0.0882857142857143,0.348714285714286,5.054,-0.80836,-0.16672,-0.62308,-12.375,-1.468,-8.0175,117.893,0.72654,0.3934,0.5996,-0.789,0.2485,-0.21,0.1075,-0.7129,-0.36155,0.554983333333333,0.701,1.288125,-0.175375,718.711,1,1,1,1
24-May-2018 12:51:27,222.3,0.9083375,-0.1750875,0.2859375,0.357285714285714,0.0882857142857143,0.348714285714286,5.054,-0.80836,-0.16672,-0.62308,-12.375,-1.468,-8.0175,117.893,0.72654,0.3934,0.5996,-0.789,0.2485,-0.21,0.1075,-0.7129,-0.36155,0.554983333333333,0.701,1.288125,-0.175375,718.711,1,1,1,1
24-May-2018 12:51:27,222.3,0.9083375,-0.1750875,0.2859375,0.357285714285714,0.0882857142857143,0.348714285714286,5.054,-0.80836,-0.16672,-0.62308,-12.375,-1.468,-8.0175,117.893,0.72654,0.3934,0.5996,-0.789,0.2485,-0.21,0.1075,-0.7129,-0.36155,0.554983333333333,0.701,1.288125,-0.175375,718.711,1,1,1,1
24-May-2018 12:51:27,222.3,0.9083375,-0.1750875,0.2859375,0.357285714285714,0.0882857142857143,0.348714285714286,5.054,-0.80836,-0.16672,-0.62308,-12.375,-1.468,-8.0175,117.893,0.72654,0.3934,0.5996,-0.789,0.2485,-0.21,0.1075,-0.7129,-0.36155,0.554983333333333,0.701,1.288125,-0.175375,718.711,1,1,1,1
24-May-2018 12:51:28,155.8,0.907625,-0.1788625,0.2866375,0.603111111111111,-0.221666666666667,0.535444444444444,5.054,-0.83008,-0.09864,-0.66334,-44.8555555555556,9.70022222222222,1.64788888888889,118.192666666667,0.7253,0.3949,0.6046,0.3686,-0.4118,-0.107,0.092,-0.7066,-0.3673,0.554775,0.0914999999999999,-0.061125,0.007625,717.951,1,1,1,1
24-May-2018 12:51:28,155.8,0.907625,-0.1788625,0.2866375,0.603111111111111,-0.221666666666667,0.535444444444444,5.054,-0.83008,-0.09864,-0.66334,-44.8555555555556,9.70022222222222,1.64788888888889,118.192666666667,0.7253,0.3949,0.6046,0.3686,-0.4118,-0.107,0.092,-0.7066,-0.3673,0.554775,0.0914999999999999,-0.061125,0.007625,717.951,1,1,1,1
24-May-2018 12:51:28,155.8,0.907625,-0.1788625,0.2866375,0.603111111111111,-0.221666666666667,0.535444444444444,5.054,-0.83008,-0.09864,-0.66334,-44.8555555555556,9.70022222222222,1.64788888888889,118.192666666667,0.7253,0.3949,0.6046,0.3686,-0.4118,-0.107,0.092,-0.7066,-0.3673,0.554775,0.0914999999999999,-0.061125,0.007625,717.951,1,1,1,1
24-May-2018 12:51:28,155.8,0.907625,-0.1788625,0.2866375,0.603111111111111,-0.221666666666667,0.535444444444444,5.054,-0.83008,-0.09864,-0.66334,-44.8555555555556,9.70022222222222,1.64788888888889,118.192666666667,0.7253,0.3949,0.6046,0.3686,-0.4118,-0.107,0.092,-0.7066,-0.3673,0.554775,0.0914999999999999,-0.061125,0.007625,717.951,1,1,1,1
24-May-2018 12:51:29,14.4,0.908488888888889,-0.179122222222222,0.282677777777778,0.63375,0.647875,0.24425,5.054,-0.824383333333333,0.133583333333333,-0.6262,-23.84625,5.225125,-0.180125,118.792,0.7266,0.396,0.597766666666667,-0.423333333333333,-1.96666666666667,-0.67,0.091,-0.7149,-0.361283333333333,0.549216666666667,0.922375,0.785,0.144875,714.559,1,1,1,1
24-May-2018 12:51:29,14.4,0.908488888888889,-0.179122222222222,0.282677777777778,0.63375,0.647875,0.24425,5.054,-0.824383333333333,0.133583333333333,-0.6262,-23.84625,5.225125,-0.180125,118.792,0.7266,0.396,0.597766666666667,-0.423333333333333,-1.96666666666667,-0.67,0.091,-0.7149,-0.361283333333333,0.549216666666667,0.922375,0.785,0.144875,714.559,1,1,1,1
24-May-2018 12:51:29,14.4,0.908488888888889,-0.179122222222222,0.282677777777778,0.63375,0.647875,0.24425,5.054,-0.824383333333333,0.133583333333333,-0.6262,-23.84625,5.225125,-0.180125,118.792,0.7266,0.396,0.597766666666667,-0.423333333333333,-1.96666666666667,-0.67,0.091,-0.7149,-0.361283333333333,0.549216666666667,0.922375,0.785,0.144875,714.559,1,1,1,1
24-May-2018 12:51:29,14.4,0.908488888888889,-0.179122222222222,0.282677777777778,0.63375,0.647875,0.24425,0,-0.824383333333333,0.133583333333333,-0.6262,-23.84625,5.225125,-0.180125,118.792,0.7266,0.396,0.597766666666667,-0.423333333333333,-1.96666666666667,-0.67,0.091,-0.7149,-0.361283333333333,0.549216666666667,0.922375,0.785,0.144875,714.559,1,1,1,1
24-May-2018 12:51:30,169.555555555556,0.90815,-0.17615,0.2937,0.445285714285714,0.357428571428571,0.166,5.1045,-0.76578,0.13566,-0.64496,4.51875,-12.49725,-5.83925,120.676,0.72905,0.40075,0.5931,-0.5,-0.08975,-0.15225,0.091,-0.708542857142857,-0.360714285714286,0.555828571428571,-0.2135,-0.373625,6.93889390390723e-18,716.824,1,1,1,1
24-May-2018 12:51:30,169.555555555556,0.90815,-0.17615,0.2937,0.445285714285714,0.357428571428571,0.166,5.1045,-0.76578,0.13566,-0.64496,4.51875,-12.49725,-5.83925,120.676,0.72905,0.40075,0.5931,-0.5,-0.08975,-0.15225,0.091,-0.708542857142857,-0.360714285714286,0.555828571428571,-0.2135,-0.373625,6.93889390390723e-18,716.824,1,1,1,1
24-May-2018 12:51:30,169.555555555556,0.90815,-0.17615,0.2937,0.445285714285714,0.357428571428571,0.166,5.1045,-0.76578,0.13566,-0.64496,4.51875,-12.49725,-5.83925,120.676,0.72905,0.40075,0.5931,-0.5,-0.08975,-0.15225,0.091,-0.708542857142857,-0.360714285714286,0.555828571428571,-0.2135,-0.373625,6.93889390390723e-18,716.824,1,1,1,1
24-May-2018 12:51:30,169.555555555556,0.90815,-0.17615,0.2937,0.445285714285714,0.357428571428571,0.166,5.1045,-0.76578,0.13566,-0.64496,4.51875,-12.49725,-5.83925,120.676,0.72905,0.40075,0.5931,-0.5,-0.08975,-0.15225,0.091,-0.708542857142857,-0.360714285714286,0.555828571428571,-0.2135,-0.373625,6.93889390390723e-18,716.824,1,1,1,1
24-May-2018 12:51:31,164.9,0.908866666666667,-0.174983333333333,0.290116666666667,0.7442,-0.0454,0.3294,5.09066666666667,-0.88544,0.10818,-0.72852,13.9311111111111,22.7806666666667,-16.7634444444444,126.328,0.728,0.394,0.6002,-0.09,-0.210833333333333,-0.00800000000000001,0.088,-0.710725,-0.359575,0.55805,0.488,1.25,0.01525,721.3295,1,1,1,1
24-May-2018 12:51:31,164.9,0.908866666666667,-0.174983333333333,0.290116666666667,0.7442,-0.0454,0.3294,5.09066666666667,-0.88544,0.10818,-0.72852,13.9311111111111,22.7806666666667,-16.7634444444444,126.328,0.728,0.394,0.6002,-0.09,-0.210833333333333,-0.00800000000000001,0.088,-0.710725,-0.359575,0.55805,0.488,1.25,0.01525,721.3295,1,1,1,1
24-May-2018 12:51:31,164.9,0.908866666666667,-0.174983333333333,0.290116666666667,0.7442,-0.0454,0.3294,5.09066666666667,-0.88544,0.10818,-0.72852,13.9311111111111,22.7806666666667,-16.7634444444444,126.328,0.728,0.394,0.6002,-0.09,-0.210833333333333,-0.00800000000000001,0.088,-0.710725,-0.359575,0.55805,0.488,1.25,0.01525,721.3295,1,1,1,1
24-May-2018 12:51:31,164.9,0.908866666666667,-0.174983333333333,0.290116666666667,0.7442,-0.0454,0.3294,5.09066666666667,-0.88544,0.10818,-0.72852,13.9311111111111,22.7806666666667,-16.7634444444444,126.328,0.728,0.394,0.6002,-0.09,-0.210833333333333,-0.00800000000000001,0.088,-0.710725,-0.359575,0.55805,0.488,1.25,0.01525,721.3295,1,1,1,1
24-May-2018 12:51:32,104.7,0.9069,-0.172466666666667,0.296183333333333,0.953,0.260125,0.198875,5.131,-0.764575,-0.109575,-0.533,20.7587777777778,0.377222222222223,-10.3971111111111,126.328,0.7289,0.399566666666667,0.5942,-0.12,-1.95,-0.61,0.092,-0.714733333333333,-0.35955,0.547866666666667,0.7684,0.3416,-0.5854,718.46425,1,1,1,1
24-May-2018 12:51:32,104.7,0.9069,-0.172466666666667,0.296183333333333,0.953,0.260125,0.198875,5.131,-0.764575,-0.109575,-0.533,20.7587777777778,0.377222222222223,-10.3971111111111,126.328,0.7289,0.399566666666667,0.5942,-0.12,-1.95,-0.61,0.092,-0.714733333333333,-0.35955,0.547866666666667,0.7684,0.3416,-0.5854,718.46425,1,1,1,1
24-May-2018 12:51:32,104.7,0.9069,-0.172466666666667,0.296183333333333,0.953,0.260125,0.198875,5.131,-0.764575,-0.109575,-0.533,20.7587777777778,0.377222222222223,-10.3971111111111,126.328,0.7289,0.399566666666667,0.5942,-0.12,-1.95,-0.61,0.092,-0.714733333333333,-0.35955,0.547866666666667,0.7684,0.3416,-0.5854,718.46425,1,1,1,1
24-May-2018 12:51:32,104.7,0.9069,-0.172466666666667,0.296183333333333,0.953,0.260125,0.198875,5.131,-0.764575,-0.109575,-0.533,20.7587777777778,0.377222222222223,-10.3971111111111,126.328,0.7289,0.399566666666667,0.5942,-0.12,-1.95,-0.61,0.092,-0.714733333333333,-0.35955,0.547866666666667,0.7684,0.3416,-0.5854,718.46425,1,1,1,1
24-May-2018 12:51:33,74.4,0.907225,-0.16945,0.295625,0.61,-0.300166666666667,0.366,5.139,-0.79182,-0.10494,-0.61976,-9.93375,-12.899875,0.615,130.055,0.7277,0.4,0.5936,-0.785,-0.2725,-0.605,0.088,-0.704066666666667,-0.36175,0.561983333333333,-0.655625,-1.113,0.14475,718.32,1,1,1,1
24-May-2018 12:51:33,74.4,0.907225,-0.16945,0.295625,0.61,-0.300166666666667,0.366,5.139,-0.79182,-0.10494,-0.61976,-9.93375,-12.899875,0.615,130.055,0.7277,0.4,0.5936,-0.785,-0.2725,-0.605,0.088,-0.704066666666667,-0.36175,0.561983333333333,-0.655625,-1.113,0.14475,718.32,1,1,1,1
24-May-2018 12:51:33,74.4,0.907225,-0.16945,0.295625,0.61,-0.300166666666667,0.366,5.139,-0.79182,-0.10494,-0.61976,-9.93375,-12.899875,0.615,130.055,0.7277,0.4,0.5936,-0.785,-0.2725,-0.605,0.088,-0.704066666666667,-0.36175,0.561983333333333,-0.655625,-1.113,0.14475,718.32,1,1,1,1
24-May-2018 12:51:33,74.4,0.907225,-0.16945,0.295625,0.61,-0.300166666666667,0.366,5.139,-0.79182,-0.10494,-0.61976,-9.93375,-12.899875,0.615,130.055,0.7277,0.4,0.5936,-0.785,-0.2725,-0.605,0.088,-0.704066666666667,-0.36175,0.561983333333333,-0.655625,-1.113,0.14475,718.32,1,1,1,1
24-May-2018 12:51:34,-37.5,0.90955,-0.17045,0.28735,1.07766666666667,-0.0386666666666667,0.589666666666667,5.131,-0.8156,-0.1141,-0.62415,-4.284,-11.6734,5.9392,130.055,0.724333333333333,0.4015,0.599733333333333,-1.89,-0.85,-1.46,0.088,-0.712275,-0.340925,0.568225,9.329,4.39,0.945,729.5235,1,1,1,1
24-May-2018 12:51:34,-37.5,0.90955,-0.17045,0.28735,1.07766666666667,-0.0386666666666667,0.589666666666667,5.131,-0.8156,-0.1141,-0.62415,-4.284,-11.6734,5.9392,130.055,0.724333333333333,0.4015,0.599733333333333,-1.89,-0.85,-1.46,0.088,-0.712275,-0.340925,0.568225,9.329,4.39,0.945,729.5235,1,1,1,1
24-May-2018 12:51:34,-37.5,0.90955,-0.17045,0.28735,1.07766666666667,-0.0386666666666667,0.589666666666667,5.131,-0.8156,-0.1141,-0.62415,-4.284,-11.6734,5.9392,130.055,0.724333333333333,0.4015,0.599733333333333,-1.89,-0.85,-1.46,0.088,-0.712275,-0.340925,0.568225,9.329,4.39,0.945,729.5235,1,1,1,1
24-May-2018 12:51:34,-37.5,0.90955,-0.17045,0.28735,1.07766666666667,-0.0386666666666667,0.589666666666667,5.131,-0.8156,-0.1141,-0.62415,-4.284,-11.6734,5.9392,130.055,0.724333333333333,0.4015,0.599733333333333,-1.89,-0.85,-1.46,0,-0.712275,-0.340925,0.568225,9.329,4.39,0.945,729.5235,1,1,1,1
24-May-2018 12:51:35,32.875,0.90745,-0.1708,0.29185,0.53375,0.549,0.122,5.09166666666667,-0.80275,-0.1075,-0.6254,-3.616,-8.244,25.934,130.055,0.7283,0.3969,0.5994,-0.546333333333333,-0.444666666666667,0.447333333333333,0.094,-0.73138,-0.29706,0.55932,5.0915,2.2255,-1.128,729.5235,1,1,1,1
24-May-2018 12:51:35,32.875,0.90745,-0.1708,0.29185,0.53375,0.549,0.122,5.09166666666667,-0.80275,-0.1075,-0.6254,-3.616,-8.244,25.934,130.055,0.7283,0.3969,0.5994,-0.546333333333333,-0.444666666666667,0.447333333333333,0.094,-0.73138,-0.29706,0.55932,5.0915,2.2255,-1.128,729.5235,1,1,1,1
24-May-2018 12:51:35,32.875,0.90745,-0.1708,0.29185,0.53375,0.549,0.122,5.09166666666667,-0.80275,-0.1075,-0.6254,-3.616,-8.244,25.934,130.055,0.7283,0.3969,0.5994,-0.546333333333333,-0.444666666666667,0.447333333333333,0.094,-0.73138,-0.29706,0.55932,5.0915,2.2255,-1.128,729.5235,1,1,1,1
24-May-2018 12:51:35,32.875,0.90745,-0.1708,0.29185,0.53375,0.549,0.122,5.09166666666667,-0.80275,-0.1075,-0.6254,-3.616,-8.244,25.934,130.055,0.7283,0.3969,0.5994,-0.546333333333333,-0.444666666666667,0.447333333333333,0.094,-0.73138,-0.29706,0.55932,5.0915,2.2255,-1.128,0,1,1,1,1
24-May-2018 12:51:36,-11.3333333333333,0.906142857142857,-0.170742857142857,0.298228571428571,0.400857142857143,0.244428571428571,0.557714285714286,5.14666666666667,-0.8214,-0.05338,-0.68848,-23.7333333333333,7.45866666666667,20.1855555555556,130.055,0.71975,0.389,0.60825,-1.95,-0.88,-0.91,0.094,-0.72702,-0.30934,0.5593,2.72657142857143,0.453,-3.12714285714286,725.897,1,1,1,1
24-May-2018 12:51:36,-11.3333333333333,0.906142857142857,-0.170742857142857,0.298228571428571,0.400857142857143,0.244428571428571,0.557714285714286,5.14666666666667,-0.8214,-0.05338,-0.68848,-23.7333333333333,7.45866666666667,20.1855555555556,130.055,0.71975,0.389,0.60825,-1.95,-0.88,-0.91,0.094,-0.72702,-0.30934,0.5593,2.72657142857143,0.453,-3.12714285714286,725.897,1,1,1,1
24-May-2018 12:51:36,-11.3333333333333,0.906142857142857,-0.170742857142857,0.298228571428571,0.400857142857143,0.244428571428571,0.557714285714286,5.14666666666667,-0.8214,-0.05338,-0.68848,-23.7333333333333,7.45866666666667,20.1855555555556,130.055,0.71975,0.389,0.60825,-1.95,-0.88,-0.91,0.094,-0.72702,-0.30934,0.5593,2.72657142857143,0.453,-3.12714285714286,725.897,1,1,1,1
24-May-2018 12:51:36,-11.3333333333333,0.906142857142857,-0.170742857142857,0.298228571428571,0.400857142857143,0.244428571428571,0.557714285714286,5.14666666666667,-0.8214,-0.05338,-0.68848,-23.7333333333333,7.45866666666667,20.1855555555556,130.055,0.71975,0.389,0.60825,-1.95,-0.88,-0.91,0,-0.72702,-0.30934,0.5593,2.72657142857143,0.453,-3.12714285714286,725.897,1,1,1,1
24-May-2018 12:51:37,30,0.9091,-0.174611111111111,0.285155555555556,1.06522222222222,-0.877777777777778,0.372777777777778,5.14666666666667,-0.862775,0.131625,-0.761075,-33.4777777777778,40.5444444444444,19.1162222222222,116.456,0.74474,0.37962,0.58396,-4.26666666666667,-4.71,-2.06666666666667,0.097,-0.7104,-0.340725,0.569325,-1.22966666666667,-1.5855,-0.111666666666667,728.062,1,1,1,1
24-May-2018 12:51:37,30,0.9091,-0.174611111111111,0.285155555555556,1.06522222222222,-0.877777777777778,0.372777777777778,5.14666666666667,-0.862775,0.131625,-0.761075,-33.4777777777778,40.5444444444444,19.1162222222222,116.456,0.74474,0.37962,0.58396,-4.26666666666667,-4.71,-2.06666666666667,0.097,-0.7104,-0.340725,0.569325,-1.22966666666667,-1.5855,-0.111666666666667,728.062,1,1,1,1
24-May-2018 12:51:37,30,0.9091,-0.174611111111111,0.285155555555556,1.06522222222222,-0.877777777777778,0.372777777777778,5.14666666666667,-0.862775,0.131625,-0.761075,-33.4777777777778,40.5444444444444,19.1162222222222,116.456,0.74474,0.37962,0.58396,-4.26666666666667,-4.71,-2.06666666666667,0.097,-0.7104,-0.340725,0.569325,-1.22966666666667,-1.5855,-0.111666666666667,728.062,1,1,1,1
24-May-2018 12:51:37,30,0.9091,-0.174611111111111,0.285155555555556,1.06522222222222,-0.877777777777778,0.372777777777778,5.14666666666667,-0.862775,0.131625,-0.761075,-33.4777777777778,40.5444444444444,19.1162222222222,116.456,0.74474,0.37962,0.58396,-4.26666666666667,-4.71,-2.06666666666667,0.097,-0.7104,-0.340725,0.569325,-1.22966666666667,-1.5855,-0.111666666666667,728.062,1,1,1,1
24-May-2018 12:51:38,-162.1,0.909842857142857,-0.150985714285714,0.302985714285714,-1.345,2.96575,-3.137,5.14666666666667,-0.721966666666667,0.250233333333333,-0.603233333333333,-16.9178333333333,17.6306666666667,10.0486666666667,116.456,0.7415,0.372,0.5954,0.0765,0.53325,-0.37925,0.097,-0.71688,-0.33602,0.56304,4.13757142857143,2.805,-1.72457142857143,729.256,1,1,1,1
24-May-2018 12:51:38,-162.1,0.909842857142857,-0.150985714285714,0.302985714285714,-1.345,2.96575,-3.137,5.14666666666667,-0.721966666666667,0.250233333333333,-0.603233333333333,-16.9178333333333,17.6306666666667,10.0486666666667,116.456,0.7415,0.372,0.5954,0.0765,0.53325,-0.37925,0.097,-0.71688,-0.33602,0.56304,4.13757142857143,2.805,-1.72457142857143,729.256,1,1,1,1
24-May-2018 12:51:38,-162.1,0.909842857142857,-0.150985714285714,0.302985714285714,-1.345,2.96575,-3.137,5.14666666666667,-0.721966666666667,0.250233333333333,-0.603233333333333,-16.9178333333333,17.6306666666667,10.0486666666667,116.456,0.7415,0.372,0.5954,0.0765,0.53325,-0.37925,0.097,-0.71688,-0.33602,0.56304,4.13757142857143,2.805,-1.72457142857143,729.256,1,1,1,1
24-May-2018 12:51:38,-162.1,0.909842857142857,-0.150985714285714,0.302985714285714,-1.345,2.96575,-3.137,5.14666666666667,-0.721966666666667,0.250233333333333,-0.603233333333333,-16.9178333333333,17.6306666666667,10.0486666666667,116.456,0.7415,0.372,0.5954,0.0765,0.53325,-0.37925,0,-0.71688,-0.33602,0.56304,4.13757142857143,2.805,-1.72457142857143,729.256,1,1,1,1
24-May-2018 12:51:39,-103.142857142857,0.910211111111111,-0.128511111111111,0.312511111111111,-3.19333333333333,-0.445,-0.127333333333333,5.14666666666667,-0.74934,0.27086,-0.66374,36.3088888888889,-18.9088888888889,17.3815555555556,116.456,0.72415,0.3766,0.6097,-1.4496,-1.3382,-1.4116,0.088,-0.725214285714286,-0.331257142857143,0.554557142857143,0.20575,0.533625,-0.297375,725.323,1,1,1,1
24-May-2018 12:51:39,-103.142857142857,0.910211111111111,-0.128511111111111,0.312511111111111,-3.19333333333333,-0.445,-0.127333333333333,5.14666666666667,-0.74934,0.27086,-0.66374,36.3088888888889,-18.9088888888889,17.3815555555556,116.456,0.72415,0.3766,0.6097,-1.4496,-1.3382,-1.4116,0.088,-0.725214285714286,-0.331257142857143,0.554557142857143,0.20575,0.533625,-0.297375,725.323,1,1,1,1
24-May-2018 12:51:39,-103.142857142857,0.910211111111111,-0.128511111111111,0.312511111111111,-3.19333333333333,-0.445,-0.127333333333333,5.14666666666667,-0.74934,0.27086,-0.66374,36.3088888888889,-18.9088888888889,17.3815555555556,116.456,0.72415,0.3766,0.6097,-1.4496,-1.3382,-1.4116,0.088,-0.725214285714286,-0.331257142857143,0.554557142857143,0.20575,0.533625,-0.297375,725.323,1,1,1,1
24-May-2018 12:51:39,-103.142857142857,0.910211111111111,-0.128511111111111,0.312511111111111,-3.19333333333333,-0.445,-0.127333333333333,5.14666666666667,-0.74934,0.27086,-0.66374,36.3088888888889,-18.9088888888889,17.3815555555556,116.456,0.72415,0.3766,0.6097,-1.4496,-1.3382,-1.4116,0.088,-0.725214285714286,-0.331257142857143,0.554557142857143,0.20575,0.533625,-0.297375,725.323,1,1,1,1
24-May-2018 12:51:40,172.875,0.911975,-0.1453125,0.2945125,1.01155555555556,-0.492,1.39555555555556,5.14666666666667,-0.704025,0.17715,-0.689775,3.86914285714286,-10.3675714285714,-3.127,148.94,0.731933333333333,0.383766666666667,0.604866666666667,-0.301,-1.095,-0.213,0.088,-0.716016666666667,-0.341416666666667,0.560133333333333,-0.549,0.0978,1.0364,722.73675,1,1,1,1
24-May-2018 12:51:40,172.875,0.911975,-0.1453125,0.2945125,1.01155555555556,-0.492,1.39555555555556,5.14666666666667,-0.704025,0.17715,-0.689775,3.86914285714286,-10.3675714285714,-3.127,148.94,0.731933333333333,0.383766666666667,0.604866666666667,-0.301,-1.095,-0.213,0.088,-0.716016666666667,-0.341416666666667,0.560133333333333,-0.549,0.0978,1.0364,722.73675,1,1,1,1
24-May-2018 12:51:40,172.875,0.911975,-0.1453125,0.2945125,1.01155555555556,-0.492,1.39555555555556,5.14666666666667,-0.704025,0.17715,-0.689775,3.86914285714286,-10.3675714285714,-3.127,148.94,0.731933333333333,0.383766666666667,0.604866666666667,-0.301,-1.095,-0.213,0.088,-0.716016666666667,-0.341416666666667,0.560133333333333,-0.549,0.0978,1.0364,722.73675,1,1,1,1
24-May-2018 12:51:40,172.875,0.911975,-0.1453125,0.2945125,1.01155555555556,-0.492,1.39555555555556,0,-0.704025,0.17715,-0.689775,3.86914285714286,-10.3675714285714,-3.127,148.94,0.731933333333333,0.383766666666667,0.604866666666667,-0.301,-1.095,-0.213,0,-0.716016666666667,-0.341416666666667,0.560133333333333,-0.549,0.0978,1.0364,722.73675,1,1,1,1
24-May-2018 12:51:41,173.777777777778,0.913757142857143,-0.160314285714286,0.283628571428571,-1.4114,-0.046,0.3078,5.2734,-0.699733333333333,0.2062,-0.715933333333333,-20.7285714285714,3.16328571428571,-23.8142857142857,148.94,0.733933333333333,0.375033333333333,0.602966666666667,-0.159666666666667,-1.78733333333333,0.630333333333333,0.0293333333333333,-0.72672,-0.31194,0.5637,3.42342857142857,0.871,0.113285714285714,722.73675,1,1,1,1
24-May-2018 12:51:41,173.777777777778,0.913757142857143,-0.160314285714286,0.283628571428571,-1.4114,-0.046,0.3078,5.2734,-0.699733333333333,0.2062,-0.715933333333333,-20.7285714285714,3.16328571428571,-23.8142857142857,148.94,0.733933333333333,0.375033333333333,0.602966666666667,-0.159666666666667,-1.78733333333333,0.630333333333333,0.0293333333333333,-0.72672,-0.31194,0.5637,3.42342857142857,0.871,0.113285714285714,722.73675,1,1,1,1
24-May-2018 12:51:41,173.777777777778,0.913757142857143,-0.160314285714286,0.283628571428571,-1.4114,-0.046,0.3078,5.2734,-0.699733333333333,0.2062,-0.715933333333333,-20.7285714285714,3.16328571428571,-23.8142857142857,148.94,0.733933333333333,0.375033333333333,0.602966666666667,-0.159666666666667,-1.78733333333333,0.630333333333333,0.0293333333333333,-0.72672,-0.31194,0.5637,3.42342857142857,0.871,0.113285714285714,722.73675,1,1,1,1
24-May-2018 12:51:41,173.777777777778,0.913757142857143,-0.160314285714286,0.283628571428571,-1.4114,-0.046,0.3078,5.2734,-0.699733333333333,0.2062,-0.715933333333333,-20.7285714285714,3.16328571428571,-23.8142857142857,148.94,0.733933333333333,0.375033333333333,0.602966666666667,-0.159666666666667,-1.78733333333333,0.630333333333333,0.0293333333333333,-0.72672,-0.31194,0.5637,3.42342857142857,0.871,0.113285714285714,0,1,1,1,1
24-May-2018 12:51:42,70.4,0.91174,-0.1524,0.29206,0.0961428571428572,0.854714285714286,0.236,5.297,-0.80766,0.1974,-0.85096,-5.53755555555555,11.6116666666667,-29.7044444444444,148.94,0.732666666666667,0.382033333333333,0.603733333333333,-0.36,-1.89,-1.15,0.088,-0.725471428571429,-0.3105,0.566857142857143,-1.44316666666667,-0.711333333333333,0.579166666666667,728.065,1,1,1,1
24-May-2018 12:51:42,70.4,0.91174,-0.1524,0.29206,0.0961428571428572,0.854714285714286,0.236,5.297,-0.80766,0.1974,-0.85096,-5.53755555555555,11.6116666666667,-29.7044444444444,148.94,0.732666666666667,0.382033333333333,0.603733333333333,-0.36,-1.89,-1.15,0.088,-0.725471428571429,-0.3105,0.566857142857143,-1.44316666666667,-0.711333333333333,0.579166666666667,728.065,1,1,1,1
24-May-2018 12:51:42,70.4,0.91174,-0.1524,0.29206,0.0961428571428572,0.854714285714286,0.236,5.297,-0.80766,0.1974,-0.85096,-5.53755555555555,11.6116666666667,-29.7044444444444,148.94,0.732666666666667,0.382033333333333,0.603733333333333,-0.36,-1.89,-1.15,0.088,-0.725471428571429,-0.3105,0.566857142857143,-1.44316666666667,-0.711333333333333,0.579166666666667,728.065,1,1,1,1
24-May-2018 12:51:42,70.4,0.91174,-0.1524,0.29206,0.0961428571428572,0.854714285714286,0.236,5.297,-0.80766,0.1974,-0.85096,-5.53755555555555,11.6116666666667,-29.7044444444444,148.94,0.732666666666667,0.382033333333333,0.603733333333333,-0.36,-1.89,-1.15,0.088,-0.725471428571429,-0.3105,0.566857142857143,-1.44316666666667,-0.711333333333333,0.579166666666667,728.065,1,1,1,1
24-May-2018 12:51:43,36.1,0.910457142857143,-0.155828571428571,0.297528571428571,0.691666666666667,-0.0996666666666666,0.599833333333333,5.33,-0.73324,0.09336,-0.64432,32.7055555555556,21.2115555555556,7.32822222222222,145.139,0.745266666666667,0.3714,0.596866666666667,-2.585,-4.845,-0.91,0.088,-0.7164,-0.32375,0.57295,0.243875,0.823,-0.15225,728.68,1,1,1,1
24-May-2018 12:51:43,36.1,0.910457142857143,-0.155828571428571,0.297528571428571,0.691666666666667,-0.0996666666666666,0.599833333333333,5.33,-0.73324,0.09336,-0.64432,32.7055555555556,21.2115555555556,7.32822222222222,145.139,0.745266666666667,0.3714,0.596866666666667,-2.585,-4.845,-0.91,0.088,-0.7164,-0.32375,0.57295,0.243875,0.823,-0.15225,728.68,1,1,1,1
24-May-2018 12:51:43,36.1,0.910457142857143,-0.155828571428571,0.297528571428571,0.691666666666667,-0.0996666666666666,0.599833333333333,5.33,-0.73324,0.09336,-0.64432,32.7055555555556,21.2115555555556,7.32822222222222,145.139,0.745266666666667,0.3714,0.596866666666667,-2.585,-4.845,-0.91,0.088,-0.7164,-0.32375,0.57295,0.243875,0.823,-0.15225,728.68,1,1,1,1
24-May-2018 12:51:43,36.1,0.910457142857143,-0.155828571428571,0.297528571428571,0.691666666666667,-0.0996666666666666,0.599833333333333,5.33,-0.73324,0.09336,-0.64432,32.7055555555556,21.2115555555556,7.32822222222222,145.139,0.745266666666667,0.3714,0.596866666666667,-2.585,-4.845,-0.91,0.088,-0.7164,-0.32375,0.57295,0.243875,0.823,-0.15225,728.68,1,1,1,1
24-May-2018 12:51:44,3.66666666666667,0.911157142857143,-0.159328571428571,0.284342857142857,2.310125,-0.21175,0.4435,5.236,-0.774325,0.0943,-0.6853,-17.331,-0.63788888888889,-3.84211111111111,143.872,0.7432,0.379025,0.5864,2.44066666666667,0.996,1.76833333333333,0.088,-0.66052,-0.32628,0.57126,-1.189,-15.122,-4.11575,727.8705,1,1,1,1
24-May-2018 12:51:44,3.66666666666667,0.911157142857143,-0.159328571428571,0.284342857142857,2.310125,-0.21175,0.4435,5.236,-0.774325,0.0943,-0.6853,-17.331,-0.63788888888889,-3.84211111111111,143.872,0.7432,0.379025,0.5864,2.44066666666667,0.996,1.76833333333333,0.088,-0.66052,-0.32628,0.57126,-1.189,-15.122,-4.11575,727.8705,1,1,1,1
24-May-2018 12:51:44,3.66666666666667,0.911157142857143,-0.159328571428571,0.284342857142857,2.310125,-0.21175,0.4435,5.236,-0.774325,0.0943,-0.6853,-17.331,-0.63788888888889,-3.84211111111111,143.872,0.7432,0.379025,0.5864,2.44066666666667,0.996,1.76833333333333,0.088,-0.66052,-0.32628,0.57126,-1.189,-15.122,-4.11575,727.8705,1,1,1,1
24-May-2018 12:51:44,3.66666666666667,0.911157142857143,-0.159328571428571,0.284342857142857,2.310125,-0.21175,0.4435,5.236,-0.774325,0.0943,-0.6853,-17.331,-0.63788888888889,-3.84211111111111,143.872,0.7432,0.379025,0.5864,2.44066666666667,0.996,1.76833333333333,0.088,-0.66052,-0.32628,0.57126,-1.189,-15.122,-4.11575,727.8705,1,1,1,1
24-May-2018 12:51:45,63.4,0.913728571428571,-0.147342857142857,0.292142857142857,0.2955,0.691333333333333,-0.434166666666667,5.194,-0.73244,0.10326,-0.69664,7.05311111111111,-11.0177777777778,0.0297777777777776,144.3705,0.739675,0.377575,0.5931,-1.855,-2.4,-1.43,0.088,-0.76066,-0.34256,0.5006,0.261285714285714,4.399,-3.014,680.21,1,1,1,1
24-May-2018 12:51:45,63.4,0.913728571428571,-0.147342857142857,0.292142857142857,0.2955,0.691333333333333,-0.434166666666667,5.194,-0.73244,0.10326,-0.69664,7.05311111111111,-11.0177777777778,0.0297777777777776,144.3705,0.739675,0.377575,0.5931,-1.855,-2.4,-1.43,0.088,-0.76066,-0.34256,0.5006,0.261285714285714,4.399,-3.014,680.21,1,1,1,1
24-May-2018 12:51:45,63.4,0.913728571428571,-0.147342857142857,0.292142857142857,0.2955,0.691333333333333,-0.434166666666667,5.194,-0.73244,0.10326,-0.69664,7.05311111111111,-11.0177777777778,0.0297777777777776,144.3705,0.739675,0.377575,0.5931,-1.855,-2.4,-1.43,0,-0.76066,-0.34256,0.5006,0.261285714285714,4.399,-3.014,680.21,1,1,1,1
24-May-2018 12:51:45,63.4,0.913728571428571,-0.147342857142857,0.292142857142857,0.2955,0.691333333333333,-0.434166666666667,5.194,-0.73244,0.10326,-0.69664,7.05311111111111,-11.0177777777778,0.0297777777777776,144.3705,0.739675,0.377575,0.5931,-1.855,-2.4,-1.43,0,-0.76066,-0.34256,0.5006,0.261285714285714,4.399,-3.014,680.21,1,1,1,1
24-May-2018 12:51:46,54.8,0.912616666666667,-0.1437,0.2927,1.87066666666667,-1.13316666666667,0.863833333333333,5.1845,-0.74355,0.03455,-0.78455,49.31,6.7105,21.735,145.866,0.7415,0.37735,0.59105,-11.6,-1.22,1.28,0.059,-0.706333333333333,-0.434833333333333,0.4984,-14.3048,-6.6098,-5.4634,681.998,1,1,1,1
24-May-2018 12:51:46,54.8,0.912616666666667,-0.1437,0.2927,1.87066666666667,-1.13316666666667,0.863833333333333,5.1845,-0.74355,0.03455,-0.78455,49.31,6.7105,21.735,145.866,0.7415,0.37735,0.59105,-11.6,-1.22,1.28,0.059,-0.706333333333333,-0.434833333333333,0.4984,-14.3048,-6.6098,-5.4634,681.998,1,1,1,1
24-May-2018 12:51:46,54.8,0.912616666666667,-0.1437,0.2927,1.87066666666667,-1.13316666666667,0.863833333333333,5.1845,-0.74355,0.03455,-0.78455,49.31,6.7105,21.735,145.866,0.7415,0.37735,0.59105,-11.6,-1.22,1.28,0.059,-0.706333333333333,-0.434833333333333,0.4984,-14.3048,-6.6098,-5.4634,681.998,1,1,1,1
24-May-2018 12:51:46,54.8,0.912616666666667,-0.1437,0.2927,1.87066666666667,-1.13316666666667,0.863833333333333,5.1845,-0.74355,0.03455,-0.78455,49.31,6.7105,21.735,145.866,0.7415,0.37735,0.59105,-11.6,-1.22,1.28,0.059,-0.706333333333333,-0.434833333333333,0.4984,-14.3048,-6.6098,-5.4634,681.998,1,1,1,1
24-May-2018 12:51:47,20.9,0.912675,-0.15145,0.286325,3.70425,0.07775,0.93025,5.179,-0.72425,-0.05,-0.7672,92.808,-24.414,25.75,145.866,0.7595,0.3611,0.5552,-5.9256,-1.8754,-0.3398,0.0893333333333333,-0.6893,-0.434933333333333,0.522233333333333,22.3292,10.817,-3.0856,681.998,1,1,1,1
24-May-2018 12:51:47,20.9,0.912675,-0.15145,0.286325,3.70425,0.07775,0.93025,5.179,-0.72425,-0.05,-0.7672,92.808,-24.414,25.75,145.866,0.7595,0.3611,0.5552,-5.9256,-1.8754,-0.3398,0.0893333333333333,-0.6893,-0.434933333333333,0.522233333333333,22.3292,10.817,-3.0856,681.998,1,1,1,1
24-May-2018 12:51:47,20.9,0.912675,-0.15145,0.286325,3.70425,0.07775,0.93025,5.179,-0.72425,-0.05,-0.7672,92.808,-24.414,25.75,145.866,0.7595,0.3611,0.5552,-5.9256,-1.8754,-0.3398,0.0893333333333333,-0.6893,-0.434933333333333,0.522233333333333,22.3292,10.817,-3.0856,681.998,1,1,1,1
24-May-2018 12:51:47,20.9,0.912675,-0.15145,0.286325,3.70425,0.07775,0.93025,5.179,-0.72425,-0.05,-0.7672,92.808,-24.414,25.75,145.866,0.7595,0.3611,0.5552,-5.9256,-1.8754,-0.3398,0.0893333333333333,-0.6893,-0.434933333333333,0.522233333333333,22.3292,10.817,-3.0856,0,1,1,1,1
