TIME,HELMET_RAW,BELT_ACC_X,BELT_ACC_Y,BELT_ACC_Z,BELT_ANG_X,BELT_ANG_Y,BELT_ANG_Z,BELT_LUMINOSITY,NECK_ACC_X,NECK_ACC_Y,NECK_ACC_Z,NECK_ANG_X,NECK_ANG_Y,NECK_ANG_Z,NECK_LUMINOSITY,PCKT_ACC_X,PCKT_ACC_Y,PCKT_ACC_Z,PCKT_ANG_X,PCKT_ANG_Y,PCKT_ANG_Z,PCKT_LUMINOSITY,WRST_ACC_X,WRST_ACC_Y,WRST_ACC_Z,WRST_ANG_X,WRST_ANG_Y,WRST_ANG_Z,WRST_LUMINOSITY,IR_1,IR_2,IR_3,IR_4
24-May-2018 12:48:42,482.285714285714,0.89746,-0.10332,0.36384,0.196666666666667,0.469888888888889,-0.194888888888889,6.119,-0.89856,0.2508,-0.54946,48.6955555555556,13.6347777777778,17.9572222222222,107.41,0.7493,0.2396,0.6067,-11.9185,-12.005,-12.175,2.447,-0.7865,-0.0564,0.56705,1.372,-1.25,0.3505,752.4885,1,1,1,1
24-May-2018 12:48:42,482.285714285714,0.89746,-0.10332,0.36384,0.196666666666667,0.469888888888889,-0.194888888888889,6.119,-0.89856,0.2508,-0.54946,48.6955555555556,13.6347777777778,17.9572222222222,107.41,0.7493,0.2396,0.6067,-11.9185,-12.005,-12.175,2.447,-0.7865,-0.0564,0.56705,1.372,-1.25,0.3505,752.4885,1,1,1,1
24-May-2018 12:48:42,482.285714285714,0.89746,-0.10332,0.36384,0.196666666666667,0.469888888888889,-0.194888888888889,6.119,-0.89856,0.2508,-0.54946,48.6955555555556,13.6347777777778,17.9572222222222,107.41,0.7493,0.2396,0.6067,-11.9185,-12.005,-12.175,2.447,-0.7865,-0.0564,0.56705,1.372,-1.25,0.3505,752.4885,1,1,1,1
24-May-2018 12:48:42,482.285714285714,0.89746,-0.10332,0.36384,0.196666666666667,0.469888888888889,-0.194888888888889,6.119,-0.89856,0.2508,-0.54946,48.6955555555556,13.6347777777778,17.9572222222222,107.41,0.7493,0.2396,0.6067,-11.9185,-12.005,-12.175,0,-0.7865,-0.0564,0.56705,1.372,-1.25,0.3505,752.4885,1,1,1,1
24-May-2018 12:48:43,367.1,0.90266,-0.09998,0.36488,-0.0220000000000001,-1.3918,0.1236,6.0694,-0.8387,0.14015,-0.5385,41.7844444444444,1.073,18.0922222222222,107.41,0.7493,0.2396,0.6067,-4.05675,-3.4505,-0.8065,0.882,-0.788666666666667,-0.0456,0.548433333333333,1.22983333333333,0.173,-1.34133333333333,749.6965,1,1,1,1
24-May-2018 12:48:43,367.1,0.90266,-0.09998,0.36488,-0.0220000000000001,-1.3918,0.1236,6.0694,-0.8387,0.14015,-0.5385,41.7844444444444,1.073,18.0922222222222,107.41,0.7493,0.2396,0.6067,-4.05675,-3.4505,-0.8065,0.882,-0.788666666666667,-0.0456,0.548433333333333,1.22983333333333,0.173,-1.34133333333333,749.6965,1,1,1,1
24-May-2018 12:48:43,367.1,0.90266,-0.09998,0.36488,-0.0220000000000001,-1.3918,0.1236,6.0694,-0.8387,0.14015,-0.5385,41.7844444444444,1.073,18.0922222222222,107.41,0.7493,0.2396,0.6067,-4.05675,-3.4505,-0.8065,0.882,-0.788666666666667,-0.0456,0.548433333333333,1.22983333333333,0.173,-1.34133333333333,749.6965,1,1,1,1
24-May-2018 12:48:43,367.1,0.90266,-0.09998,0.36488,-0.0220000000000001,-1.3918,0.1236,6.0694,-0.8387,0.14015,-0.5385,41.7844444444444,1.073,18.0922222222222,107.41,0,0,0,-4.05675,-3.4505,-0.8065,0.882,-0.788666666666667,-0.0456,0.548433333333333,1.22983333333333,0.173,-1.34133333333333,749.6965,1,1,1,1
24-May-2018 12:48:44,270,0.87786,-0.1061,0.36714,1.355,2.3298,-0.0108,5.91133333333333,-0.82514,0.13654,-0.59294,36.8522222222222,-14.4855555555556,19.4322222222222,107.41,0.7685,0.291766666666667,0.612333333333333,-4.05675,-3.4505,-0.8065,0.882,-0.797683333333333,-0.0718666666666667,0.556616666666667,-1.5244,0.8782,0.878,740.135,1,1,1,1
24-May-2018 12:48:44,270,0.87786,-0.1061,0.36714,1.355,2.3298,-0.0108,5.91133333333333,-0.82514,0.13654,-0.59294,36.8522222222222,-14.4855555555556,19.4322222222222,107.41,0.7685,0.291766666666667,0.612333333333333,-4.05675,-3.4505,-0.8065,0.882,-0.797683333333333,-0.0718666666666667,0.556616666666667,-1.5244,0.8782,0.878,740.135,1,1,1,1
24-May-2018 12:48:44,270,0.87786,-0.1061,0.36714,1.355,2.3298,-0.0108,5.91133333333333,-0.82514,0.13654,-0.59294,36.8522222222222,-14.4855555555556,19.4322222222222,107.41,0.7685,0.291766666666667,0.612333333333333,-4.05675,-3.4505,-0.8065,0.882,-0.797683333333333,-0.0718666666666667,0.556616666666667,-1.5244,0.8782,0.878,740.135,1,1,1,1
24-May-2018 12:48:44,270,0.87786,-0.1061,0.36714,1.355,2.3298,-0.0108,5.91133333333333,-0.82514,0.13654,-0.59294,36.8522222222222,-14.4855555555556,19.4322222222222,107.41,0.7685,0.291766666666667,0.612333333333333,0,0,0,0,-0.797683333333333,-0.0718666666666667,0.556616666666667,-1.5244,0.8782,0.878,740.135,1,1,1,1
24-May-2018 12:48:45,204.111111111111,0.8938,-0.0981,0.383866666666667,-0.770714285714286,-0.033,0.0634285714285715,5.765,-0.833475,0.118225,-0.5762,36.5522222222222,-25.0888888888889,10.1953333333333,122.298,0.7685,0.291766666666667,0.612333333333333,-0.91,-3.53,-1.34,0.9235,-0.805475,-0.060125,0.532725,3.18083333333333,0.650333333333333,-0.2235,738.3335,1,1,1,0
24-May-2018 12:48:45,204.111111111111,0.8938,-0.0981,0.383866666666667,-0.770714285714286,-0.033,0.0634285714285715,5.765,-0.833475,0.118225,-0.5762,36.5522222222222,-25.0888888888889,10.1953333333333,122.298,0.7685,0.291766666666667,0.612333333333333,-0.91,-3.53,-1.34,0.9235,-0.805475,-0.060125,0.532725,3.18083333333333,0.650333333333333,-0.2235,738.3335,1,1,1,0
24-May-2018 12:48:45,204.111111111111,0.8938,-0.0981,0.383866666666667,-0.770714285714286,-0.033,0.0634285714285715,5.765,-0.833475,0.118225,-0.5762,36.5522222222222,-25.0888888888889,10.1953333333333,122.298,0.7685,0.291766666666667,0.612333333333333,-0.91,-3.53,-1.34,0.9235,-0.805475,-0.060125,0.532725,3.18083333333333,0.650333333333333,-0.2235,738.3335,1,1,1,0
24-May-2018 12:48:45,204.111111111111,0.8938,-0.0981,0.383866666666667,-0.770714285714286,-0.033,0.0634285714285715,5.765,-0.833475,0.118225,-0.5762,36.5522222222222,-25.0888888888889,10.1953333333333,122.298,0.7685,0.291766666666667,0.612333333333333,-0.91,-3.53,-1.34,0.9235,-0.805475,-0.060125,0.532725,3.18083333333333,0.650333333333333,-0.2235,738.3335,1,1,1,0
24-May-2018 12:48:46,163.875,0.894733333333333,-0.0869,0.3509,-1.77257142857143,0.950714285714286,-1.19157142857143,5.7565,-0.8735,0.05628,-0.58332,22.3012,-3.6294,1.9165,122.298,0.7685,0.291766666666667,0.612333333333333,1.68733333333333,-0.381333333333333,-0.12,0.8205,-0.739483333333333,-0.220933333333333,0.53035,-21.638125,-0.800375,-7.8355,739.271,1,1,1,1
24-May-2018 12:48:46,163.875,0.894733333333333,-0.0869,0.3509,-1.77257142857143,0.950714285714286,-1.19157142857143,5.7565,-0.8735,0.05628,-0.58332,22.3012,-3.6294,1.9165,122.298,0.7685,0.291766666666667,0.612333333333333,1.68733333333333,-0.381333333333333,-0.12,0.8205,-0.739483333333333,-0.220933333333333,0.53035,-21.638125,-0.800375,-7.8355,739.271,1,1,1,1
24-May-2018 12:48:46,163.875,0.894733333333333,-0.0869,0.3509,-1.77257142857143,0.950714285714286,-1.19157142857143,5.7565,-0.8735,0.05628,-0.58332,22.3012,-3.6294,1.9165,122.298,0,0,0,1.68733333333333,-0.381333333333333,-0.12,0.8205,-0.739483333333333,-0.220933333333333,0.53035,-21.638125,-0.800375,-7.8355,739.271,1,1,1,1
24-May-2018 12:48:46,163.875,0.894733333333333,-0.0869,0.3509,-1.77257142857143,0.950714285714286,-1.19157142857143,5.7565,-0.8735,0.05628,-0.58332,22.3012,-3.6294,1.9165,122.298,0,0,0,1.68733333333333,-0.381333333333333,-0.12,0.8205,-0.739483333333333,-0.220933333333333,0.53035,-21.638125,-0.800375,-7.8355,739.271,1,1,1,1
24-May-2018 12:48:47,134.111111111111,0.9027125,-0.072625,0.3734625,-13.486,0.3922,-2.594,5.65866666666667,-0.9588,0.10345,-0.648575,-11.068125,21.552375,28.03,118.48275,0.78315,0.2941,0.58135,1.68733333333333,-0.381333333333333,-0.12,0.847,-0.737375,-0.33695,0.5198,16.25,5.9755,-2.7285,727.444333333333,1,1,1,1
24-May-2018 12:48:47,134.111111111111,0.9027125,-0.072625,0.3734625,-13.486,0.3922,-2.594,5.65866666666667,-0.9588,0.10345,-0.648575,-11.068125,21.552375,28.03,118.48275,0.78315,0.2941,0.58135,1.68733333333333,-0.381333333333333,-0.12,0.847,-0.737375,-0.33695,0.5198,16.25,5.9755,-2.7285,727.444333333333,1,1,1,1
24-May-2018 12:48:47,134.111111111111,0.9027125,-0.072625,0.3734625,-13.486,0.3922,-2.594,5.65866666666667,-0.9588,0.10345,-0.648575,-11.068125,21.552375,28.03,118.48275,0.78315,0.2941,0.58135,1.68733333333333,-0.381333333333333,-0.12,0.847,-0.737375,-0.33695,0.5198,16.25,5.9755,-2.7285,727.444333333333,1,1,1,1
24-May-2018 12:48:47,134.111111111111,0.9027125,-0.072625,0.3734625,-13.486,0.3922,-2.594,5.65866666666667,-0.9588,0.10345,-0.648575,-11.068125,21.552375,28.03,118.48275,0.78315,0.2941,0.58135,0,0,0,0.847,-0.737375,-0.33695,0.5198,16.25,5.9755,-2.7285,727.444333333333,1,1,1,1
24-May-2018 12:48:48,109.9,0.89605,-0.05825,0.3773,8.7905,-2.19216666666667,2.68533333333333,5.41166666666667,-0.8306,0.305,-0.48622,-13.7328888888889,22.9984444444444,20.1427777777778,107.037,0.7878,0.2971,0.5907,0.732,-2.07,-0.73,0.918,-0.76804,-0.30052,0.50528,-5.58933333333333,-3.191,4.39016666666667,717.362,1,1,1,1
24-May-2018 12:48:48,109.9,0.89605,-0.05825,0.3773,8.7905,-2.19216666666667,2.68533333333333,5.41166666666667,-0.8306,0.305,-0.48622,-13.7328888888889,22.9984444444444,20.1427777777778,107.037,0.7878,0.2971,0.5907,0.732,-2.07,-0.73,0.918,-0.76804,-0.30052,0.50528,-5.58933333333333,-3.191,4.39016666666667,717.362,1,1,1,1
24-May-2018 12:48:48,109.9,0.89605,-0.05825,0.3773,8.7905,-2.19216666666667,2.68533333333333,5.41166666666667,-0.8306,0.305,-0.48622,-13.7328888888889,22.9984444444444,20.1427777777778,107.037,0.7878,0.2971,0.5907,0.732,-2.07,-0.73,0.918,-0.76804,-0.30052,0.50528,-5.58933333333333,-3.191,4.39016666666667,717.362,1,1,1,1
24-May-2018 12:48:48,109.9,0.89605,-0.05825,0.3773,8.7905,-2.19216666666667,2.68533333333333,5.41166666666667,-0.8306,0.305,-0.48622,-13.7328888888889,22.9984444444444,20.1427777777778,107.037,0.7878,0.2971,0.5907,0.732,-2.07,-0.73,0.918,-0.76804,-0.30052,0.50528,-5.58933333333333,-3.191,4.39016666666667,717.362,1,1,1,1
24-May-2018 12:48:49,94,0.896455555555555,-0.0871444444444444,0.375511111111111,-2.595875,0.9785,0.380875,5.309,-0.79138,0.2429,-0.56884,34.9622222222222,-29.7111111111111,-8.87366666666667,107.037,0.7869,0.2932,0.5683,-3.835,-3.105,-1.28,0.918,-0.72115,-0.198325,0.462875,24.757,14.7684,6.4026,686.486333333333,1,1,1,1
24-May-2018 12:48:49,94,0.896455555555555,-0.0871444444444444,0.375511111111111,-2.595875,0.9785,0.380875,5.309,-0.79138,0.2429,-0.56884,34.9622222222222,-29.7111111111111,-8.87366666666667,107.037,0.7869,0.2932,0.5683,-3.835,-3.105,-1.28,0.918,-0.72115,-0.198325,0.462875,24.757,14.7684,6.4026,686.486333333333,1,1,1,1
24-May-2018 12:48:49,94,0.896455555555555,-0.0871444444444444,0.375511111111111,-2.595875,0.9785,0.380875,5.309,-0.79138,0.2429,-0.56884,34.9622222222222,-29.7111111111111,-8.87366666666667,107.037,0.7869,0.2932,0.5683,-3.835,-3.105,-1.28,0.918,-0.72115,-0.198325,0.462875,24.757,14.7684,6.4026,686.486333333333,1,1,1,1
24-May-2018 12:48:49,94,0.896455555555555,-0.0871444444444444,0.375511111111111,-2.595875,0.9785,0.380875,5.309,-0.79138,0.2429,-0.56884,34.9622222222222,-29.7111111111111,-8.87366666666667,107.037,0.7869,0.2932,0.5683,-3.835,-3.105,-1.28,0.918,-0.72115,-0.198325,0.462875,24.757,14.7684,6.4026,686.486333333333,1,1,1,1
24-May-2018 12:48:50,83.5555555555556,0.89543,-0.0665,0.38115,5.761,-1.896375,-0.135,5.309,-0.915314285714286,0.0959571428571429,-0.639285714285714,29.86625,5.401625,-25.0875,115.442,0.7853,0.2948,0.5934,-3.11,0.244,3.293,0.918,-0.72608,-0.38518,0.495,4.69525,-2.05775,4.49725,702.635,1,1,1,1
24-May-2018 12:48:50,83.5555555555556,0.89543,-0.0665,0.38115,5.761,-1.896375,-0.135,5.309,-0.915314285714286,0.0959571428571429,-0.639285714285714,29.86625,5.401625,-25.0875,115.442,0.7853,0.2948,0.5934,-3.11,0.244,3.293,0.918,-0.72608,-0.38518,0.495,4.69525,-2.05775,4.49725,702.635,1,1,1,1
24-May-2018 12:48:50,83.5555555555556,0.89543,-0.0665,0.38115,5.761,-1.896375,-0.135,5.309,-0.915314285714286,0.0959571428571429,-0.639285714285714,29.86625,5.401625,-25.0875,115.442,0.7853,0.2948,0.5934,-3.11,0.244,3.293,0.918,-0.72608,-0.38518,0.495,4.69525,-2.05775,4.49725,702.635,1,1,1,1
24-May-2018 12:48:50,83.5555555555556,0.89543,-0.0665,0.38115,5.761,-1.896375,-0.135,5.309,-0.915314285714286,0.0959571428571429,-0.639285714285714,29.86625,5.401625,-25.0875,115.442,0.7853,0.2948,0.5934,-3.11,0.244,3.293,0.918,-0.72608,-0.38518,0.495,4.69525,-2.05775,4.49725,702.635,1,1,1,1
24-May-2018 12:48:51,73.2727272727273,0.8974,-0.05905,0.373975,5.67,0.1476,2.2562,5.309,-0.87635,-0.1518,-0.45295,10.7544,7.7012,-29.1,115.442,0.7888,0.2775,0.5712,-3.11,0.244,3.293,0.918,-0.7258,-0.3574,0.5101,-9.57325,-1.92075,3.994,732.231,1,1,1,1
24-May-2018 12:48:51,73.2727272727273,0.8974,-0.05905,0.373975,5.67,0.1476,2.2562,5.309,-0.87635,-0.1518,-0.45295,10.7544,7.7012,-29.1,115.442,0.7888,0.2775,0.5712,-3.11,0.244,3.293,0.918,-0.7258,-0.3574,0.5101,-9.57325,-1.92075,3.994,732.231,1,1,1,1
24-May-2018 12:48:51,73.2727272727273,0.8974,-0.05905,0.373975,5.67,0.1476,2.2562,5.309,-0.87635,-0.1518,-0.45295,10.7544,7.7012,-29.1,115.442,0.7888,0.2775,0.5712,-3.11,0.244,3.293,0.918,-0.7258,-0.3574,0.5101,-9.57325,-1.92075,3.994,732.231,1,1,1,1
24-May-2018 12:48:51,73.2727272727273,0.8974,-0.05905,0.373975,5.67,0.1476,2.2562,5.309,-0.87635,-0.1518,-0.45295,10.7544,7.7012,-29.1,115.442,0.7888,0.2775,0.5712,-3.11,0.244,3.293,0.918,-0.7258,-0.3574,0.5101,-9.57325,-1.92075,3.994,732.231,1,1,1,1
24-May-2018 12:48:52,68.1428571428571,0.8942,-0.0611333333333333,0.379116666666667,-1.52966666666667,0.6625,-0.818333333333333,5.309,-0.88265,-0.173225,-0.4647,-41.3,-21.5996,-20.98,115.857,0.7888,0.2775,0.5712,-3.11,0.244,3.293,0.918,-0.733833333333333,-0.3627,0.517266666666667,2.5,2.31733333333333,-0.914333333333333,725.79125,1,1,1,1
24-May-2018 12:48:52,68.1428571428571,0.8942,-0.0611333333333333,0.379116666666667,-1.52966666666667,0.6625,-0.818333333333333,5.309,-0.88265,-0.173225,-0.4647,-41.3,-21.5996,-20.98,115.857,0.7888,0.2775,0.5712,-3.11,0.244,3.293,0.918,-0.733833333333333,-0.3627,0.517266666666667,2.5,2.31733333333333,-0.914333333333333,725.79125,1,1,1,1
24-May-2018 12:48:52,68.1428571428571,0.8942,-0.0611333333333333,0.379116666666667,-1.52966666666667,0.6625,-0.818333333333333,5.309,-0.88265,-0.173225,-0.4647,-41.3,-21.5996,-20.98,115.857,0.7888,0.2775,0.5712,0,0,0,0.918,-0.733833333333333,-0.3627,0.517266666666667,2.5,2.31733333333333,-0.914333333333333,725.79125,1,1,1,1
24-May-2018 12:48:52,68.1428571428571,0.8942,-0.0611333333333333,0.379116666666667,-1.52966666666667,0.6625,-0.818333333333333,5.309,-0.88265,-0.173225,-0.4647,-41.3,-21.5996,-20.98,115.857,0,0,0,0,0,0,0.918,-0.733833333333333,-0.3627,0.517266666666667,2.5,2.31733333333333,-0.914333333333333,725.79125,1,1,1,1
24-May-2018 12:48:53,63,0.900557142857143,-0.0535142857142857,0.380585714285714,-1.809375,0.443375,-0.340375,5.647,-0.84794,-0.1302,-0.50536,-20.86375,-12.286875,7.07,116.687,0.7923,0.27,0.5696,-0.638,-2.53,-2.985,0.918,-0.74502,-0.35064,0.52026,2.522625,0.685875,-1.524375,726.8415,1,1,1,1
24-May-2018 12:48:53,63,0.900557142857143,-0.0535142857142857,0.380585714285714,-1.809375,0.443375,-0.340375,5.647,-0.84794,-0.1302,-0.50536,-20.86375,-12.286875,7.07,116.687,0.7923,0.27,0.5696,-0.638,-2.53,-2.985,0.918,-0.74502,-0.35064,0.52026,2.522625,0.685875,-1.524375,726.8415,1,1,1,1
24-May-2018 12:48:53,63,0.900557142857143,-0.0535142857142857,0.380585714285714,-1.809375,0.443375,-0.340375,5.647,-0.84794,-0.1302,-0.50536,-20.86375,-12.286875,7.07,116.687,0.7923,0.27,0.5696,-0.638,-2.53,-2.985,0,-0.74502,-0.35064,0.52026,2.522625,0.685875,-1.524375,726.8415,1,1,1,1
24-May-2018 12:48:53,63,0.900557142857143,-0.0535142857142857,0.380585714285714,-1.809375,0.443375,-0.340375,5.647,-0.84794,-0.1302,-0.50536,-20.86375,-12.286875,7.07,116.687,0.7923,0.27,0.5696,-0.638,-2.53,-2.985,0,-0.74502,-0.35064,0.52026,2.522625,0.685875,-1.524375,726.8415,1,1,1,1
24-May-2018 12:48:54,38.6666666666667,0.89686,-0.05638,0.37846,2.93628571428571,0.663428571428571,0.932571428571429,5.61016666666667,-0.98838,-0.00772,-0.57932,-30.2777777777778,10.1844444444444,19.4615555555556,116.687,0.7973,0.2799,0.5884,4.32933333333333,2.21566666666667,3.06933333333333,0.752,-0.743533333333333,-0.331766666666667,0.488033333333333,0.8335,1.99183333333333,-0.802666666666667,721.122,1,1,1,1
24-May-2018 12:48:54,38.6666666666667,0.89686,-0.05638,0.37846,2.93628571428571,0.663428571428571,0.932571428571429,5.61016666666667,-0.98838,-0.00772,-0.57932,-30.2777777777778,10.1844444444444,19.4615555555556,116.687,0.7973,0.2799,0.5884,4.32933333333333,2.21566666666667,3.06933333333333,0.752,-0.743533333333333,-0.331766666666667,0.488033333333333,0.8335,1.99183333333333,-0.802666666666667,721.122,1,1,1,1
24-May-2018 12:48:54,38.6666666666667,0.89686,-0.05638,0.37846,2.93628571428571,0.663428571428571,0.932571428571429,5.61016666666667,-0.98838,-0.00772,-0.57932,-30.2777777777778,10.1844444444444,19.4615555555556,116.687,0.7973,0.2799,0.5884,4.32933333333333,2.21566666666667,3.06933333333333,0.752,-0.743533333333333,-0.331766666666667,0.488033333333333,0.8335,1.99183333333333,-0.802666666666667,721.122,1,1,1,1
24-May-2018 12:48:54,38.6666666666667,0.89686,-0.05638,0.37846,2.93628571428571,0.663428571428571,0.932571428571429,5.61016666666667,-0.98838,-0.00772,-0.57932,-30.2777777777778,10.1844444444444,19.4615555555556,116.687,0.7973,0.2799,0.5884,4.32933333333333,2.21566666666667,3.06933333333333,0.752,-0.743533333333333,-0.331766666666667,0.488033333333333,0.8335,1.99183333333333,-0.802666666666667,721.122,1,1,1,1
24-May-2018 12:48:55,60.3,0.8888125,-0.051175,0.4010875,-2.84514285714286,1.18485714285714,-0.0322857142857142,5.34266666666667,-0.8771,0.19934,-0.41656,-8.03555555555556,5.62511111111111,9.02322222222222,104.795,0.8131,0.2715,0.5623,4.32933333333333,2.21566666666667,3.06933333333333,0.479,-0.780366666666667,-0.324566666666667,0.495566666666667,1.7275,5.33516666666667,-3.21133333333333,712.851,1,1,1,0
24-May-2018 12:48:55,60.3,0.8888125,-0.051175,0.4010875,-2.84514285714286,1.18485714285714,-0.0322857142857142,5.34266666666667,-0.8771,0.19934,-0.41656,-8.03555555555556,5.62511111111111,9.02322222222222,104.795,0.8131,0.2715,0.5623,4.32933333333333,2.21566666666667,3.06933333333333,0.479,-0.780366666666667,-0.324566666666667,0.495566666666667,1.7275,5.33516666666667,-3.21133333333333,712.851,1,1,1,0
24-May-2018 12:48:55,60.3,0.8888125,-0.051175,0.4010875,-2.84514285714286,1.18485714285714,-0.0322857142857142,5.34266666666667,-0.8771,0.19934,-0.41656,-8.03555555555556,5.62511111111111,9.02322222222222,104.795,0.8131,0.2715,0.5623,4.32933333333333,2.21566666666667,3.06933333333333,0.479,-0.780366666666667,-0.324566666666667,0.495566666666667,1.7275,5.33516666666667,-3.21133333333333,712.851,1,1,1,0
24-May-2018 12:48:55,60.3,0.8888125,-0.051175,0.4010875,-2.84514285714286,1.18485714285714,-0.0322857142857142,5.34266666666667,-0.8771,0.19934,-0.41656,-8.03555555555556,5.62511111111111,9.02322222222222,104.795,0.8131,0.2715,0.5623,0,0,0,0.479,-0.780366666666667,-0.324566666666667,0.495566666666667,1.7275,5.33516666666667,-3.21133333333333,712.851,1,1,1,0
24-May-2018 12:48:56,50.2222222222222,0.889,-0.0470666666666667,0.410066666666667,0.865,-0.586833333333333,-0.129833333333333,5.39025,-0.870633333333333,0.141133333333333,-0.4773,7.99085714285714,-18.9828571428571,-2.59942857142857,104.795,0.784316666666667,0.29885,0.57325,-7.07,-6.55,-1.615,1.102,-0.749366666666667,-0.3884,0.4364,4.01542857142857,-2.85714285714286,-0.365714285714286,696.249,1,1,1,0
24-May-2018 12:48:56,50.2222222222222,0.889,-0.0470666666666667,0.410066666666667,0.865,-0.586833333333333,-0.129833333333333,5.39025,-0.870633333333333,0.141133333333333,-0.4773,7.99085714285714,-18.9828571428571,-2.59942857142857,104.795,0.784316666666667,0.29885,0.57325,-7.07,-6.55,-1.615,1.102,-0.749366666666667,-0.3884,0.4364,4.01542857142857,-2.85714285714286,-0.365714285714286,696.249,1,1,1,0
24-May-2018 12:48:56,50.2222222222222,0.889,-0.0470666666666667,0.410066666666667,0.865,-0.586833333333333,-0.129833333333333,5.39025,-0.870633333333333,0.141133333333333,-0.4773,7.99085714285714,-18.9828571428571,-2.59942857142857,104.795,0.784316666666667,0.29885,0.57325,-7.07,-6.55,-1.615,1.102,-0.749366666666667,-0.3884,0.4364,4.01542857142857,-2.85714285714286,-0.365714285714286,696.249,1,1,1,0
24-May-2018 12:48:56,50.2222222222222,0.889,-0.0470666666666667,0.410066666666667,0.865,-0.586833333333333,-0.129833333333333,5.39025,-0.870633333333333,0.141133333333333,-0.4773,7.99085714285714,-18.9828571428571,-2.59942857142857,104.795,0.784316666666667,0.29885,0.57325,-7.07,-6.55,-1.615,1.102,-0.749366666666667,-0.3884,0.4364,4.01542857142857,-2.85714285714286,-0.365714285714286,696.249,1,1,1,0
24-May-2018 12:48:57,32.6,0.892742857142857,-0.0441714285714286,0.394714285714286,2.26425,-1.0265,1.2445,5.41566666666667,-0.857025,0.142,-0.462175,-17.476375,-13.636625,-1.11025,104.795,0.8255,0.26115,0.54285,-0.94,-1.46,0.549,0.302,-0.742414285714286,-0.369485714285714,0.484042857142857,0.9145,-0.863666666666667,1.95116666666667,703.360333333333,1,1,1,1
24-May-2018 12:48:57,32.6,0.892742857142857,-0.0441714285714286,0.394714285714286,2.26425,-1.0265,1.2445,5.41566666666667,-0.857025,0.142,-0.462175,-17.476375,-13.636625,-1.11025,104.795,0.8255,0.26115,0.54285,-0.94,-1.46,0.549,0.302,-0.742414285714286,-0.369485714285714,0.484042857142857,0.9145,-0.863666666666667,1.95116666666667,703.360333333333,1,1,1,1
24-May-2018 12:48:57,32.6,0.892742857142857,-0.0441714285714286,0.394714285714286,2.26425,-1.0265,1.2445,5.41566666666667,-0.857025,0.142,-0.462175,-17.476375,-13.636625,-1.11025,104.795,0.8255,0.26115,0.54285,-0.94,-1.46,0.549,0.302,-0.742414285714286,-0.369485714285714,0.484042857142857,0.9145,-0.863666666666667,1.95116666666667,703.360333333333,1,1,1,1
24-May-2018 12:48:57,32.6,0.892742857142857,-0.0441714285714286,0.394714285714286,2.26425,-1.0265,1.2445,5.41566666666667,-0.857025,0.142,-0.462175,-17.476375,-13.636625,-1.11025,104.795,0.8255,0.26115,0.54285,-0.94,-1.46,0.549,0.302,-0.742414285714286,-0.369485714285714,0.484042857142857,0.9145,-0.863666666666667,1.95116666666667,703.360333333333,1,1,1,1
24-May-2018 12:48:58,29.3333333333333,0.902833333333333,-0.0498333333333333,0.383133333333333,0.346333333333333,0.712666666666667,1.15866666666667,5.448,-0.8678,0.19955,-0.46495,-26.62,9.595,-9.148,99.154,0.81855,0.2783,0.5351,-4.26,-2.5,-2.25,0.2695,-0.7502,-0.33865,0.50155,-3.293,3.049,2.866,706.346333333333,1,1,1,0
24-May-2018 12:48:58,29.3333333333333,0.902833333333333,-0.0498333333333333,0.383133333333333,0.346333333333333,0.712666666666667,1.15866666666667,5.448,-0.8678,0.19955,-0.46495,-26.62,9.595,-9.148,99.154,0.81855,0.2783,0.5351,-4.26,-2.5,-2.25,0.2695,-0.7502,-0.33865,0.50155,-3.293,3.049,2.866,706.346333333333,1,1,1,0
24-May-2018 12:48:58,29.3333333333333,0.902833333333333,-0.0498333333333333,0.383133333333333,0.346333333333333,0.712666666666667,1.15866666666667,5.448,-0.8678,0.19955,-0.46495,-26.62,9.595,-9.148,99.154,0.81855,0.2783,0.5351,-4.26,-2.5,-2.25,0.2695,-0.7502,-0.33865,0.50155,-3.293,3.049,2.866,706.346333333333,1,1,1,0
24-May-2018 12:48:58,29.3333333333333,0.902833333333333,-0.0498333333333333,0.383133333333333,0.346333333333333,0.712666666666667,1.15866666666667,5.448,-0.8678,0.19955,-0.46495,-26.62,9.595,-9.148,99.154,0.81855,0.2783,0.5351,-4.26,-2.5,-2.25,0.2695,-0.7502,-0.33865,0.50155,-3.293,3.049,2.866,706.346333333333,1,1,1,0
24-May-2018 12:48:59,75.8,0.89685,-0.060775,0.373825,4.0245,1.755,0.9605,5.457,-1.03396666666667,0.191333333333333,-0.5891,0.258999999999999,4.635,-19.3,99.154,0.81394,0.28924,0.52726,2.53275,-1.27725,0.30525,0.225,-0.745775,-0.37525,0.4943,-2.7682,-1.2194,0.439,706.753,1,1,1,0
24-May-2018 12:48:59,75.8,0.89685,-0.060775,0.373825,4.0245,1.755,0.9605,5.457,-1.03396666666667,0.191333333333333,-0.5891,0.258999999999999,4.635,-19.3,99.154,0.81394,0.28924,0.52726,2.53275,-1.27725,0.30525,0.225,-0.745775,-0.37525,0.4943,-2.7682,-1.2194,0.439,706.753,1,1,1,0
24-May-2018 12:48:59,75.8,0.89685,-0.060775,0.373825,4.0245,1.755,0.9605,5.457,-1.03396666666667,0.191333333333333,-0.5891,0.258999999999999,4.635,-19.3,99.154,0.81394,0.28924,0.52726,2.53275,-1.27725,0.30525,0.225,-0.745775,-0.37525,0.4943,-2.7682,-1.2194,0.439,706.753,1,1,1,0
24-May-2018 12:48:59,75.8,0.89685,-0.060775,0.373825,4.0245,1.755,0.9605,5.457,-1.03396666666667,0.191333333333333,-0.5891,0.258999999999999,4.635,-19.3,99.154,0.81394,0.28924,0.52726,2.53275,-1.27725,0.30525,0.225,-0.745775,-0.37525,0.4943,-2.7682,-1.2194,0.439,706.753,1,1,1,0
24-May-2018 12:49:00,70.3333333333333,0.89145,-0.0573625,0.3974,0.141857142857143,1.19471428571429,-0.277285714285714,5.463,-0.865925,0.11155,-0.454275,21.2158888888889,17.1271111111111,-6.02,99.154,0.8032,0.2778,0.5491,-1.03,0.488,1.646,0.159,-0.742616666666667,-0.38555,0.476066666666667,0.436833333333333,2.28666666666667,-0.782666666666667,706.081,1,1,1,1
24-May-2018 12:49:00,70.3333333333333,0.89145,-0.0573625,0.3974,0.141857142857143,1.19471428571429,-0.277285714285714,5.463,-0.865925,0.11155,-0.454275,21.2158888888889,17.1271111111111,-6.02,99.154,0.8032,0.2778,0.5491,-1.03,0.488,1.646,0.159,-0.742616666666667,-0.38555,0.476066666666667,0.436833333333333,2.28666666666667,-0.782666666666667,706.081,1,1,1,1
24-May-2018 12:49:00,70.3333333333333,0.89145,-0.0573625,0.3974,0.141857142857143,1.19471428571429,-0.277285714285714,5.463,-0.865925,0.11155,-0.454275,21.2158888888889,17.1271111111111,-6.02,99.154,0.8032,0.2778,0.5491,-1.03,0.488,1.646,0.159,-0.742616666666667,-0.38555,0.476066666666667,0.436833333333333,2.28666666666667,-0.782666666666667,706.081,1,1,1,1
24-May-2018 12:49:00,70.3333333333333,0.89145,-0.0573625,0.3974,0.141857142857143,1.19471428571429,-0.277285714285714,5.463,-0.865925,0.11155,-0.454275,21.2158888888889,17.1271111111111,-6.02,99.154,0.8032,0.2778,0.5491,-1.03,0.488,1.646,0.159,-0.742616666666667,-0.38555,0.476066666666667,0.436833333333333,2.28666666666667,-0.782666666666667,706.081,1,1,1,1
24-May-2018 12:49:01,67,0.885133333333333,-0.0534555555555556,0.414488888888889,-11.5511111111111,1.34144444444444,-3.2,5.463,-0.94584,0.08978,-0.45344,20.308,-9.48,16.9896666666667,99.154,0.8032,0.2778,0.5491,0.916,-0.0575,0.427,0.225,-0.765585714285714,-0.390842857142857,0.442928571428571,12.9182857142857,10.1392857142857,-8.39714285714286,700.324,1,1,1,0
24-May-2018 12:49:01,67,0.885133333333333,-0.0534555555555556,0.414488888888889,-11.5511111111111,1.34144444444444,-3.2,5.463,-0.94584,0.08978,-0.45344,20.308,-9.48,16.9896666666667,99.154,0.8032,0.2778,0.5491,0.916,-0.0575,0.427,0.225,-0.765585714285714,-0.390842857142857,0.442928571428571,12.9182857142857,10.1392857142857,-8.39714285714286,700.324,1,1,1,0
24-May-2018 12:49:01,67,0.885133333333333,-0.0534555555555556,0.414488888888889,-11.5511111111111,1.34144444444444,-3.2,5.463,-0.94584,0.08978,-0.45344,20.308,-9.48,16.9896666666667,99.154,0.8032,0.2778,0.5491,0.916,-0.0575,0.427,0.225,-0.765585714285714,-0.390842857142857,0.442928571428571,12.9182857142857,10.1392857142857,-8.39714285714286,700.324,1,1,1,0
24-May-2018 12:49:01,67,0.885133333333333,-0.0534555555555556,0.414488888888889,-11.5511111111111,1.34144444444444,-3.2,5.463,-0.94584,0.08978,-0.45344,20.308,-9.48,16.9896666666667,99.154,0,0,0,0.916,-0.0575,0.427,0.225,-0.765585714285714,-0.390842857142857,0.442928571428571,12.9182857142857,10.1392857142857,-8.39714285714286,700.324,1,1,1,0
24-May-2018 12:49:02,8.14285714285714,0.883525,-0.0717375,0.41255,1.92175,-0.019625,1.3805,5.463,-0.87458,0.08044,-0.4657,70.1455555555556,-15.3466666666667,31.8866666666667,108.517,0.8067,0.2664,0.5493,0.916,-0.0575,0.427,0.225,-0.764883333333333,-0.412266666666667,0.419366666666667,-6.22814285714286,-4.78242857142857,2.92671428571429,665.57575,1,1,1,1
24-May-2018 12:49:02,8.14285714285714,0.883525,-0.0717375,0.41255,1.92175,-0.019625,1.3805,5.463,-0.87458,0.08044,-0.4657,70.1455555555556,-15.3466666666667,31.8866666666667,108.517,0.8067,0.2664,0.5493,0.916,-0.0575,0.427,0.225,-0.764883333333333,-0.412266666666667,0.419366666666667,-6.22814285714286,-4.78242857142857,2.92671428571429,665.57575,1,1,1,1
24-May-2018 12:49:02,8.14285714285714,0.883525,-0.0717375,0.41255,1.92175,-0.019625,1.3805,5.463,-0.87458,0.08044,-0.4657,70.1455555555556,-15.3466666666667,31.8866666666667,108.517,0.8067,0.2664,0.5493,0.916,-0.0575,0.427,0.225,-0.764883333333333,-0.412266666666667,0.419366666666667,-6.22814285714286,-4.78242857142857,2.92671428571429,665.57575,1,1,1,1
24-May-2018 12:49:02,8.14285714285714,0.883525,-0.0717375,0.41255,1.92175,-0.019625,1.3805,5.463,-0.87458,0.08044,-0.4657,70.1455555555556,-15.3466666666667,31.8866666666667,108.517,0.8067,0.2664,0.5493,0,0,0,0,-0.764883333333333,-0.412266666666667,0.419366666666667,-6.22814285714286,-4.78242857142857,2.92671428571429,665.57575,1,1,1,1
24-May-2018 12:49:03,-288.444444444444,0.8801,-0.06825,0.4181,10.91,-2.01,3.354,5.463,-0.9536,0.0427,-0.4382,99.84,-6.555,55.755,108.517,0.8067,0.2664,0.5493,-4.51,-4.39,-2.62,0.225,-0.7582,-0.38645,0.4417,0.061,-4.146,2.561,672.86,1,1,1,1
24-May-2018 12:49:03,-288.444444444444,0.8801,-0.06825,0.4181,10.91,-2.01,3.354,5.463,-0.9536,0.0427,-0.4382,99.84,-6.555,55.755,108.517,0.8067,0.2664,0.5493,-4.51,-4.39,-2.62,0.225,-0.7582,-0.38645,0.4417,0.061,-4.146,2.561,672.86,1,1,1,1
24-May-2018 12:49:03,-288.444444444444,0.8801,-0.06825,0.4181,10.91,-2.01,3.354,5.463,-0.9536,0.0427,-0.4382,99.84,-6.555,55.755,108.517,0.8067,0.2664,0.5493,-4.51,-4.39,-2.62,0.225,-0.7582,-0.38645,0.4417,0.061,-4.146,2.561,672.86,1,1,1,1
24-May-2018 12:49:03,-288.444444444444,0.8801,-0.06825,0.4181,10.91,-2.01,3.354,5.463,-0.9536,0.0427,-0.4382,99.84,-6.555,55.755,108.517,0,0,0,-4.51,-4.39,-2.62,0.225,-0.7582,-0.38645,0.4417,0.061,-4.146,2.561,672.86,1,1,1,1
24-May-2018 12:49:04,-531.777777777778,0.885942857142857,-0.0589285714285714,0.412471428571429,7.346,-0.378375,1.77575,5.463,-0.946575,0.2017,-0.465875,82.0866666666667,3.32277777777778,94.9911111111111,108.517,0.8137,0.2815,0.5374,-4.51,-4.39,-2.62,0.225,-0.765483333333333,-0.381566666666667,0.443983333333333,-3.3535,0.38875,0.75475,684.405,1,1,1,1
24-May-2018 12:49:04,-531.777777777778,0.885942857142857,-0.0589285714285714,0.412471428571429,7.346,-0.378375,1.77575,5.463,-0.946575,0.2017,-0.465875,82.0866666666667,3.32277777777778,94.9911111111111,108.517,0.8137,0.2815,0.5374,-4.51,-4.39,-2.62,0.225,-0.765483333333333,-0.381566666666667,0.443983333333333,-3.3535,0.38875,0.75475,684.405,1,1,1,1
24-May-2018 12:49:04,-531.777777777778,0.885942857142857,-0.0589285714285714,0.412471428571429,7.346,-0.378375,1.77575,5.463,-0.946575,0.2017,-0.465875,82.0866666666667,3.32277777777778,94.9911111111111,108.517,0.8137,0.2815,0.5374,-4.51,-4.39,-2.62,0.225,-0.765483333333333,-0.381566666666667,0.443983333333333,-3.3535,0.38875,0.75475,684.405,1,1,1,1
24-May-2018 12:49:04,-531.777777777778,0.885942857142857,-0.0589285714285714,0.412471428571429,7.346,-0.378375,1.77575,0,-0.946575,0.2017,-0.465875,82.0866666666667,3.32277777777778,94.9911111111111,108.517,0.8137,0.2815,0.5374,0,0,0,0.225,-0.765483333333333,-0.381566666666667,0.443983333333333,-3.3535,0.38875,0.75475,684.405,1,1,1,1
24-May-2018 12:49:05,-298,0.886416666666667,-0.0468333333333333,0.408283333333333,3.12725,-0.85,0.854,5.47042857142857,-0.838,0.49625,-0.411675,83.39,-18.1721111111111,86.4811111111111,105.428,0.8154,0.2782,0.52725,-1.82,-2.56,-3.35,0.225,-0.765585714285714,-0.376642857142857,0.455342857142857,-0.7725,0.436833333333333,0.437,689.4695,1,1,1,1
24-May-2018 12:49:05,-298,0.886416666666667,-0.0468333333333333,0.408283333333333,3.12725,-0.85,0.854,5.47042857142857,-0.838,0.49625,-0.411675,83.39,-18.1721111111111,86.4811111111111,105.428,0.8154,0.2782,0.52725,-1.82,-2.56,-3.35,0.225,-0.765585714285714,-0.376642857142857,0.455342857142857,-0.7725,0.436833333333333,0.437,689.4695,1,1,1,1
24-May-2018 12:49:05,-298,0.886416666666667,-0.0468333333333333,0.408283333333333,3.12725,-0.85,0.854,5.47042857142857,-0.838,0.49625,-0.411675,83.39,-18.1721111111111,86.4811111111111,105.428,0.8154,0.2782,0.52725,-1.82,-2.56,-3.35,0.225,-0.765585714285714,-0.376642857142857,0.455342857142857,-0.7725,0.436833333333333,0.437,689.4695,1,1,1,1
24-May-2018 12:49:05,-298,0.886416666666667,-0.0468333333333333,0.408283333333333,3.12725,-0.85,0.854,5.47042857142857,-0.838,0.49625,-0.411675,83.39,-18.1721111111111,86.4811111111111,105.428,0.8154,0.2782,0.52725,-1.82,-2.56,-3.35,0.225,-0.765585714285714,-0.376642857142857,0.455342857142857,-0.7725,0.436833333333333,0.437,689.4695,1,1,1,1
24-May-2018 12:49:06,-73.2222222222222,0.888533333333333,-0.0380333333333333,0.409333333333333,1.3245,0.4475,-0.0388333333333333,5.457,-0.80284,0.49964,-0.47982,115.477777777778,-38.9555555555556,65.0022222222222,102.339,0.8154,0.2782,0.52725,-5.3,-3.53,-5.54,0.225,-0.77575,-0.360866666666667,0.450866666666667,2.86575,1.204125,-0.4725,694.890666666667,1,1,1,1
24-May-2018 12:49:06,-73.2222222222222,0.888533333333333,-0.0380333333333333,0.409333333333333,1.3245,0.4475,-0.0388333333333333,5.457,-0.80284,0.49964,-0.47982,115.477777777778,-38.9555555555556,65.0022222222222,102.339,0.8154,0.2782,0.52725,-5.3,-3.53,-5.54,0.225,-0.77575,-0.360866666666667,0.450866666666667,2.86575,1.204125,-0.4725,694.890666666667,1,1,1,1
24-May-2018 12:49:06,-73.2222222222222,0.888533333333333,-0.0380333333333333,0.409333333333333,1.3245,0.4475,-0.0388333333333333,5.457,-0.80284,0.49964,-0.47982,115.477777777778,-38.9555555555556,65.0022222222222,102.339,0.8154,0.2782,0.52725,-5.3,-3.53,-5.54,0.225,-0.77575,-0.360866666666667,0.450866666666667,2.86575,1.204125,-0.4725,694.890666666667,1,1,1,1
24-May-2018 12:49:06,-73.2222222222222,0.888533333333333,-0.0380333333333333,0.409333333333333,1.3245,0.4475,-0.0388333333333333,5.457,-0.80284,0.49964,-0.47982,115.477777777778,-38.9555555555556,65.0022222222222,102.339,0,0,0,-5.3,-3.53,-5.54,0.225,-0.77575,-0.360866666666667,0.450866666666667,2.86575,1.204125,-0.4725,694.890666666667,1,1,1,1
24-May-2018 12:49:07,79.7,0.887542857142857,-0.0305142857142857,0.414442857142857,-1.18857142857143,-0.242,-0.381285714285714,5.45133333333333,-0.77615,0.42655,-0.51535,109.666666666667,-23.9777777777778,38.2277777777778,102.339,0.8221,0.3014,0.5144,-9.655,-4.325,-8.075,0.225,-0.76775,-0.35565,0.462033333333333,0.128666666666667,0.311555555555556,-0.812888888888889,702.198333333333,1,1,1,1
24-May-2018 12:49:07,79.7,0.887542857142857,-0.0305142857142857,0.414442857142857,-1.18857142857143,-0.242,-0.381285714285714,5.45133333333333,-0.77615,0.42655,-0.51535,109.666666666667,-23.9777777777778,38.2277777777778,102.339,0.8221,0.3014,0.5144,-9.655,-4.325,-8.075,0.225,-0.76775,-0.35565,0.462033333333333,0.128666666666667,0.311555555555556,-0.812888888888889,702.198333333333,1,1,1,1
24-May-2018 12:49:07,79.7,0.887542857142857,-0.0305142857142857,0.414442857142857,-1.18857142857143,-0.242,-0.381285714285714,5.45133333333333,-0.77615,0.42655,-0.51535,109.666666666667,-23.9777777777778,38.2277777777778,102.339,0.8221,0.3014,0.5144,-9.655,-4.325,-8.075,0.225,-0.76775,-0.35565,0.462033333333333,0.128666666666667,0.311555555555556,-0.812888888888889,702.198333333333,1,1,1,1
24-May-2018 12:49:07,79.7,0.887542857142857,-0.0305142857142857,0.414442857142857,-1.18857142857143,-0.242,-0.381285714285714,5.45133333333333,-0.77615,0.42655,-0.51535,109.666666666667,-23.9777777777778,38.2277777777778,102.339,0.8221,0.3014,0.5144,-9.655,-4.325,-8.075,0,-0.76775,-0.35565,0.462033333333333,0.128666666666667,0.311555555555556,-0.812888888888889,702.198333333333,1,1,1,1
24-May-2018 12:49:08,208.444444444444,0.891133333333333,-0.0319166666666667,0.404016666666667,0.823875,0.176375,0.648125,5.558,-0.82074,0.31548,-0.58522,83.6,-6.01466666666667,16.9866666666667,105.069,0.8221,0.3014,0.5144,-20,-6.34,-13.4,0.225,-0.764714285714286,-0.361457142857143,0.466285714285714,1.189,0.376,-0.1525,704.413,1,1,1,0
24-May-2018 12:49:08,208.444444444444,0.891133333333333,-0.0319166666666667,0.404016666666667,0.823875,0.176375,0.648125,5.558,-0.82074,0.31548,-0.58522,83.6,-6.01466666666667,16.9866666666667,105.069,0.8221,0.3014,0.5144,-20,-6.34,-13.4,0.225,-0.764714285714286,-0.361457142857143,0.466285714285714,1.189,0.376,-0.1525,704.413,1,1,1,0
24-May-2018 12:49:08,208.444444444444,0.891133333333333,-0.0319166666666667,0.404016666666667,0.823875,0.176375,0.648125,5.558,-0.82074,0.31548,-0.58522,83.6,-6.01466666666667,16.9866666666667,105.069,0.8221,0.3014,0.5144,-20,-6.34,-13.4,0.225,-0.764714285714286,-0.361457142857143,0.466285714285714,1.189,0.376,-0.1525,704.413,1,1,1,0
24-May-2018 12:49:08,208.444444444444,0.891133333333333,-0.0319166666666667,0.404016666666667,0.823875,0.176375,0.648125,5.558,-0.82074,0.31548,-0.58522,83.6,-6.01466666666667,16.9866666666667,105.069,0.8221,0.3014,0.5144,-20,-6.34,-13.4,0.225,-0.764714285714286,-0.361457142857143,0.466285714285714,1.189,0.376,-0.1525,704.413,1,1,1,0
24-May-2018 12:49:09,235.2,0.890228571428571,-0.0324,0.405371428571429,0.802285714285714,0.263,0.183428571428571,5.521,-0.81208,0.16658,-0.60988,77.8144444444444,2.65666666666667,9.43744444444444,105.979,0.8221,0.3014,0.5144,-20,-6.34,-13.4,0.225,-0.75458,-0.36602,0.47976,-0.0488000000000001,-0.4026,-0.256,708.646333333333,1,1,1,1
24-May-2018 12:49:09,235.2,0.890228571428571,-0.0324,0.405371428571429,0.802285714285714,0.263,0.183428571428571,5.521,-0.81208,0.16658,-0.60988,77.8144444444444,2.65666666666667,9.43744444444444,105.979,0.8221,0.3014,0.5144,-20,-6.34,-13.4,0.225,-0.75458,-0.36602,0.47976,-0.0488000000000001,-0.4026,-0.256,708.646333333333,1,1,1,1
24-May-2018 12:49:09,235.2,0.890228571428571,-0.0324,0.405371428571429,0.802285714285714,0.263,0.183428571428571,5.521,-0.81208,0.16658,-0.60988,77.8144444444444,2.65666666666667,9.43744444444444,105.979,0,0,0,-20,-6.34,-13.4,0.225,-0.75458,-0.36602,0.47976,-0.0488000000000001,-0.4026,-0.256,708.646333333333,1,1,1,1
24-May-2018 12:49:09,235.2,0.890228571428571,-0.0324,0.405371428571429,0.802285714285714,0.263,0.183428571428571,5.521,-0.81208,0.16658,-0.60988,77.8144444444444,2.65666666666667,9.43744444444444,105.979,0,0,0,-20,-6.34,-13.4,0.225,-0.75458,-0.36602,0.47976,-0.0488000000000001,-0.4026,-0.256,708.646333333333,1,1,1,1
24-May-2018 12:49:10,230.5,0.89025,-0.0342,0.4027,1.22114285714286,-0.00628571428571428,0.732571428571429,5.611,-0.8568,-0.00168,-0.61692,68.3488888888889,-1.35422222222222,21.1211111111111,105.979,0.7979,0.3064,0.5565,-20,-6.34,-13.4,0.225,-0.758683333333333,-0.36865,0.466266666666667,0.9024,1.4754,-0.6828,711.269,1,1,1,1
24-May-2018 12:49:10,230.5,0.89025,-0.0342,0.4027,1.22114285714286,-0.00628571428571428,0.732571428571429,5.611,-0.8568,-0.00168,-0.61692,68.3488888888889,-1.35422222222222,21.1211111111111,105.979,0.7979,0.3064,0.5565,-20,-6.34,-13.4,0.225,-0.758683333333333,-0.36865,0.466266666666667,0.9024,1.4754,-0.6828,711.269,1,1,1,1
24-May-2018 12:49:10,230.5,0.89025,-0.0342,0.4027,1.22114285714286,-0.00628571428571428,0.732571428571429,5.611,-0.8568,-0.00168,-0.61692,68.3488888888889,-1.35422222222222,21.1211111111111,105.979,0.7979,0.3064,0.5565,-20,-6.34,-13.4,0,-0.758683333333333,-0.36865,0.466266666666667,0.9024,1.4754,-0.6828,711.269,1,1,1,1
24-May-2018 12:49:10,230.5,0.89025,-0.0342,0.4027,1.22114285714286,-0.00628571428571428,0.732571428571429,5.611,-0.8568,-0.00168,-0.61692,68.3488888888889,-1.35422222222222,21.1211111111111,105.979,0.7979,0.3064,0.5565,-20,-6.34,-13.4,0,-0.758683333333333,-0.36865,0.466266666666667,0.9024,1.4754,-0.6828,711.269,1,1,1,1
24-May-2018 12:49:11,202,0.89055,-0.034925,0.406025,0.308222222222222,-0.268777777777778,0.109666666666667,5.611,-0.7573,-0.095375,-0.68585,61.4522222222222,31.5906666666667,11.2984444444444,116.994,0.7925,0.2966,0.5673,-20,-6.34,-13.4,0.159,-0.7577,-0.37518,0.47254,1.82933333333333,0.182833333333333,0.152333333333333,707.006,1,1,1,0
24-May-2018 12:49:11,202,0.89055,-0.034925,0.406025,0.308222222222222,-0.268777777777778,0.109666666666667,5.611,-0.7573,-0.095375,-0.68585,61.4522222222222,31.5906666666667,11.2984444444444,116.994,0.7925,0.2966,0.5673,-20,-6.34,-13.4,0.159,-0.7577,-0.37518,0.47254,1.82933333333333,0.182833333333333,0.152333333333333,707.006,1,1,1,0
24-May-2018 12:49:11,202,0.89055,-0.034925,0.406025,0.308222222222222,-0.268777777777778,0.109666666666667,5.611,-0.7573,-0.095375,-0.68585,61.4522222222222,31.5906666666667,11.2984444444444,116.994,0.7925,0.2966,0.5673,-20,-6.34,-13.4,0.159,-0.7577,-0.37518,0.47254,1.82933333333333,0.182833333333333,0.152333333333333,707.006,1,1,1,0
24-May-2018 12:49:11,202,0.89055,-0.034925,0.406025,0.308222222222222,-0.268777777777778,0.109666666666667,5.611,-0.7573,-0.095375,-0.68585,61.4522222222222,31.5906666666667,11.2984444444444,116.994,0.7925,0.2966,0.5673,-20,-6.34,-13.4,0.159,-0.7577,-0.37518,0.47254,1.82933333333333,0.182833333333333,0.152333333333333,707.006,1,1,1,0
24-May-2018 12:49:12,161.8,0.892411111111111,-0.0304555555555556,0.398777777777778,0.205888888888889,0.0414444444444444,-0.126666666666667,5.611,-0.673225,-0.171725,-0.779,42.0538888888889,-0.63,16.1903333333333,119.616,0.7867,0.3089,0.5597,8.7805,2.7745,2.378,0.159,-0.756233333333333,-0.371233333333333,0.4778,0.762166666666667,0.0915,-0.518166666666667,710.12,1,1,1,1
24-May-2018 12:49:12,161.8,0.892411111111111,-0.0304555555555556,0.398777777777778,0.205888888888889,0.0414444444444444,-0.126666666666667,5.611,-0.673225,-0.171725,-0.779,42.0538888888889,-0.63,16.1903333333333,119.616,0.7867,0.3089,0.5597,8.7805,2.7745,2.378,0.159,-0.756233333333333,-0.371233333333333,0.4778,0.762166666666667,0.0915,-0.518166666666667,710.12,1,1,1,1
24-May-2018 12:49:12,161.8,0.892411111111111,-0.0304555555555556,0.398777777777778,0.205888888888889,0.0414444444444444,-0.126666666666667,5.611,-0.673225,-0.171725,-0.779,42.0538888888889,-0.63,16.1903333333333,119.616,0.7867,0.3089,0.5597,8.7805,2.7745,2.378,0.159,-0.756233333333333,-0.371233333333333,0.4778,0.762166666666667,0.0915,-0.518166666666667,710.12,1,1,1,1
24-May-2018 12:49:12,161.8,0.892411111111111,-0.0304555555555556,0.398777777777778,0.205888888888889,0.0414444444444444,-0.126666666666667,5.611,-0.673225,-0.171725,-0.779,42.0538888888889,-0.63,16.1903333333333,119.616,0.7867,0.3089,0.5597,8.7805,2.7745,2.378,0,-0.756233333333333,-0.371233333333333,0.4778,0.762166666666667,0.0915,-0.518166666666667,710.12,1,1,1,1
24-May-2018 12:49:13,116.111111111111,0.893242857142857,-0.0316142857142857,0.395257142857143,0.327666666666667,-0.105777777777778,0.278888888888889,5.611,-0.75405,-0.141525,-0.8147,-7.031875,5.6345,24.8745,130.104,0.8065,0.299,0.5449,8.7805,2.7745,2.378,0.148,-0.75574,-0.3661,0.48754,-0.7315,1.30083333333333,-1.04683333333333,711.483,1,1,1,1
24-May-2018 12:49:13,116.111111111111,0.893242857142857,-0.0316142857142857,0.395257142857143,0.327666666666667,-0.105777777777778,0.278888888888889,5.611,-0.75405,-0.141525,-0.8147,-7.031875,5.6345,24.8745,130.104,0.8065,0.299,0.5449,8.7805,2.7745,2.378,0.148,-0.75574,-0.3661,0.48754,-0.7315,1.30083333333333,-1.04683333333333,711.483,1,1,1,1
24-May-2018 12:49:13,116.111111111111,0.893242857142857,-0.0316142857142857,0.395257142857143,0.327666666666667,-0.105777777777778,0.278888888888889,5.611,-0.75405,-0.141525,-0.8147,-7.031875,5.6345,24.8745,130.104,0.8065,0.299,0.5449,8.7805,2.7745,2.378,0.148,-0.75574,-0.3661,0.48754,-0.7315,1.30083333333333,-1.04683333333333,711.483,1,1,1,1
24-May-2018 12:49:13,116.111111111111,0.893242857142857,-0.0316142857142857,0.395257142857143,0.327666666666667,-0.105777777777778,0.278888888888889,5.611,-0.75405,-0.141525,-0.8147,-7.031875,5.6345,24.8745,130.104,0.8065,0.299,0.5449,0,0,0,0.148,-0.75574,-0.3661,0.48754,-0.7315,1.30083333333333,-1.04683333333333,711.483,1,1,1,1
24-May-2018 12:49:14,118.285714285714,0.89466,-0.0287,0.39186,0.197,-0.0338,0.8052,5.66033333333333,-0.789,-0.042625,-0.69945,38.9925,9.38875,17.47225,130.104,0.8065,0.299,0.5449,2.256,-1.09,2.805,0.148,-0.74865,-0.39065,0.46905,-0.4575,0.3455,-0.5895,710.607666666667,1,1,1,1
24-May-2018 12:49:14,118.285714285714,0.89466,-0.0287,0.39186,0.197,-0.0338,0.8052,5.66033333333333,-0.789,-0.042625,-0.69945,38.9925,9.38875,17.47225,130.104,0.8065,0.299,0.5449,2.256,-1.09,2.805,0.148,-0.74865,-0.39065,0.46905,-0.4575,0.3455,-0.5895,710.607666666667,1,1,1,1
24-May-2018 12:49:14,118.285714285714,0.89466,-0.0287,0.39186,0.197,-0.0338,0.8052,5.66033333333333,-0.789,-0.042625,-0.69945,38.9925,9.38875,17.47225,130.104,0.8065,0.299,0.5449,2.256,-1.09,2.805,0.148,-0.74865,-0.39065,0.46905,-0.4575,0.3455,-0.5895,710.607666666667,1,1,1,1
24-May-2018 12:49:14,118.285714285714,0.89466,-0.0287,0.39186,0.197,-0.0338,0.8052,5.66033333333333,-0.789,-0.042625,-0.69945,38.9925,9.38875,17.47225,130.104,0,0,0,2.256,-1.09,2.805,0,-0.74865,-0.39065,0.46905,-0.4575,0.3455,-0.5895,710.607666666667,1,1,1,1
24-May-2018 12:49:15,127.8,0.892,-0.0398571428571429,0.397628571428571,1.74228571428571,0.244428571428571,0.784285714285714,5.66175,-0.66722,-0.10864,-0.69414,2.936125,-13.53675,-13.85125,131.48775,0.8115,0.2899,0.5341,2.256,-1.09,2.805,0.112,-0.74295,-0.3799,0.478475,-1.35166666666667,-0.274333333333333,-0.5995,708.935,1,1,1,1
24-May-2018 12:49:15,127.8,0.892,-0.0398571428571429,0.397628571428571,1.74228571428571,0.244428571428571,0.784285714285714,5.66175,-0.66722,-0.10864,-0.69414,2.936125,-13.53675,-13.85125,131.48775,0.8115,0.2899,0.5341,2.256,-1.09,2.805,0.112,-0.74295,-0.3799,0.478475,-1.35166666666667,-0.274333333333333,-0.5995,708.935,1,1,1,1
24-May-2018 12:49:15,127.8,0.892,-0.0398571428571429,0.397628571428571,1.74228571428571,0.244428571428571,0.784285714285714,5.66175,-0.66722,-0.10864,-0.69414,2.936125,-13.53675,-13.85125,131.48775,0.8115,0.2899,0.5341,2.256,-1.09,2.805,0.112,-0.74295,-0.3799,0.478475,-1.35166666666667,-0.274333333333333,-0.5995,708.935,1,1,1,1
24-May-2018 12:49:15,127.8,0.892,-0.0398571428571429,0.397628571428571,1.74228571428571,0.244428571428571,0.784285714285714,5.66175,-0.66722,-0.10864,-0.69414,2.936125,-13.53675,-13.85125,131.48775,0.8115,0.2899,0.5341,0,0,0,0.112,-0.74295,-0.3799,0.478475,-1.35166666666667,-0.274333333333333,-0.5995,708.935,1,1,1,1
24-May-2018 12:49:16,179.111111111111,0.895133333333333,-0.0373666666666667,0.392633333333333,0.2224,-0.6058,-0.0714,5.664,-0.77992,-0.08716,-0.7553,-5.5725,3.48875,-28.5,131.949,0.8115,0.2899,0.5341,-1.46,-2.8,0.61,0.112,-0.740116666666667,-0.386783333333333,0.481266666666667,1.60583333333333,1.2195,-0.721666666666667,716.595333333333,1,1,1,1
24-May-2018 12:49:16,179.111111111111,0.895133333333333,-0.0373666666666667,0.392633333333333,0.2224,-0.6058,-0.0714,5.664,-0.77992,-0.08716,-0.7553,-5.5725,3.48875,-28.5,131.949,0.8115,0.2899,0.5341,-1.46,-2.8,0.61,0.112,-0.740116666666667,-0.386783333333333,0.481266666666667,1.60583333333333,1.2195,-0.721666666666667,716.595333333333,1,1,1,1
24-May-2018 12:49:16,179.111111111111,0.895133333333333,-0.0373666666666667,0.392633333333333,0.2224,-0.6058,-0.0714,5.664,-0.77992,-0.08716,-0.7553,-5.5725,3.48875,-28.5,131.949,0.8115,0.2899,0.5341,-1.46,-2.8,0.61,0.112,-0.740116666666667,-0.386783333333333,0.481266666666667,1.60583333333333,1.2195,-0.721666666666667,716.595333333333,1,1,1,1
24-May-2018 12:49:16,179.111111111111,0.895133333333333,-0.0373666666666667,0.392633333333333,0.2224,-0.6058,-0.0714,5.664,-0.77992,-0.08716,-0.7553,-5.5725,3.48875,-28.5,131.949,0,0,0,-1.46,-2.8,0.61,0,-0.740116666666667,-0.386783333333333,0.481266666666667,1.60583333333333,1.2195,-0.721666666666667,716.595333333333,1,1,1,1
24-May-2018 12:49:17,140,0.894957142857143,-0.0356285714285714,0.390671428571429,-0.56325,0.1925,-0.1345,5.649,-0.788533333333333,-0.2744,-0.769333333333333,10.3157142857143,33.0728571428572,-35.5428571428571,131.949,0.8212,0.2867,0.5183,-1.46,-2.8,0.61,0.112,-0.75176,-0.35752,0.4984,0.172833333333333,0.406333333333333,0.467666666666667,717.595666666667,1,1,1,1
24-May-2018 12:49:17,140,0.894957142857143,-0.0356285714285714,0.390671428571429,-0.56325,0.1925,-0.1345,5.649,-0.788533333333333,-0.2744,-0.769333333333333,10.3157142857143,33.0728571428572,-35.5428571428571,131.949,0.8212,0.2867,0.5183,-1.46,-2.8,0.61,0.112,-0.75176,-0.35752,0.4984,0.172833333333333,0.406333333333333,0.467666666666667,717.595666666667,1,1,1,1
24-May-2018 12:49:17,140,0.894957142857143,-0.0356285714285714,0.390671428571429,-0.56325,0.1925,-0.1345,5.649,-0.788533333333333,-0.2744,-0.769333333333333,10.3157142857143,33.0728571428572,-35.5428571428571,131.949,0.8212,0.2867,0.5183,-1.46,-2.8,0.61,0.112,-0.75176,-0.35752,0.4984,0.172833333333333,0.406333333333333,0.467666666666667,717.595666666667,1,1,1,1
24-May-2018 12:49:17,140,0.894957142857143,-0.0356285714285714,0.390671428571429,-0.56325,0.1925,-0.1345,5.649,-0.788533333333333,-0.2744,-0.769333333333333,10.3157142857143,33.0728571428572,-35.5428571428571,131.949,0.8212,0.2867,0.5183,0,0,0,0.112,-0.75176,-0.35752,0.4984,0.172833333333333,0.406333333333333,0.467666666666667,717.595666666667,1,1,1,1
24-May-2018 12:49:18,45.625,0.897057142857143,-0.0366285714285714,0.3839,0.153833333333333,0.307333333333333,0.327,5.67475,-0.68012,-0.322,-0.65636,-11.31,-8.41888888888889,-18.8533333333333,118.405,0.8212,0.2867,0.5183,-3.47,-2.74,-1.7,0.112,-0.753942857142857,-0.357342857142857,0.489828571428571,0.625,0.404,-0.464875,717.49,1,1,1,0
24-May-2018 12:49:18,45.625,0.897057142857143,-0.0366285714285714,0.3839,0.153833333333333,0.307333333333333,0.327,5.67475,-0.68012,-0.322,-0.65636,-11.31,-8.41888888888889,-18.8533333333333,118.405,0.8212,0.2867,0.5183,-3.47,-2.74,-1.7,0.112,-0.753942857142857,-0.357342857142857,0.489828571428571,0.625,0.404,-0.464875,717.49,1,1,1,0
24-May-2018 12:49:18,45.625,0.897057142857143,-0.0366285714285714,0.3839,0.153833333333333,0.307333333333333,0.327,5.67475,-0.68012,-0.322,-0.65636,-11.31,-8.41888888888889,-18.8533333333333,118.405,0.8212,0.2867,0.5183,-3.47,-2.74,-1.7,0.112,-0.753942857142857,-0.357342857142857,0.489828571428571,0.625,0.404,-0.464875,717.49,1,1,1,0
24-May-2018 12:49:18,45.625,0.897057142857143,-0.0366285714285714,0.3839,0.153833333333333,0.307333333333333,0.327,5.67475,-0.68012,-0.322,-0.65636,-11.31,-8.41888888888889,-18.8533333333333,118.405,0,0,0,-3.47,-2.74,-1.7,0.112,-0.753942857142857,-0.357342857142857,0.489828571428571,0.625,0.404,-0.464875,717.49,1,1,1,0
24-May-2018 12:49:19,-84.5,0.895885714285714,-0.0325428571428571,0.3883,0.733428571428571,0.0534285714285714,0.262,5.66266666666667,-0.6112,-0.335625,-0.692625,-2.68411111111111,-7.19333333333333,-15.2014444444444,118.405,0.82345,0.28855,0.51365,-3.47,-2.74,-1.7,0.112,-0.75258,-0.35202,0.49546,1.23475,0.2745,0.488,716.971,1,1,1,1
24-May-2018 12:49:19,-84.5,0.895885714285714,-0.0325428571428571,0.3883,0.733428571428571,0.0534285714285714,0.262,5.66266666666667,-0.6112,-0.335625,-0.692625,-2.68411111111111,-7.19333333333333,-15.2014444444444,118.405,0.82345,0.28855,0.51365,-3.47,-2.74,-1.7,0.112,-0.75258,-0.35202,0.49546,1.23475,0.2745,0.488,716.971,1,1,1,1
24-May-2018 12:49:19,-84.5,0.895885714285714,-0.0325428571428571,0.3883,0.733428571428571,0.0534285714285714,0.262,5.66266666666667,-0.6112,-0.335625,-0.692625,-2.68411111111111,-7.19333333333333,-15.2014444444444,118.405,0.82345,0.28855,0.51365,-3.47,-2.74,-1.7,0,-0.75258,-0.35202,0.49546,1.23475,0.2745,0.488,716.971,1,1,1,1
24-May-2018 12:49:19,-84.5,0.895885714285714,-0.0325428571428571,0.3883,0.733428571428571,0.0534285714285714,0.262,5.66266666666667,-0.6112,-0.335625,-0.692625,-2.68411111111111,-7.19333333333333,-15.2014444444444,118.405,0.82345,0.28855,0.51365,-3.47,-2.74,-1.7,0,-0.75258,-0.35202,0.49546,1.23475,0.2745,0.488,716.971,1,1,1,1
24-May-2018 12:49:20,-131.4,0.8967,-0.02955,0.387125,0.775285714285714,-0.00628571428571428,0.227142857142857,5.653,-0.61098,-0.3893,-0.69866,4.58333333333333,-11.873,23.8926666666667,118.405,0.82185,0.28215,0.51365,-3.47,-2.74,-1.7,0.13,-0.7565,-0.35195,0.494333333333333,-0.670666666666667,0.995833333333333,-0.396333333333333,717.446,1,1,1,1
24-May-2018 12:49:20,-131.4,0.8967,-0.02955,0.387125,0.775285714285714,-0.00628571428571428,0.227142857142857,5.653,-0.61098,-0.3893,-0.69866,4.58333333333333,-11.873,23.8926666666667,118.405,0.82185,0.28215,0.51365,-3.47,-2.74,-1.7,0.13,-0.7565,-0.35195,0.494333333333333,-0.670666666666667,0.995833333333333,-0.396333333333333,717.446,1,1,1,1
24-May-2018 12:49:20,-131.4,0.8967,-0.02955,0.387125,0.775285714285714,-0.00628571428571428,0.227142857142857,5.653,-0.61098,-0.3893,-0.69866,4.58333333333333,-11.873,23.8926666666667,118.405,0.82185,0.28215,0.51365,0,0,0,0.13,-0.7565,-0.35195,0.494333333333333,-0.670666666666667,0.995833333333333,-0.396333333333333,717.446,1,1,1,1
24-May-2018 12:49:20,-131.4,0.8967,-0.02955,0.387125,0.775285714285714,-0.00628571428571428,0.227142857142857,5.653,-0.61098,-0.3893,-0.69866,4.58333333333333,-11.873,23.8926666666667,118.405,0.82185,0.28215,0.51365,0,0,0,0.13,-0.7565,-0.35195,0.494333333333333,-0.670666666666667,0.995833333333333,-0.396333333333333,717.446,1,1,1,1
24-May-2018 12:49:21,-62.2222222222222,0.8960875,-0.0313625,0.385875,1.030625,0.214375,0.602375,5.653,-0.80135,-0.239275,-0.821925,-18.692,-26.4522222222222,65.5311111111111,117.011,0.82185,0.28215,0.51365,0.61,0.001,0.2135,0.126,-0.757,-0.353075,0.490375,-0.000166666666666722,0.213333333333333,-0.538666666666667,718.073333333333,1,1,1,1
24-May-2018 12:49:21,-62.2222222222222,0.8960875,-0.0313625,0.385875,1.030625,0.214375,0.602375,5.653,-0.80135,-0.239275,-0.821925,-18.692,-26.4522222222222,65.5311111111111,117.011,0.82185,0.28215,0.51365,0.61,0.001,0.2135,0.126,-0.757,-0.353075,0.490375,-0.000166666666666722,0.213333333333333,-0.538666666666667,718.073333333333,1,1,1,1
24-May-2018 12:49:21,-62.2222222222222,0.8960875,-0.0313625,0.385875,1.030625,0.214375,0.602375,5.653,-0.80135,-0.239275,-0.821925,-18.692,-26.4522222222222,65.5311111111111,117.011,0.82185,0.28215,0.51365,0.61,0.001,0.2135,0.126,-0.757,-0.353075,0.490375,-0.000166666666666722,0.213333333333333,-0.538666666666667,718.073333333333,1,1,1,1
24-May-2018 12:49:21,-62.2222222222222,0.8960875,-0.0313625,0.385875,1.030625,0.214375,0.602375,5.653,-0.80135,-0.239275,-0.821925,-18.692,-26.4522222222222,65.5311111111111,117.011,0.82185,0.28215,0.51365,0.61,0.001,0.2135,0.126,-0.757,-0.353075,0.490375,-0.000166666666666722,0.213333333333333,-0.538666666666667,718.073333333333,1,1,1,1
24-May-2018 12:49:22,-27.4285714285714,0.89485,-0.0339,0.388625,0.088,-0.0342,0.3904,5.653,-0.86125,-0.07795,-0.6484,-31.325,1.3425,14.63075,117.011,0.82185,0.28215,0.51365,-0.608,-1.855,-0.3645,0.112,-0.752866666666667,-0.350033333333333,0.490333333333333,1.997,0.70125,-0.27425,720.957,1,1,1,1
24-May-2018 12:49:22,-27.4285714285714,0.89485,-0.0339,0.388625,0.088,-0.0342,0.3904,5.653,-0.86125,-0.07795,-0.6484,-31.325,1.3425,14.63075,117.011,0.82185,0.28215,0.51365,-0.608,-1.855,-0.3645,0.112,-0.752866666666667,-0.350033333333333,0.490333333333333,1.997,0.70125,-0.27425,720.957,1,1,1,1
24-May-2018 12:49:22,-27.4285714285714,0.89485,-0.0339,0.388625,0.088,-0.0342,0.3904,5.653,-0.86125,-0.07795,-0.6484,-31.325,1.3425,14.63075,117.011,0,0,0,-0.608,-1.855,-0.3645,0.112,-0.752866666666667,-0.350033333333333,0.490333333333333,1.997,0.70125,-0.27425,720.957,1,1,1,1
24-May-2018 12:49:22,-27.4285714285714,0.89485,-0.0339,0.388625,0.088,-0.0342,0.3904,5.653,-0.86125,-0.07795,-0.6484,-31.325,1.3425,14.63075,117.011,0,0,0,-0.608,-1.855,-0.3645,0.112,-0.752866666666667,-0.350033333333333,0.490333333333333,1.997,0.70125,-0.27425,720.957,1,1,1,1
24-May-2018 12:49:23,93.5714285714286,0.897425,-0.032775,0.3854625,1.07733333333333,-0.0922222222222222,0.325333333333333,5.653,-0.8517,0.06098,-0.548,16.3777777777778,-18.1406666666667,28.9566666666667,117.011,0.819,0.274,0.531,-0.608,-1.855,-0.3645,0.118,-0.75848,-0.33942,0.49286,-0.182833333333333,0.426833333333333,0.274166666666667,717.707,1,1,1,1
24-May-2018 12:49:23,93.5714285714286,0.897425,-0.032775,0.3854625,1.07733333333333,-0.0922222222222222,0.325333333333333,5.653,-0.8517,0.06098,-0.548,16.3777777777778,-18.1406666666667,28.9566666666667,117.011,0.819,0.274,0.531,-0.608,-1.855,-0.3645,0.118,-0.75848,-0.33942,0.49286,-0.182833333333333,0.426833333333333,0.274166666666667,717.707,1,1,1,1
24-May-2018 12:49:23,93.5714285714286,0.897425,-0.032775,0.3854625,1.07733333333333,-0.0922222222222222,0.325333333333333,5.653,-0.8517,0.06098,-0.548,16.3777777777778,-18.1406666666667,28.9566666666667,117.011,0.819,0.274,0.531,-0.608,-1.855,-0.3645,0.118,-0.75848,-0.33942,0.49286,-0.182833333333333,0.426833333333333,0.274166666666667,717.707,1,1,1,1
24-May-2018 12:49:23,93.5714285714286,0.897425,-0.032775,0.3854625,1.07733333333333,-0.0922222222222222,0.325333333333333,5.653,-0.8517,0.06098,-0.548,16.3777777777778,-18.1406666666667,28.9566666666667,117.011,0.819,0.274,0.531,0,0,0,0.118,-0.75848,-0.33942,0.49286,-0.182833333333333,0.426833333333333,0.274166666666667,717.707,1,1,1,1
24-May-2018 12:49:24,58,0.897885714285714,-0.0292857142857143,0.386585714285714,0.123166666666667,0.336166666666667,0.082,5.7045,-0.783675,0.004725,-0.559275,31.3777777777778,-15.6257777777778,20.3811111111111,97.851,0.8133,0.27905,0.53355,0.793,-2.43,-0.06,0.118,-0.759875,-0.3407625,0.4940125,0.701,0.16775,-0.861375,717.889,1,1,1,1
24-May-2018 12:49:24,58,0.897885714285714,-0.0292857142857143,0.386585714285714,0.123166666666667,0.336166666666667,0.082,5.7045,-0.783675,0.004725,-0.559275,31.3777777777778,-15.6257777777778,20.3811111111111,97.851,0.8133,0.27905,0.53355,0.793,-2.43,-0.06,0.118,-0.759875,-0.3407625,0.4940125,0.701,0.16775,-0.861375,717.889,1,1,1,1
24-May-2018 12:49:24,58,0.897885714285714,-0.0292857142857143,0.386585714285714,0.123166666666667,0.336166666666667,0.082,5.7045,-0.783675,0.004725,-0.559275,31.3777777777778,-15.6257777777778,20.3811111111111,97.851,0.8133,0.27905,0.53355,0.793,-2.43,-0.06,0.118,-0.759875,-0.3407625,0.4940125,0.701,0.16775,-0.861375,717.889,1,1,1,1
24-May-2018 12:49:24,58,0.897885714285714,-0.0292857142857143,0.386585714285714,0.123166666666667,0.336166666666667,0.082,5.7045,-0.783675,0.004725,-0.559275,31.3777777777778,-15.6257777777778,20.3811111111111,97.851,0.8133,0.27905,0.53355,0.793,-2.43,-0.06,0,-0.759875,-0.3407625,0.4940125,0.701,0.16775,-0.861375,717.889,1,1,1,1
24-May-2018 12:49:25,164.833333333333,0.896316666666667,-0.0283166666666667,0.387033333333333,0.3165,-0.333166666666667,0.427,5.7024,-0.8248,0.0338,-0.562475,-20.17225,-6.152,-5.043125,88.271,0.8156,0.2716,0.5425,-0.5175,-1.155,-0.514,0.118,-0.75408,-0.3474,0.50572,-0.1828,-0.7438,0.2684,720.773333333333,1,1,1,0
24-May-2018 12:49:25,164.833333333333,0.896316666666667,-0.0283166666666667,0.387033333333333,0.3165,-0.333166666666667,0.427,5.7024,-0.8248,0.0338,-0.562475,-20.17225,-6.152,-5.043125,88.271,0.8156,0.2716,0.5425,-0.5175,-1.155,-0.514,0.118,-0.75408,-0.3474,0.50572,-0.1828,-0.7438,0.2684,720.773333333333,1,1,1,0
24-May-2018 12:49:25,164.833333333333,0.896316666666667,-0.0283166666666667,0.387033333333333,0.3165,-0.333166666666667,0.427,5.7024,-0.8248,0.0338,-0.562475,-20.17225,-6.152,-5.043125,88.271,0.8156,0.2716,0.5425,-0.5175,-1.155,-0.514,0.118,-0.75408,-0.3474,0.50572,-0.1828,-0.7438,0.2684,720.773333333333,1,1,1,0
24-May-2018 12:49:25,164.833333333333,0.896316666666667,-0.0283166666666667,0.387033333333333,0.3165,-0.333166666666667,0.427,5.7024,-0.8248,0.0338,-0.562475,-20.17225,-6.152,-5.043125,88.271,0.8156,0.2716,0.5425,-0.5175,-1.155,-0.514,0.118,-0.75408,-0.3474,0.50572,-0.1828,-0.7438,0.2684,720.773333333333,1,1,1,0
24-May-2018 12:49:26,132,0.898785714285714,-0.0319428571428571,0.378185714285714,1.70733333333333,-0.515,0.823333333333333,5.727,-1.01078,0.026,-0.6601,14.3328,25.3529,-13.0355,88.271,0.815333333333333,0.274466666666667,0.536233333333333,-0.97,-2.31,-0.54,0.122,-0.744733333333333,-0.354766666666667,0.508633333333333,-1.1462,0.4392,-0.0854,723.541,1,1,1,1
24-May-2018 12:49:26,132,0.898785714285714,-0.0319428571428571,0.378185714285714,1.70733333333333,-0.515,0.823333333333333,5.727,-1.01078,0.026,-0.6601,14.3328,25.3529,-13.0355,88.271,0.815333333333333,0.274466666666667,0.536233333333333,-0.97,-2.31,-0.54,0.122,-0.744733333333333,-0.354766666666667,0.508633333333333,-1.1462,0.4392,-0.0854,723.541,1,1,1,1
24-May-2018 12:49:26,132,0.898785714285714,-0.0319428571428571,0.378185714285714,1.70733333333333,-0.515,0.823333333333333,5.727,-1.01078,0.026,-0.6601,14.3328,25.3529,-13.0355,88.271,0.815333333333333,0.274466666666667,0.536233333333333,-0.97,-2.31,-0.54,0.122,-0.744733333333333,-0.354766666666667,0.508633333333333,-1.1462,0.4392,-0.0854,723.541,1,1,1,1
24-May-2018 12:49:26,132,0.898785714285714,-0.0319428571428571,0.378185714285714,1.70733333333333,-0.515,0.823333333333333,5.727,-1.01078,0.026,-0.6601,14.3328,25.3529,-13.0355,88.271,0.815333333333333,0.274466666666667,0.536233333333333,-0.97,-2.31,-0.54,0.122,-0.744733333333333,-0.354766666666667,0.508633333333333,-1.1462,0.4392,-0.0854,723.541,1,1,1,1
24-May-2018 12:49:27,111.142857142857,0.898028571428571,-0.0347,0.380885714285714,0.455714285714286,-0.119714285714286,0.175714285714286,5.724,-0.82945,-0.07455,-0.45205,9.899375,18.90025,-0.431125,82.193,0.815333333333333,0.274466666666667,0.536233333333333,-0.97,-2.31,-0.54,0.13,-0.717785714285714,-0.484114285714286,0.418914285714286,-35.2798,-1.0732,-5.7072,714.927,1,1,1,0
24-May-2018 12:49:27,111.142857142857,0.898028571428571,-0.0347,0.380885714285714,0.455714285714286,-0.119714285714286,0.175714285714286,5.724,-0.82945,-0.07455,-0.45205,9.899375,18.90025,-0.431125,82.193,0.815333333333333,0.274466666666667,0.536233333333333,-0.97,-2.31,-0.54,0.13,-0.717785714285714,-0.484114285714286,0.418914285714286,-35.2798,-1.0732,-5.7072,714.927,1,1,1,0
24-May-2018 12:49:27,111.142857142857,0.898028571428571,-0.0347,0.380885714285714,0.455714285714286,-0.119714285714286,0.175714285714286,5.724,-0.82945,-0.07455,-0.45205,9.899375,18.90025,-0.431125,82.193,0.815333333333333,0.274466666666667,0.536233333333333,-0.97,-2.31,-0.54,0.13,-0.717785714285714,-0.484114285714286,0.418914285714286,-35.2798,-1.0732,-5.7072,714.927,1,1,1,0
24-May-2018 12:49:27,111.142857142857,0.898028571428571,-0.0347,0.380885714285714,0.455714285714286,-0.119714285714286,0.175714285714286,5.724,-0.82945,-0.07455,-0.45205,9.899375,18.90025,-0.431125,82.193,0.815333333333333,0.274466666666667,0.536233333333333,0,0,0,0.13,-0.717785714285714,-0.484114285714286,0.418914285714286,-35.2798,-1.0732,-5.7072,714.927,1,1,1,0
24-May-2018 12:49:28,101.4,0.894842857142857,-0.0305,0.389185714285714,-0.47675,0.350875,0.17775,5.63866666666667,-0.81604,-0.04594,-0.58428,19.3631,-3.8246,23.368,80.167,0.815333333333333,0.274466666666667,0.536233333333333,-0.605,-0.515,-0.45,0.13,-0.7166,-0.432428571428571,0.479242857142857,3.14025,0.442,-0.823,716.237,1,1,1,1
24-May-2018 12:49:28,101.4,0.894842857142857,-0.0305,0.389185714285714,-0.47675,0.350875,0.17775,5.63866666666667,-0.81604,-0.04594,-0.58428,19.3631,-3.8246,23.368,80.167,0.815333333333333,0.274466666666667,0.536233333333333,-0.605,-0.515,-0.45,0.13,-0.7166,-0.432428571428571,0.479242857142857,3.14025,0.442,-0.823,716.237,1,1,1,1
24-May-2018 12:49:28,101.4,0.894842857142857,-0.0305,0.389185714285714,-0.47675,0.350875,0.17775,5.63866666666667,-0.81604,-0.04594,-0.58428,19.3631,-3.8246,23.368,80.167,0.815333333333333,0.274466666666667,0.536233333333333,-0.605,-0.515,-0.45,0.13,-0.7166,-0.432428571428571,0.479242857142857,3.14025,0.442,-0.823,716.237,1,1,1,1
24-May-2018 12:49:28,101.4,0.894842857142857,-0.0305,0.389185714285714,-0.47675,0.350875,0.17775,5.63866666666667,-0.81604,-0.04594,-0.58428,19.3631,-3.8246,23.368,80.167,0.815333333333333,0.274466666666667,0.536233333333333,-0.605,-0.515,-0.45,0.13,-0.7166,-0.432428571428571,0.479242857142857,3.14025,0.442,-0.823,716.237,1,1,1,1
24-May-2018 12:49:29,-60.1111111111111,0.898385714285714,-0.0281285714285714,0.384842857142857,2.431,-0.182142857142857,1.11514285714286,5.593,-0.769875,-0.098175,-0.649825,78.89,10.51675,48.07375,82.2356,0.815333333333333,0.274466666666667,0.536233333333333,-0.48,-0.79,-0.06,0.13,-0.7144,-0.42855,0.49725,1.9756,-0.0244,-0.0244,717.223,1,1,1,0
24-May-2018 12:49:29,-60.1111111111111,0.898385714285714,-0.0281285714285714,0.384842857142857,2.431,-0.182142857142857,1.11514285714286,5.593,-0.769875,-0.098175,-0.649825,78.89,10.51675,48.07375,82.2356,0.815333333333333,0.274466666666667,0.536233333333333,-0.48,-0.79,-0.06,0.13,-0.7144,-0.42855,0.49725,1.9756,-0.0244,-0.0244,717.223,1,1,1,0
24-May-2018 12:49:29,-60.1111111111111,0.898385714285714,-0.0281285714285714,0.384842857142857,2.431,-0.182142857142857,1.11514285714286,5.593,-0.769875,-0.098175,-0.649825,78.89,10.51675,48.07375,82.2356,0.815333333333333,0.274466666666667,0.536233333333333,-0.48,-0.79,-0.06,0.13,-0.7144,-0.42855,0.49725,1.9756,-0.0244,-0.0244,717.223,1,1,1,0
24-May-2018 12:49:29,-60.1111111111111,0.898385714285714,-0.0281285714285714,0.384842857142857,2.431,-0.182142857142857,1.11514285714286,5.593,-0.769875,-0.098175,-0.649825,78.89,10.51675,48.07375,82.2356,0.815333333333333,0.274466666666667,0.536233333333333,-0.48,-0.79,-0.06,0.13,-0.7144,-0.42855,0.49725,1.9756,-0.0244,-0.0244,717.223,1,1,1,0
24-May-2018 12:49:30,-8.42857142857143,0.899175,-0.036025,0.375975,0.68675,0.03325,0.5185,5.807,-0.857033333333333,0.0705,-0.687933333333333,42.8085714285714,3.76242857142857,82.8557142857143,90.51,0.8181,0.271,0.5338,-0.18,-2.13,-0.61,0.13,-0.714533333333333,-0.4301,0.49275,0.0609999999999999,0.325333333333333,-0.752333333333333,717.223,1,1,1,0
24-May-2018 12:49:30,-8.42857142857143,0.899175,-0.036025,0.375975,0.68675,0.03325,0.5185,5.807,-0.857033333333333,0.0705,-0.687933333333333,42.8085714285714,3.76242857142857,82.8557142857143,90.51,0.8181,0.271,0.5338,-0.18,-2.13,-0.61,0.13,-0.714533333333333,-0.4301,0.49275,0.0609999999999999,0.325333333333333,-0.752333333333333,717.223,1,1,1,0
24-May-2018 12:49:30,-8.42857142857143,0.899175,-0.036025,0.375975,0.68675,0.03325,0.5185,5.807,-0.857033333333333,0.0705,-0.687933333333333,42.8085714285714,3.76242857142857,82.8557142857143,90.51,0.8181,0.271,0.5338,-0.18,-2.13,-0.61,0.13,-0.714533333333333,-0.4301,0.49275,0.0609999999999999,0.325333333333333,-0.752333333333333,717.223,1,1,1,0
24-May-2018 12:49:30,-8.42857142857143,0.899175,-0.036025,0.375975,0.68675,0.03325,0.5185,5.807,-0.857033333333333,0.0705,-0.687933333333333,42.8085714285714,3.76242857142857,82.8557142857143,90.51,0.8181,0.271,0.5338,-0.18,-2.13,-0.61,0.13,-0.714533333333333,-0.4301,0.49275,0.0609999999999999,0.325333333333333,-0.752333333333333,0,1,1,1,0
24-May-2018 12:49:31,110.8,0.900228571428571,-0.0343285714285714,0.3783,0.037,0.0451428571428571,-0.0751428571428572,5.807,-0.761125,0.338475,-0.58245,21.1966666666667,-17.6033333333333,70.555,90.51,0.8181,0.271,0.5338,-1.17,-0.95725,-0.8025,0.124,-0.71882,-0.43096,0.4901,0.01,0.6605,-0.183,716.614333333333,1,1,1,1
24-May-2018 12:49:31,110.8,0.900228571428571,-0.0343285714285714,0.3783,0.037,0.0451428571428571,-0.0751428571428572,5.807,-0.761125,0.338475,-0.58245,21.1966666666667,-17.6033333333333,70.555,90.51,0.8181,0.271,0.5338,-1.17,-0.95725,-0.8025,0.124,-0.71882,-0.43096,0.4901,0.01,0.6605,-0.183,716.614333333333,1,1,1,1
24-May-2018 12:49:31,110.8,0.900228571428571,-0.0343285714285714,0.3783,0.037,0.0451428571428571,-0.0751428571428572,5.807,-0.761125,0.338475,-0.58245,21.1966666666667,-17.6033333333333,70.555,90.51,0.8181,0.271,0.5338,-1.17,-0.95725,-0.8025,0.124,-0.71882,-0.43096,0.4901,0.01,0.6605,-0.183,716.614333333333,1,1,1,1
24-May-2018 12:49:31,110.8,0.900228571428571,-0.0343285714285714,0.3783,0.037,0.0451428571428571,-0.0751428571428572,5.807,-0.761125,0.338475,-0.58245,21.1966666666667,-17.6033333333333,70.555,90.51,0,0,0,-1.17,-0.95725,-0.8025,0.124,-0.71882,-0.43096,0.4901,0.01,0.6605,-0.183,716.614333333333,1,1,1,1
24-May-2018 12:49:32,47.625,0.90065,-0.0265375,0.379525,0.0433333333333334,0.144444444444444,0.197444444444444,5.807,-0.800766666666667,0.364933333333333,-0.626066666666667,81.4242857142857,-21.7714285714286,79.3257142857143,102.861666666667,0.81395,0.2738,0.5355,1.22,0.122,1.098,0.1,-0.7226875,-0.4205125,0.4883625,0.752,0.243833333333333,1.9715,714.93,1,1,1,0
24-May-2018 12:49:32,47.625,0.90065,-0.0265375,0.379525,0.0433333333333334,0.144444444444444,0.197444444444444,5.807,-0.800766666666667,0.364933333333333,-0.626066666666667,81.4242857142857,-21.7714285714286,79.3257142857143,102.861666666667,0.81395,0.2738,0.5355,1.22,0.122,1.098,0.1,-0.7226875,-0.4205125,0.4883625,0.752,0.243833333333333,1.9715,714.93,1,1,1,0
24-May-2018 12:49:32,47.625,0.90065,-0.0265375,0.379525,0.0433333333333334,0.144444444444444,0.197444444444444,5.807,-0.800766666666667,0.364933333333333,-0.626066666666667,81.4242857142857,-21.7714285714286,79.3257142857143,102.861666666667,0.81395,0.2738,0.5355,1.22,0.122,1.098,0.1,-0.7226875,-0.4205125,0.4883625,0.752,0.243833333333333,1.9715,714.93,1,1,1,0
24-May-2018 12:49:32,47.625,0.90065,-0.0265375,0.379525,0.0433333333333334,0.144444444444444,0.197444444444444,5.807,-0.800766666666667,0.364933333333333,-0.626066666666667,81.4242857142857,-21.7714285714286,79.3257142857143,102.861666666667,0.81395,0.2738,0.5355,1.22,0.122,1.098,0.1,-0.7226875,-0.4205125,0.4883625,0.752,0.243833333333333,1.9715,714.93,1,1,1,0
24-May-2018 12:49:33,132,0.902322222222222,-0.0325555555555556,0.3714,1.55844444444444,-0.248,0.792777777777778,5.807,-0.809925,0.248175,-0.6449,108.309090909091,-16.0523636363636,58.1281818181818,127.565,0.8096,0.2656,0.54565,-1.11333333333333,-1.297,-0.484666666666667,0.159,-0.72355,-0.41975,0.469925,-0.0871428571428572,0.81,0.670857142857143,715.93675,1,1,1,0
24-May-2018 12:49:33,132,0.902322222222222,-0.0325555555555556,0.3714,1.55844444444444,-0.248,0.792777777777778,5.807,-0.809925,0.248175,-0.6449,108.309090909091,-16.0523636363636,58.1281818181818,127.565,0.8096,0.2656,0.54565,-1.11333333333333,-1.297,-0.484666666666667,0.159,-0.72355,-0.41975,0.469925,-0.0871428571428572,0.81,0.670857142857143,715.93675,1,1,1,0
24-May-2018 12:49:33,132,0.902322222222222,-0.0325555555555556,0.3714,1.55844444444444,-0.248,0.792777777777778,5.807,-0.809925,0.248175,-0.6449,108.309090909091,-16.0523636363636,58.1281818181818,127.565,0.8096,0.2656,0.54565,-1.11333333333333,-1.297,-0.484666666666667,0.159,-0.72355,-0.41975,0.469925,-0.0871428571428572,0.81,0.670857142857143,715.93675,1,1,1,0
24-May-2018 12:49:33,132,0.902322222222222,-0.0325555555555556,0.3714,1.55844444444444,-0.248,0.792777777777778,5.807,-0.809925,0.248175,-0.6449,108.309090909091,-16.0523636363636,58.1281818181818,127.565,0.8096,0.2656,0.54565,-1.11333333333333,-1.297,-0.484666666666667,0.159,-0.72355,-0.41975,0.469925,-0.0871428571428572,0.81,0.670857142857143,715.93675,1,1,1,0
24-May-2018 12:49:34,-2,0.902571428571428,-0.0293571428571429,0.371414285714286,-0.823714285714286,0.349142857142857,-0.155571428571429,5.775,-0.779116666666667,0.0907333333333333,-0.656183333333333,52.0477777777778,6.36155555555556,33.9988888888889,132.165,0.81315,0.27555,0.53915,-1.58,-5,-0.91,0.148,-0.739042857142857,-0.3977,0.487742857142857,1.631,1.77625,0.015125,715.93675,1,1,1,1
24-May-2018 12:49:34,-2,0.902571428571428,-0.0293571428571429,0.371414285714286,-0.823714285714286,0.349142857142857,-0.155571428571429,5.775,-0.779116666666667,0.0907333333333333,-0.656183333333333,52.0477777777778,6.36155555555556,33.9988888888889,132.165,0.81315,0.27555,0.53915,-1.58,-5,-0.91,0.148,-0.739042857142857,-0.3977,0.487742857142857,1.631,1.77625,0.015125,715.93675,1,1,1,1
24-May-2018 12:49:34,-2,0.902571428571428,-0.0293571428571429,0.371414285714286,-0.823714285714286,0.349142857142857,-0.155571428571429,5.775,-0.779116666666667,0.0907333333333333,-0.656183333333333,52.0477777777778,6.36155555555556,33.9988888888889,132.165,0.81315,0.27555,0.53915,-1.58,-5,-0.91,0.148,-0.739042857142857,-0.3977,0.487742857142857,1.631,1.77625,0.015125,715.93675,1,1,1,1
24-May-2018 12:49:34,-2,0.902571428571428,-0.0293571428571429,0.371414285714286,-0.823714285714286,0.349142857142857,-0.155571428571429,5.775,-0.779116666666667,0.0907333333333333,-0.656183333333333,52.0477777777778,6.36155555555556,33.9988888888889,132.165,0.81315,0.27555,0.53915,-1.58,-5,-0.91,0.148,-0.739042857142857,-0.3977,0.487742857142857,1.631,1.77625,0.015125,0,1,1,1,1
24-May-2018 12:49:35,-95.1,0.900033333333333,-0.0299833333333333,0.375116666666667,0.863833333333333,0.6315,0.711666666666667,5.74516666666667,-0.8226,0.00774,-0.61818,68.3766666666667,-10.5442222222222,34.9544444444444,132.165,0.8132,0.2707,0.539,-0.48,0.366,1.524,0.148,-0.73518,-0.41292,0.47382,1.594,1.35028571428571,-1.42842857142857,714.61,1,1,1,1
24-May-2018 12:49:35,-95.1,0.900033333333333,-0.0299833333333333,0.375116666666667,0.863833333333333,0.6315,0.711666666666667,5.74516666666667,-0.8226,0.00774,-0.61818,68.3766666666667,-10.5442222222222,34.9544444444444,132.165,0.8132,0.2707,0.539,-0.48,0.366,1.524,0.148,-0.73518,-0.41292,0.47382,1.594,1.35028571428571,-1.42842857142857,714.61,1,1,1,1
24-May-2018 12:49:35,-95.1,0.900033333333333,-0.0299833333333333,0.375116666666667,0.863833333333333,0.6315,0.711666666666667,5.74516666666667,-0.8226,0.00774,-0.61818,68.3766666666667,-10.5442222222222,34.9544444444444,132.165,0.8132,0.2707,0.539,-0.48,0.366,1.524,0.148,-0.73518,-0.41292,0.47382,1.594,1.35028571428571,-1.42842857142857,714.61,1,1,1,1
24-May-2018 12:49:35,-95.1,0.900033333333333,-0.0299833333333333,0.375116666666667,0.863833333333333,0.6315,0.711666666666667,5.74516666666667,-0.8226,0.00774,-0.61818,68.3766666666667,-10.5442222222222,34.9544444444444,132.165,0.8132,0.2707,0.539,-0.48,0.366,1.524,0,-0.73518,-0.41292,0.47382,1.594,1.35028571428571,-1.42842857142857,714.61,1,1,1,1
24-May-2018 12:49:36,-289.571428571429,0.899514285714286,-0.0314285714285714,0.385371428571429,-0.753142857142857,0.750142857142857,-0.521,5.74733333333333,-0.8227,-0.04886,-0.63142,63.16,-10.6633333333333,40.4033333333333,135.964,0.8132,0.2707,0.539,-0.637,-0.575,0.307,0.13,-0.7333,-0.430642857142857,0.4761,-0.130571428571429,1.04542857142857,0.182857142857143,714.61,1,1,1,1
24-May-2018 12:49:36,-289.571428571429,0.899514285714286,-0.0314285714285714,0.385371428571429,-0.753142857142857,0.750142857142857,-0.521,5.74733333333333,-0.8227,-0.04886,-0.63142,63.16,-10.6633333333333,40.4033333333333,135.964,0.8132,0.2707,0.539,-0.637,-0.575,0.307,0.13,-0.7333,-0.430642857142857,0.4761,-0.130571428571429,1.04542857142857,0.182857142857143,714.61,1,1,1,1
24-May-2018 12:49:36,-289.571428571429,0.899514285714286,-0.0314285714285714,0.385371428571429,-0.753142857142857,0.750142857142857,-0.521,5.74733333333333,-0.8227,-0.04886,-0.63142,63.16,-10.6633333333333,40.4033333333333,135.964,0.8132,0.2707,0.539,-0.637,-0.575,0.307,0.13,-0.7333,-0.430642857142857,0.4761,-0.130571428571429,1.04542857142857,0.182857142857143,714.61,1,1,1,1
24-May-2018 12:49:36,-289.571428571429,0.899514285714286,-0.0314285714285714,0.385371428571429,-0.753142857142857,0.750142857142857,-0.521,5.74733333333333,-0.8227,-0.04886,-0.63142,63.16,-10.6633333333333,40.4033333333333,135.964,0,0,0,-0.637,-0.575,0.307,0.13,-0.7333,-0.430642857142857,0.4761,-0.130571428571429,1.04542857142857,0.182857142857143,0,1,1,1,1
24-May-2018 12:49:37,-621.111111111111,0.893228571428571,-0.0311571428571429,0.395171428571429,0.7015,0.835166666666667,-0.0278333333333333,5.761,-0.8207,-0.04345,-0.6416,50.1266666666667,-9.77333333333333,36.7133333333333,135.964,0.81325,0.26205,0.545,-1,-1.155,0.2135,0.118,-0.7315,-0.408633333333333,0.4865,1.8395,-0.203166666666667,-1.07716666666667,712.6175,1,1,1,1
24-May-2018 12:49:37,-621.111111111111,0.893228571428571,-0.0311571428571429,0.395171428571429,0.7015,0.835166666666667,-0.0278333333333333,5.761,-0.8207,-0.04345,-0.6416,50.1266666666667,-9.77333333333333,36.7133333333333,135.964,0.81325,0.26205,0.545,-1,-1.155,0.2135,0.118,-0.7315,-0.408633333333333,0.4865,1.8395,-0.203166666666667,-1.07716666666667,712.6175,1,1,1,1
24-May-2018 12:49:37,-621.111111111111,0.893228571428571,-0.0311571428571429,0.395171428571429,0.7015,0.835166666666667,-0.0278333333333333,5.761,-0.8207,-0.04345,-0.6416,50.1266666666667,-9.77333333333333,36.7133333333333,135.964,0.81325,0.26205,0.545,-1,-1.155,0.2135,0.118,-0.7315,-0.408633333333333,0.4865,1.8395,-0.203166666666667,-1.07716666666667,712.6175,1,1,1,1
24-May-2018 12:49:37,-621.111111111111,0.893228571428571,-0.0311571428571429,0.395171428571429,0.7015,0.835166666666667,-0.0278333333333333,5.761,-0.8207,-0.04345,-0.6416,50.1266666666667,-9.77333333333333,36.7133333333333,135.964,0.81325,0.26205,0.545,-1,-1.155,0.2135,0.118,-0.7315,-0.408633333333333,0.4865,1.8395,-0.203166666666667,-1.07716666666667,712.6175,1,1,1,1
24-May-2018 12:49:38,-413.7,0.896783333333333,-0.0412,0.385833333333333,-0.120875,-0.0131249999999999,0.75575,5.85033333333333,-0.8035,-0.02384,-0.6463,38.9044444444444,-1.28933333333333,36.08,135.964,0.8179,0.2604,0.5456,0.854,-1.82,0.244,0.115,-0.739633333333333,-0.404133333333333,0.502766666666667,-0.97575,0.5945,-1.4635,722.46025,1,1,1,1
24-May-2018 12:49:38,-413.7,0.896783333333333,-0.0412,0.385833333333333,-0.120875,-0.0131249999999999,0.75575,5.85033333333333,-0.8035,-0.02384,-0.6463,38.9044444444444,-1.28933333333333,36.08,135.964,0.8179,0.2604,0.5456,0.854,-1.82,0.244,0.115,-0.739633333333333,-0.404133333333333,0.502766666666667,-0.97575,0.5945,-1.4635,722.46025,1,1,1,1
24-May-2018 12:49:38,-413.7,0.896783333333333,-0.0412,0.385833333333333,-0.120875,-0.0131249999999999,0.75575,5.85033333333333,-0.8035,-0.02384,-0.6463,38.9044444444444,-1.28933333333333,36.08,135.964,0.8179,0.2604,0.5456,0.854,-1.82,0.244,0.115,-0.739633333333333,-0.404133333333333,0.502766666666667,-0.97575,0.5945,-1.4635,722.46025,1,1,1,1
24-May-2018 12:49:38,-413.7,0.896783333333333,-0.0412,0.385833333333333,-0.120875,-0.0131249999999999,0.75575,5.85033333333333,-0.8035,-0.02384,-0.6463,38.9044444444444,-1.28933333333333,36.08,135.964,0.8179,0.2604,0.5456,0.854,-1.82,0.244,0.115,-0.739633333333333,-0.404133333333333,0.502766666666667,-0.97575,0.5945,-1.4635,722.46025,1,1,1,1
24-May-2018 12:49:39,-91.4,0.8934,-0.0479333333333333,0.39525,1.40285714285714,0.627571428571429,0.437142857142857,5.98725,-0.80555,0.07595,-0.74665,-0.612222222222222,36.3043333333333,61.0988888888889,121.708,0.81116,0.26642,0.54784,1.5545,0.183,0.427,0.148,-0.728025,-0.314675,0.512575,4.7255,0.503,4.34425,730.436666666667,1,1,1,1
24-May-2018 12:49:39,-91.4,0.8934,-0.0479333333333333,0.39525,1.40285714285714,0.627571428571429,0.437142857142857,5.98725,-0.80555,0.07595,-0.74665,-0.612222222222222,36.3043333333333,61.0988888888889,121.708,0.81116,0.26642,0.54784,1.5545,0.183,0.427,0.148,-0.728025,-0.314675,0.512575,4.7255,0.503,4.34425,730.436666666667,1,1,1,1
24-May-2018 12:49:39,-91.4,0.8934,-0.0479333333333333,0.39525,1.40285714285714,0.627571428571429,0.437142857142857,5.98725,-0.80555,0.07595,-0.74665,-0.612222222222222,36.3043333333333,61.0988888888889,121.708,0.81116,0.26642,0.54784,1.5545,0.183,0.427,0.148,-0.728025,-0.314675,0.512575,4.7255,0.503,4.34425,730.436666666667,1,1,1,1
24-May-2018 12:49:39,-91.4,0.8934,-0.0479333333333333,0.39525,1.40285714285714,0.627571428571429,0.437142857142857,5.98725,-0.80555,0.07595,-0.74665,-0.612222222222222,36.3043333333333,61.0988888888889,121.708,0.81116,0.26642,0.54784,1.5545,0.183,0.427,0.148,-0.728025,-0.314675,0.512575,4.7255,0.503,4.34425,730.436666666667,1,1,1,1
24-May-2018 12:49:40,77.1,0.89355,-0.038075,0.395175,1.51657142857143,0.472571428571429,-0.390428571428571,5.955,-0.709633333333333,0.242333333333333,-0.795133333333333,-28.2857142857143,54.7328571428571,39.6385714285714,121.708,0.7961,0.26726,0.5699,0.683333333333333,-0.3125,1.02783333333333,0.142,-0.75824,-0.23714,0.51252,-32.0733333333333,-8.4045,18.7196666666667,749.9615,1,1,1,1
24-May-2018 12:49:40,77.1,0.89355,-0.038075,0.395175,1.51657142857143,0.472571428571429,-0.390428571428571,5.955,-0.709633333333333,0.242333333333333,-0.795133333333333,-28.2857142857143,54.7328571428571,39.6385714285714,121.708,0.7961,0.26726,0.5699,0.683333333333333,-0.3125,1.02783333333333,0.142,-0.75824,-0.23714,0.51252,-32.0733333333333,-8.4045,18.7196666666667,749.9615,1,1,1,1
24-May-2018 12:49:40,77.1,0.89355,-0.038075,0.395175,1.51657142857143,0.472571428571429,-0.390428571428571,5.955,-0.709633333333333,0.242333333333333,-0.795133333333333,-28.2857142857143,54.7328571428571,39.6385714285714,121.708,0.7961,0.26726,0.5699,0.683333333333333,-0.3125,1.02783333333333,0.142,-0.75824,-0.23714,0.51252,-32.0733333333333,-8.4045,18.7196666666667,749.9615,1,1,1,1
24-May-2018 12:49:40,77.1,0.89355,-0.038075,0.395175,1.51657142857143,0.472571428571429,-0.390428571428571,5.955,-0.709633333333333,0.242333333333333,-0.795133333333333,-28.2857142857143,54.7328571428571,39.6385714285714,121.708,0.7961,0.26726,0.5699,0.683333333333333,-0.3125,1.02783333333333,0.142,-0.75824,-0.23714,0.51252,-32.0733333333333,-8.4045,18.7196666666667,749.9615,1,1,1,1
24-May-2018 12:49:41,168.4,0.889411111111111,-0.0417333333333333,0.398988888888889,27.517,-0.573,9.88333333333333,5.955,-0.62078,0.41818,-0.7144,-4.76077777777778,15.3568888888889,26.6077777777778,121.708,0.78205,0.313783333333333,0.550583333333333,25.7176,9.242,8.9266,0.195,-0.7313,-0.46814,0.4512,-39.7356666666667,-9.02433333333333,18.8823333333333,705.4678,1,1,1,0
24-May-2018 12:49:41,168.4,0.889411111111111,-0.0417333333333333,0.398988888888889,27.517,-0.573,9.88333333333333,5.955,-0.62078,0.41818,-0.7144,-4.76077777777778,15.3568888888889,26.6077777777778,121.708,0.78205,0.313783333333333,0.550583333333333,25.7176,9.242,8.9266,0.195,-0.7313,-0.46814,0.4512,-39.7356666666667,-9.02433333333333,18.8823333333333,705.4678,1,1,1,0
24-May-2018 12:49:41,168.4,0.889411111111111,-0.0417333333333333,0.398988888888889,27.517,-0.573,9.88333333333333,5.955,-0.62078,0.41818,-0.7144,-4.76077777777778,15.3568888888889,26.6077777777778,121.708,0.78205,0.313783333333333,0.550583333333333,25.7176,9.242,8.9266,0.195,-0.7313,-0.46814,0.4512,-39.7356666666667,-9.02433333333333,18.8823333333333,705.4678,1,1,1,0
24-May-2018 12:49:41,168.4,0.889411111111111,-0.0417333333333333,0.398988888888889,27.517,-0.573,9.88333333333333,5.955,-0.62078,0.41818,-0.7144,-4.76077777777778,15.3568888888889,26.6077777777778,121.708,0.78205,0.313783333333333,0.550583333333333,25.7176,9.242,8.9266,0.195,-0.7313,-0.46814,0.4512,-39.7356666666667,-9.02433333333333,18.8823333333333,705.4678,1,1,1,0
