TIME,HELMET_RAW,BELT_ACC_X,BELT_ACC_Y,BELT_ACC_Z,BELT_ANG_X,BELT_ANG_Y,BELT_ANG_Z,BELT_LUMINOSITY,NECK_ACC_X,NECK_ACC_Y,NECK_ACC_Z,NECK_ANG_X,NECK_ANG_Y,NECK_ANG_Z,NECK_LUMINOSITY,PCKT_ACC_X,PCKT_ACC_Y,PCKT_ACC_Z,PCKT_ANG_X,PCKT_ANG_Y,PCKT_ANG_Z,PCKT_LUMINOSITY,WRST_ACC_X,WRST_ACC_Y,WRST_ACC_Z,WRST_ANG_X,WRST_ANG_Y,WRST_ANG_Z,WRST_LUMINOSITY,IR_1,IR_2,IR_3,IR_4
24-May-2018 12:49:48,-1264.6,0.874057142857143,-0.167,0.3834,0.6725,-0.962833333333333,-0.740166666666667,7.552,-0.82358,-0.14892,-0.58216,-12.3822222222222,7.50533333333333,10.8715555555556,113.544,0.7599,0.3926,0.553925,-2.5098,0.0518,0.0138,1.50266666666667,-0.7409,-0.38652,0.49918,2.0366,-1.0366,-0.7928,678.296,1,1,1,1
24-May-2018 12:49:48,-1264.6,0.874057142857143,-0.167,0.3834,0.6725,-0.962833333333333,-0.740166666666667,7.552,-0.82358,-0.14892,-0.58216,-12.3822222222222,7.50533333333333,10.8715555555556,113.544,0.7599,0.3926,0.553925,-2.5098,0.0518,0.0138,1.50266666666667,-0.7409,-0.38652,0.49918,2.0366,-1.0366,-0.7928,678.296,1,1,1,1
24-May-2018 12:49:48,-1264.6,0.874057142857143,-0.167,0.3834,0.6725,-0.962833333333333,-0.740166666666667,7.552,-0.82358,-0.14892,-0.58216,-12.3822222222222,7.50533333333333,10.8715555555556,113.544,0.7599,0.3926,0.553925,-2.5098,0.0518,0.0138,1.50266666666667,-0.7409,-0.38652,0.49918,2.0366,-1.0366,-0.7928,678.296,1,1,1,1
24-May-2018 12:49:48,-1264.6,0.874057142857143,-0.167,0.3834,0.6725,-0.962833333333333,-0.740166666666667,7.552,-0.82358,-0.14892,-0.58216,-12.3822222222222,7.50533333333333,10.8715555555556,113.544,0.7599,0.3926,0.553925,-2.5098,0.0518,0.0138,1.50266666666667,-0.7409,-0.38652,0.49918,2.0366,-1.0366,-0.7928,678.296,1,1,1,1
24-May-2018 12:49:49,-626.4,0.884785714285714,-0.166157142857143,0.357442857142857,2.44842857142857,-0.407,0.993142857142857,7.91225,-0.8646,-0.015875,-0.7145,-25.525,12.788125,9.647125,116.338,0.747833333333333,0.397566666666667,0.559366666666667,-2.984,0.855,0.2455,1.50266666666667,-0.722457142857143,-0.388585714285714,0.5157,-0.508333333333333,-3.069,0.996,697.083,1,1,1,1
24-May-2018 12:49:49,-626.4,0.884785714285714,-0.166157142857143,0.357442857142857,2.44842857142857,-0.407,0.993142857142857,7.91225,-0.8646,-0.015875,-0.7145,-25.525,12.788125,9.647125,116.338,0.747833333333333,0.397566666666667,0.559366666666667,-2.984,0.855,0.2455,1.50266666666667,-0.722457142857143,-0.388585714285714,0.5157,-0.508333333333333,-3.069,0.996,697.083,1,1,1,1
24-May-2018 12:49:49,-626.4,0.884785714285714,-0.166157142857143,0.357442857142857,2.44842857142857,-0.407,0.993142857142857,7.91225,-0.8646,-0.015875,-0.7145,-25.525,12.788125,9.647125,116.338,0.747833333333333,0.397566666666667,0.559366666666667,-2.984,0.855,0.2455,1.50266666666667,-0.722457142857143,-0.388585714285714,0.5157,-0.508333333333333,-3.069,0.996,697.083,1,1,1,1
24-May-2018 12:49:49,-626.4,0.884785714285714,-0.166157142857143,0.357442857142857,2.44842857142857,-0.407,0.993142857142857,7.91225,-0.8646,-0.015875,-0.7145,-25.525,12.788125,9.647125,116.338,0.747833333333333,0.397566666666667,0.559366666666667,-2.984,0.855,0.2455,0,-0.722457142857143,-0.388585714285714,0.5157,-0.508333333333333,-3.069,0.996,697.083,1,1,1,1
24-May-2018 12:49:50,-407.6,0.890344444444444,-0.173833333333333,0.342177777777778,1.04525,-0.263125,0.748125,7.91225,-0.798133333333333,0.1698,-0.6513,1.65528571428571,-19.5385714285714,3.89514285714286,127.514,0.7316,0.403966666666667,0.59,0.8105,0.732,0.869,0.195333333333333,-0.71684,-0.40334,0.50932,0.9512,0.9756,-0.6462,703.888,1,1,1,1
24-May-2018 12:49:50,-407.6,0.890344444444444,-0.173833333333333,0.342177777777778,1.04525,-0.263125,0.748125,7.91225,-0.798133333333333,0.1698,-0.6513,1.65528571428571,-19.5385714285714,3.89514285714286,127.514,0.7316,0.403966666666667,0.59,0.8105,0.732,0.869,0.195333333333333,-0.71684,-0.40334,0.50932,0.9512,0.9756,-0.6462,703.888,1,1,1,1
24-May-2018 12:49:50,-407.6,0.890344444444444,-0.173833333333333,0.342177777777778,1.04525,-0.263125,0.748125,7.91225,-0.798133333333333,0.1698,-0.6513,1.65528571428571,-19.5385714285714,3.89514285714286,127.514,0.7316,0.403966666666667,0.59,0.8105,0.732,0.869,0.195333333333333,-0.71684,-0.40334,0.50932,0.9512,0.9756,-0.6462,703.888,1,1,1,1
24-May-2018 12:49:50,-407.6,0.890344444444444,-0.173833333333333,0.342177777777778,1.04525,-0.263125,0.748125,7.91225,-0.798133333333333,0.1698,-0.6513,1.65528571428571,-19.5385714285714,3.89514285714286,127.514,0.7316,0.403966666666667,0.59,0.8105,0.732,0.869,0.195333333333333,-0.71684,-0.40334,0.50932,0.9512,0.9756,-0.6462,703.888,1,1,1,1
24-May-2018 12:49:51,-506,0.894575,-0.1785,0.3355,0.0165,-0.653125,0.245,7.91225,-0.74755,0.0877833333333333,-0.637416666666667,-9.47375,-11.46,-21.0925,127.514,0.722633333333333,0.3919,0.610533333333333,-2.2782,-1.2664,-0.9834,0.195333333333333,-0.719566666666667,-0.406833333333333,0.51215,1.07716666666667,0.772166666666667,-0.996,703.037,1,1,1,1
24-May-2018 12:49:51,-506,0.894575,-0.1785,0.3355,0.0165,-0.653125,0.245,7.91225,-0.74755,0.0877833333333333,-0.637416666666667,-9.47375,-11.46,-21.0925,127.514,0.722633333333333,0.3919,0.610533333333333,-2.2782,-1.2664,-0.9834,0.195333333333333,-0.719566666666667,-0.406833333333333,0.51215,1.07716666666667,0.772166666666667,-0.996,703.037,1,1,1,1
24-May-2018 12:49:51,-506,0.894575,-0.1785,0.3355,0.0165,-0.653125,0.245,7.91225,-0.74755,0.0877833333333333,-0.637416666666667,-9.47375,-11.46,-21.0925,127.514,0.722633333333333,0.3919,0.610533333333333,-2.2782,-1.2664,-0.9834,0.195333333333333,-0.719566666666667,-0.406833333333333,0.51215,1.07716666666667,0.772166666666667,-0.996,703.037,1,1,1,1
24-May-2018 12:49:51,-506,0.894575,-0.1785,0.3355,0.0165,-0.653125,0.245,7.91225,-0.74755,0.0877833333333333,-0.637416666666667,-9.47375,-11.46,-21.0925,127.514,0.722633333333333,0.3919,0.610533333333333,-2.2782,-1.2664,-0.9834,0,-0.719566666666667,-0.406833333333333,0.51215,1.07716666666667,0.772166666666667,-0.996,703.037,1,1,1,1
24-May-2018 12:49:52,-1657.9,0.894414285714286,-0.173485714285714,0.336628571428571,0.4355,0.64125,0.260875,7.91225,-0.8627,0.0509,-0.687125,-5.80333333333333,0.0744444444444438,-37.7333333333333,124.76825,0.7299,0.39924,0.59448,-0.392,-1.4925,-0.42,0.144,-0.72356,-0.39614,0.51214,0.134,0.427,0.427,696.706,1,1,1,1
24-May-2018 12:49:52,-1657.9,0.894414285714286,-0.173485714285714,0.336628571428571,0.4355,0.64125,0.260875,7.91225,-0.8627,0.0509,-0.687125,-5.80333333333333,0.0744444444444438,-37.7333333333333,124.76825,0.7299,0.39924,0.59448,-0.392,-1.4925,-0.42,0.144,-0.72356,-0.39614,0.51214,0.134,0.427,0.427,696.706,1,1,1,1
24-May-2018 12:49:52,-1657.9,0.894414285714286,-0.173485714285714,0.336628571428571,0.4355,0.64125,0.260875,7.91225,-0.8627,0.0509,-0.687125,-5.80333333333333,0.0744444444444438,-37.7333333333333,124.76825,0.7299,0.39924,0.59448,-0.392,-1.4925,-0.42,0.144,-0.72356,-0.39614,0.51214,0.134,0.427,0.427,696.706,1,1,1,1
24-May-2018 12:49:52,-1657.9,0.894414285714286,-0.173485714285714,0.336628571428571,0.4355,0.64125,0.260875,7.91225,-0.8627,0.0509,-0.687125,-5.80333333333333,0.0744444444444438,-37.7333333333333,124.76825,0.7299,0.39924,0.59448,-0.392,-1.4925,-0.42,0.144,-0.72356,-0.39614,0.51214,0.134,0.427,0.427,696.706,1,1,1,1
24-May-2018 12:49:53,-1747.2,0.89275,-0.173983333333333,0.34445,0.246428571428571,-0.239285714285714,0.0532857142857143,7.91225,-0.837975,-0.200225,-0.4923,-25.4,-1.271,-33.2333333333333,123.853,0.730175,0.402125,0.5904,0.4605,0.8535,-0.6065,0.069,-0.727466666666667,-0.392733333333333,0.513466666666667,2.15433333333333,1.09766666666667,0.182833333333333,699.1055,1,1,1,1
24-May-2018 12:49:53,-1747.2,0.89275,-0.173983333333333,0.34445,0.246428571428571,-0.239285714285714,0.0532857142857143,7.91225,-0.837975,-0.200225,-0.4923,-25.4,-1.271,-33.2333333333333,123.853,0.730175,0.402125,0.5904,0.4605,0.8535,-0.6065,0.069,-0.727466666666667,-0.392733333333333,0.513466666666667,2.15433333333333,1.09766666666667,0.182833333333333,699.1055,1,1,1,1
24-May-2018 12:49:53,-1747.2,0.89275,-0.173983333333333,0.34445,0.246428571428571,-0.239285714285714,0.0532857142857143,7.91225,-0.837975,-0.200225,-0.4923,-25.4,-1.271,-33.2333333333333,123.853,0.730175,0.402125,0.5904,0.4605,0.8535,-0.6065,0.069,-0.727466666666667,-0.392733333333333,0.513466666666667,2.15433333333333,1.09766666666667,0.182833333333333,699.1055,1,1,1,1
24-May-2018 12:49:53,-1747.2,0.89275,-0.173983333333333,0.34445,0.246428571428571,-0.239285714285714,0.0532857142857143,0,-0.837975,-0.200225,-0.4923,-25.4,-1.271,-33.2333333333333,123.853,0.730175,0.402125,0.5904,0.4605,0.8535,-0.6065,0.069,-0.727466666666667,-0.392733333333333,0.513466666666667,2.15433333333333,1.09766666666667,0.182833333333333,699.1055,1,1,1,1
24-May-2018 12:49:54,-1190.1,0.89836,-0.17074,0.34416,1.6344,-0.0945999999999999,0.0998,7.387,-0.8331,-0.1733,-0.5389,-38.2666666666667,-17.1766666666667,-13.6333333333333,123.853,0.724366666666667,0.411833333333333,0.5934,-0.49725,-1.0175,-1,0.159666666666667,-0.73135,-0.38375,0.506975,0.8995,-0.82325,-1.128,698.5318,1,1,1,1
24-May-2018 12:49:54,-1190.1,0.89836,-0.17074,0.34416,1.6344,-0.0945999999999999,0.0998,7.387,-0.8331,-0.1733,-0.5389,-38.2666666666667,-17.1766666666667,-13.6333333333333,123.853,0.724366666666667,0.411833333333333,0.5934,-0.49725,-1.0175,-1,0.159666666666667,-0.73135,-0.38375,0.506975,0.8995,-0.82325,-1.128,698.5318,1,1,1,1
24-May-2018 12:49:54,-1190.1,0.89836,-0.17074,0.34416,1.6344,-0.0945999999999999,0.0998,7.387,-0.8331,-0.1733,-0.5389,-38.2666666666667,-17.1766666666667,-13.6333333333333,123.853,0.724366666666667,0.411833333333333,0.5934,-0.49725,-1.0175,-1,0.159666666666667,-0.73135,-0.38375,0.506975,0.8995,-0.82325,-1.128,698.5318,1,1,1,1
24-May-2018 12:49:54,-1190.1,0.89836,-0.17074,0.34416,1.6344,-0.0945999999999999,0.0998,7.387,-0.8331,-0.1733,-0.5389,-38.2666666666667,-17.1766666666667,-13.6333333333333,123.853,0.724366666666667,0.411833333333333,0.5934,-0.49725,-1.0175,-1,0.159666666666667,-0.73135,-0.38375,0.506975,0.8995,-0.82325,-1.128,698.5318,1,1,1,1
24-May-2018 12:49:55,-804.4,0.894083333333333,-0.168716666666667,0.3356,0.275,0.224833333333333,0.285166666666667,7.232,-0.78626,-0.18148,-0.56074,-28.3333333333333,-11.46,-2.34122222222222,124.305,0.727125,0.415025,0.58905,-3.305,-5.425,-0.57625,0.118,-0.712216666666667,-0.392616666666667,0.520533333333333,-0.053375,1.28825,0.2745,700.861,1,1,1,1
24-May-2018 12:49:55,-804.4,0.894083333333333,-0.168716666666667,0.3356,0.275,0.224833333333333,0.285166666666667,7.232,-0.78626,-0.18148,-0.56074,-28.3333333333333,-11.46,-2.34122222222222,124.305,0.727125,0.415025,0.58905,-3.305,-5.425,-0.57625,0.118,-0.712216666666667,-0.392616666666667,0.520533333333333,-0.053375,1.28825,0.2745,700.861,1,1,1,1
24-May-2018 12:49:55,-804.4,0.894083333333333,-0.168716666666667,0.3356,0.275,0.224833333333333,0.285166666666667,7.232,-0.78626,-0.18148,-0.56074,-28.3333333333333,-11.46,-2.34122222222222,124.305,0.727125,0.415025,0.58905,-3.305,-5.425,-0.57625,0.118,-0.712216666666667,-0.392616666666667,0.520533333333333,-0.053375,1.28825,0.2745,700.861,1,1,1,1
24-May-2018 12:49:55,-804.4,0.894083333333333,-0.168716666666667,0.3356,0.275,0.224833333333333,0.285166666666667,7.232,-0.78626,-0.18148,-0.56074,-28.3333333333333,-11.46,-2.34122222222222,124.305,0.727125,0.415025,0.58905,-3.305,-5.425,-0.57625,0.118,-0.712216666666667,-0.392616666666667,0.520533333333333,-0.053375,1.28825,0.2745,700.861,1,1,1,1
24-May-2018 12:49:56,-527.636363636364,0.89995,-0.168383333333333,0.317066666666667,0.962222222222222,-1.18888888888889,0.549,7.1135,-0.87052,-0.0625,-0.66646,-33.8125,4.34875,26.9935,124.305,0.7398,0.406133333333333,0.571216666666667,-0.972,-0.383,0.285333333333333,0.118,-0.7172,-0.392,0.52572,0.33525,0.991,0.67075,706.459166666667,1,1,1,1
24-May-2018 12:49:56,-527.636363636364,0.89995,-0.168383333333333,0.317066666666667,0.962222222222222,-1.18888888888889,0.549,7.1135,-0.87052,-0.0625,-0.66646,-33.8125,4.34875,26.9935,124.305,0.7398,0.406133333333333,0.571216666666667,-0.972,-0.383,0.285333333333333,0.118,-0.7172,-0.392,0.52572,0.33525,0.991,0.67075,706.459166666667,1,1,1,1
24-May-2018 12:49:56,-527.636363636364,0.89995,-0.168383333333333,0.317066666666667,0.962222222222222,-1.18888888888889,0.549,7.1135,-0.87052,-0.0625,-0.66646,-33.8125,4.34875,26.9935,124.305,0.7398,0.406133333333333,0.571216666666667,-0.972,-0.383,0.285333333333333,0.118,-0.7172,-0.392,0.52572,0.33525,0.991,0.67075,706.459166666667,1,1,1,1
24-May-2018 12:49:56,-527.636363636364,0.89995,-0.168383333333333,0.317066666666667,0.962222222222222,-1.18888888888889,0.549,7.1135,-0.87052,-0.0625,-0.66646,-33.8125,4.34875,26.9935,124.305,0.7398,0.406133333333333,0.571216666666667,-0.972,-0.383,0.285333333333333,0,-0.7172,-0.392,0.52572,0.33525,0.991,0.67075,706.459166666667,1,1,1,1
24-May-2018 12:49:57,1122.57142857143,0.9006875,-0.1677125,0.3234125,0.793166666666667,0.945833333333333,0.447333333333333,6.7785,-0.8234,0.1777,-0.60782,-40.7333333333333,44.4,18.416,119.036,0.733675,0.401275,0.58565,-0.0605,-1.215,-0.82,0.1204,-0.72562,-0.3852,0.51226,1.41985714285714,1.05428571428571,-0.392,703.1285,1,1,1,1
24-May-2018 12:49:57,1122.57142857143,0.9006875,-0.1677125,0.3234125,0.793166666666667,0.945833333333333,0.447333333333333,6.7785,-0.8234,0.1777,-0.60782,-40.7333333333333,44.4,18.416,119.036,0.733675,0.401275,0.58565,-0.0605,-1.215,-0.82,0.1204,-0.72562,-0.3852,0.51226,1.41985714285714,1.05428571428571,-0.392,703.1285,1,1,1,1
24-May-2018 12:49:57,1122.57142857143,0.9006875,-0.1677125,0.3234125,0.793166666666667,0.945833333333333,0.447333333333333,6.7785,-0.8234,0.1777,-0.60782,-40.7333333333333,44.4,18.416,119.036,0.733675,0.401275,0.58565,-0.0605,-1.215,-0.82,0.1204,-0.72562,-0.3852,0.51226,1.41985714285714,1.05428571428571,-0.392,703.1285,1,1,1,1
24-May-2018 12:49:57,1122.57142857143,0.9006875,-0.1677125,0.3234125,0.793166666666667,0.945833333333333,0.447333333333333,6.7785,-0.8234,0.1777,-0.60782,-40.7333333333333,44.4,18.416,119.036,0.733675,0.401275,0.58565,-0.0605,-1.215,-0.82,0.1204,-0.72562,-0.3852,0.51226,1.41985714285714,1.05428571428571,-0.392,703.1285,1,1,1,1
24-May-2018 12:49:58,2047,0.8971,-0.1667,0.332428571428571,0.741142857142857,0.114857142857143,0.184,6.79475,-0.80468,0.3299,-0.61124,-31.91,3.0651,-5.562,119.036,0.7332,0.406266666666667,0.5798,-0.88,-2.405,-1.12,0.126,-0.727028571428571,-0.390971428571429,0.508128571428571,1.20425,0.244,0.07625,696.0028,1,1,1,1
24-May-2018 12:49:58,2047,0.8971,-0.1667,0.332428571428571,0.741142857142857,0.114857142857143,0.184,6.79475,-0.80468,0.3299,-0.61124,-31.91,3.0651,-5.562,119.036,0.7332,0.406266666666667,0.5798,-0.88,-2.405,-1.12,0.126,-0.727028571428571,-0.390971428571429,0.508128571428571,1.20425,0.244,0.07625,696.0028,1,1,1,1
24-May-2018 12:49:58,2047,0.8971,-0.1667,0.332428571428571,0.741142857142857,0.114857142857143,0.184,6.79475,-0.80468,0.3299,-0.61124,-31.91,3.0651,-5.562,119.036,0.7332,0.406266666666667,0.5798,-0.88,-2.405,-1.12,0.126,-0.727028571428571,-0.390971428571429,0.508128571428571,1.20425,0.244,0.07625,696.0028,1,1,1,1
24-May-2018 12:49:58,2047,0.8971,-0.1667,0.332428571428571,0.741142857142857,0.114857142857143,0.184,6.79475,-0.80468,0.3299,-0.61124,-31.91,3.0651,-5.562,119.036,0.7332,0.406266666666667,0.5798,-0.88,-2.405,-1.12,0.126,-0.727028571428571,-0.390971428571429,0.508128571428571,1.20425,0.244,0.07625,696.0028,1,1,1,1
24-May-2018 12:49:59,2047,0.899016666666667,-0.162566666666667,0.328033333333333,0.283875,-0.06625,0.198625,6.802,-0.74205,0.308075,-0.634175,-54.6333333333333,12.9368888888889,-39.1888888888889,124.069,0.734725,0.415275,0.570275,0.264333333333333,0.307,-0.182,0.145333333333333,-0.7259125,-0.388575,0.512375,-0.101666666666667,0.101666666666667,-0.223666666666667,700.409,1,1,1,1
24-May-2018 12:49:59,2047,0.899016666666667,-0.162566666666667,0.328033333333333,0.283875,-0.06625,0.198625,6.802,-0.74205,0.308075,-0.634175,-54.6333333333333,12.9368888888889,-39.1888888888889,124.069,0.734725,0.415275,0.570275,0.264333333333333,0.307,-0.182,0.145333333333333,-0.7259125,-0.388575,0.512375,-0.101666666666667,0.101666666666667,-0.223666666666667,700.409,1,1,1,1
24-May-2018 12:49:59,2047,0.899016666666667,-0.162566666666667,0.328033333333333,0.283875,-0.06625,0.198625,6.802,-0.74205,0.308075,-0.634175,-54.6333333333333,12.9368888888889,-39.1888888888889,124.069,0.734725,0.415275,0.570275,0.264333333333333,0.307,-0.182,0.145333333333333,-0.7259125,-0.388575,0.512375,-0.101666666666667,0.101666666666667,-0.223666666666667,700.409,1,1,1,1
24-May-2018 12:49:59,2047,0.899016666666667,-0.162566666666667,0.328033333333333,0.283875,-0.06625,0.198625,6.802,-0.74205,0.308075,-0.634175,-54.6333333333333,12.9368888888889,-39.1888888888889,124.069,0.734725,0.415275,0.570275,0.264333333333333,0.307,-0.182,0.145333333333333,-0.7259125,-0.388575,0.512375,-0.101666666666667,0.101666666666667,-0.223666666666667,700.409,1,1,1,1
24-May-2018 12:50:00,1715.1,0.901,-0.1640125,0.3231875,0.653428571428572,0.296857142857143,0.732,6.749,-0.77146,0.3248,-0.64294,-69.1888888888889,5.59011111111111,-90.4,139.168,0.734166666666667,0.412133333333333,0.573866666666667,-0.3,-0.48,0.244,0.145,-0.72444,-0.3874,0.51574,-0.101666666666667,0.935,-0.0203333333333333,700.7722,1,1,1,1
24-May-2018 12:50:00,1715.1,0.901,-0.1640125,0.3231875,0.653428571428572,0.296857142857143,0.732,6.749,-0.77146,0.3248,-0.64294,-69.1888888888889,5.59011111111111,-90.4,139.168,0.734166666666667,0.412133333333333,0.573866666666667,-0.3,-0.48,0.244,0.145,-0.72444,-0.3874,0.51574,-0.101666666666667,0.935,-0.0203333333333333,700.7722,1,1,1,1
24-May-2018 12:50:00,1715.1,0.901,-0.1640125,0.3231875,0.653428571428572,0.296857142857143,0.732,6.749,-0.77146,0.3248,-0.64294,-69.1888888888889,5.59011111111111,-90.4,139.168,0.734166666666667,0.412133333333333,0.573866666666667,-0.3,-0.48,0.244,0.145,-0.72444,-0.3874,0.51574,-0.101666666666667,0.935,-0.0203333333333333,700.7722,1,1,1,1
24-May-2018 12:50:00,1715.1,0.901,-0.1640125,0.3231875,0.653428571428572,0.296857142857143,0.732,6.749,-0.77146,0.3248,-0.64294,-69.1888888888889,5.59011111111111,-90.4,139.168,0.734166666666667,0.412133333333333,0.573866666666667,-0.3,-0.48,0.244,0.145,-0.72444,-0.3874,0.51574,-0.101666666666667,0.935,-0.0203333333333333,700.7722,1,1,1,1
24-May-2018 12:50:01,1189.7,0.8981375,-0.1671375,0.3293125,0.273222222222222,0.326,0.196666666666667,6.749,-0.825875,0.141825,-0.6639,-54.5333333333333,14.5032222222222,-108.488888888889,139.168,0.73445,0.4094,0.576775,-0.83,-1.17666666666667,-0.272166666666667,0.112,-0.72755,-0.3951,0.50025,1.47366666666667,1.06716666666667,-0.935,690.236,1,1,1,1
24-May-2018 12:50:01,1189.7,0.8981375,-0.1671375,0.3293125,0.273222222222222,0.326,0.196666666666667,6.749,-0.825875,0.141825,-0.6639,-54.5333333333333,14.5032222222222,-108.488888888889,139.168,0.73445,0.4094,0.576775,-0.83,-1.17666666666667,-0.272166666666667,0.112,-0.72755,-0.3951,0.50025,1.47366666666667,1.06716666666667,-0.935,690.236,1,1,1,1
24-May-2018 12:50:01,1189.7,0.8981375,-0.1671375,0.3293125,0.273222222222222,0.326,0.196666666666667,6.749,-0.825875,0.141825,-0.6639,-54.5333333333333,14.5032222222222,-108.488888888889,139.168,0.73445,0.4094,0.576775,-0.83,-1.17666666666667,-0.272166666666667,0.112,-0.72755,-0.3951,0.50025,1.47366666666667,1.06716666666667,-0.935,690.236,1,1,1,1
24-May-2018 12:50:01,1189.7,0.8981375,-0.1671375,0.3293125,0.273222222222222,0.326,0.196666666666667,6.749,-0.825875,0.141825,-0.6639,-54.5333333333333,14.5032222222222,-108.488888888889,139.168,0.73445,0.4094,0.576775,-0.83,-1.17666666666667,-0.272166666666667,0.112,-0.72755,-0.3951,0.50025,1.47366666666667,1.06716666666667,-0.935,690.236,1,1,1,1
24-May-2018 12:50:02,853,0.901811111111111,-0.164077777777778,0.318766666666667,0.738666666666667,-0.241444444444444,0.305555555555556,6.749,-0.74828,-0.14496,-0.61376,-50.2777777777778,25.7066666666667,-123.555555555556,132.826,0.7364,0.410975,0.56905,-2.74,-3.045,-2.22,0.112,-0.729766666666667,-0.387216666666667,0.50895,-0.3505,-0.198,0.64025,694.314,1,1,1,1
24-May-2018 12:50:02,853,0.901811111111111,-0.164077777777778,0.318766666666667,0.738666666666667,-0.241444444444444,0.305555555555556,6.749,-0.74828,-0.14496,-0.61376,-50.2777777777778,25.7066666666667,-123.555555555556,132.826,0.7364,0.410975,0.56905,-2.74,-3.045,-2.22,0.112,-0.729766666666667,-0.387216666666667,0.50895,-0.3505,-0.198,0.64025,694.314,1,1,1,1
24-May-2018 12:50:02,853,0.901811111111111,-0.164077777777778,0.318766666666667,0.738666666666667,-0.241444444444444,0.305555555555556,6.749,-0.74828,-0.14496,-0.61376,-50.2777777777778,25.7066666666667,-123.555555555556,132.826,0.7364,0.410975,0.56905,-2.74,-3.045,-2.22,0.112,-0.729766666666667,-0.387216666666667,0.50895,-0.3505,-0.198,0.64025,694.314,1,1,1,1
24-May-2018 12:50:02,853,0.901811111111111,-0.164077777777778,0.318766666666667,0.738666666666667,-0.241444444444444,0.305555555555556,6.749,-0.74828,-0.14496,-0.61376,-50.2777777777778,25.7066666666667,-123.555555555556,132.826,0.7364,0.410975,0.56905,-2.74,-3.045,-2.22,0.112,-0.729766666666667,-0.387216666666667,0.50895,-0.3505,-0.198,0.64025,694.314,1,1,1,1
24-May-2018 12:50:03,576.8,0.9014,-0.1657,0.323466666666667,-0.342666666666667,0.792666666666667,0.915,6.749,-0.728,-0.3127,-0.6776,-61.3333333333333,-7.67333333333333,-111.333333333333,126.484,0.7377,0.41305,0.5632,-0.36,0.244,0.122,0.112,-0.7294,-0.3807,0.5132,-0.386333333333333,0.0406666666666667,-1.68666666666667,695.666,1,1,1,1
24-May-2018 12:50:03,576.8,0.9014,-0.1657,0.323466666666667,-0.342666666666667,0.792666666666667,0.915,6.749,-0.728,-0.3127,-0.6776,-61.3333333333333,-7.67333333333333,-111.333333333333,126.484,0.7377,0.41305,0.5632,-0.36,0.244,0.122,0.112,-0.7294,-0.3807,0.5132,-0.386333333333333,0.0406666666666667,-1.68666666666667,695.666,1,1,1,1
24-May-2018 12:50:03,576.8,0.9014,-0.1657,0.323466666666667,-0.342666666666667,0.792666666666667,0.915,6.749,-0.728,-0.3127,-0.6776,-61.3333333333333,-7.67333333333333,-111.333333333333,126.484,0.7377,0.41305,0.5632,-0.36,0.244,0.122,0,-0.7294,-0.3807,0.5132,-0.386333333333333,0.0406666666666667,-1.68666666666667,695.666,1,1,1,1
24-May-2018 12:50:03,576.8,0.9014,-0.1657,0.323466666666667,-0.342666666666667,0.792666666666667,0.915,6.749,-0.728,-0.3127,-0.6776,-61.3333333333333,-7.67333333333333,-111.333333333333,126.484,0.7377,0.41305,0.5632,-0.36,0.244,0.122,0,-0.7294,-0.3807,0.5132,-0.386333333333333,0.0406666666666667,-1.68666666666667,695.666,1,1,1,1
24-May-2018 12:50:04,-622.5,0.89908,-0.16672,0.32688,0.237,0.0515,0.163666666666667,6.749,-0.723733333333333,-0.313266666666667,-0.735133333333333,-81.7666666666667,-24.9,-87.8,126.484,0.732075,0.412525,0.579075,0.07775,0.50375,-0.1645,0.134,-0.725166666666667,-0.3989,0.505866666666667,1.89025,0.945,-0.73175,698.159,1,1,1,1
24-May-2018 12:50:04,-622.5,0.89908,-0.16672,0.32688,0.237,0.0515,0.163666666666667,6.749,-0.723733333333333,-0.313266666666667,-0.735133333333333,-81.7666666666667,-24.9,-87.8,126.484,0.732075,0.412525,0.579075,0.07775,0.50375,-0.1645,0.134,-0.725166666666667,-0.3989,0.505866666666667,1.89025,0.945,-0.73175,698.159,1,1,1,1
24-May-2018 12:50:04,-622.5,0.89908,-0.16672,0.32688,0.237,0.0515,0.163666666666667,6.749,-0.723733333333333,-0.313266666666667,-0.735133333333333,-81.7666666666667,-24.9,-87.8,126.484,0.732075,0.412525,0.579075,0.07775,0.50375,-0.1645,0.134,-0.725166666666667,-0.3989,0.505866666666667,1.89025,0.945,-0.73175,698.159,1,1,1,1
24-May-2018 12:50:04,-622.5,0.89908,-0.16672,0.32688,0.237,0.0515,0.163666666666667,0,-0.723733333333333,-0.313266666666667,-0.735133333333333,-81.7666666666667,-24.9,-87.8,126.484,0.732075,0.412525,0.579075,0.07775,0.50375,-0.1645,0.134,-0.725166666666667,-0.3989,0.505866666666667,1.89025,0.945,-0.73175,698.159,1,1,1,1
24-May-2018 12:50:05,-1430.5,0.8999875,-0.1732,0.3193375,0.935166666666667,-0.593333333333333,0.925166666666667,6.7815,-0.68444,-0.26446,-0.6886,-74.3125,-27.15,-59.6125,126.484,0.721866666666667,0.4179,0.5874,-0.702,-0.144,-0.5318,0.124,-0.715766666666667,-0.405283333333333,0.514533333333333,-0.213333333333333,-0.742166666666667,-0.864,697.2396,1,1,1,1
24-May-2018 12:50:05,-1430.5,0.8999875,-0.1732,0.3193375,0.935166666666667,-0.593333333333333,0.925166666666667,6.7815,-0.68444,-0.26446,-0.6886,-74.3125,-27.15,-59.6125,126.484,0.721866666666667,0.4179,0.5874,-0.702,-0.144,-0.5318,0.124,-0.715766666666667,-0.405283333333333,0.514533333333333,-0.213333333333333,-0.742166666666667,-0.864,697.2396,1,1,1,1
24-May-2018 12:50:05,-1430.5,0.8999875,-0.1732,0.3193375,0.935166666666667,-0.593333333333333,0.925166666666667,6.7815,-0.68444,-0.26446,-0.6886,-74.3125,-27.15,-59.6125,126.484,0.721866666666667,0.4179,0.5874,-0.702,-0.144,-0.5318,0.124,-0.715766666666667,-0.405283333333333,0.514533333333333,-0.213333333333333,-0.742166666666667,-0.864,697.2396,1,1,1,1
24-May-2018 12:50:05,-1430.5,0.8999875,-0.1732,0.3193375,0.935166666666667,-0.593333333333333,0.925166666666667,6.7815,-0.68444,-0.26446,-0.6886,-74.3125,-27.15,-59.6125,126.484,0.721866666666667,0.4179,0.5874,-0.702,-0.144,-0.5318,0.124,-0.715766666666667,-0.405283333333333,0.514533333333333,-0.213333333333333,-0.742166666666667,-0.864,697.2396,1,1,1,1
24-May-2018 12:50:06,-1969.71428571429,0.90385,-0.178916666666667,0.31325,-3.00585714285714,2.26585714285714,-0.676857142857143,6.878,-0.707525,-0.26435,-0.77595,-53.61,0.931299999999999,-28.07,133.6175,0.726933333333333,0.403133333333333,0.5914,-1.33666666666667,-1.31666666666667,0.285666666666667,0.142,-0.7021,-0.415816666666667,0.525116666666667,3.37383333333333,2.754,-2.18483333333333,707.881666666667,1,1,1,1
24-May-2018 12:50:06,-1969.71428571429,0.90385,-0.178916666666667,0.31325,-3.00585714285714,2.26585714285714,-0.676857142857143,6.878,-0.707525,-0.26435,-0.77595,-53.61,0.931299999999999,-28.07,133.6175,0.726933333333333,0.403133333333333,0.5914,-1.33666666666667,-1.31666666666667,0.285666666666667,0.142,-0.7021,-0.415816666666667,0.525116666666667,3.37383333333333,2.754,-2.18483333333333,707.881666666667,1,1,1,1
24-May-2018 12:50:06,-1969.71428571429,0.90385,-0.178916666666667,0.31325,-3.00585714285714,2.26585714285714,-0.676857142857143,6.878,-0.707525,-0.26435,-0.77595,-53.61,0.931299999999999,-28.07,133.6175,0.726933333333333,0.403133333333333,0.5914,-1.33666666666667,-1.31666666666667,0.285666666666667,0.142,-0.7021,-0.415816666666667,0.525116666666667,3.37383333333333,2.754,-2.18483333333333,707.881666666667,1,1,1,1
24-May-2018 12:50:06,-1969.71428571429,0.90385,-0.178916666666667,0.31325,-3.00585714285714,2.26585714285714,-0.676857142857143,6.878,-0.707525,-0.26435,-0.77595,-53.61,0.931299999999999,-28.07,133.6175,0.726933333333333,0.403133333333333,0.5914,-1.33666666666667,-1.31666666666667,0.285666666666667,0.142,-0.7021,-0.415816666666667,0.525116666666667,3.37383333333333,2.754,-2.18483333333333,707.881666666667,1,1,1,1
24-May-2018 12:50:07,-2048,0.903,-0.167528571428571,0.309871428571429,2.807,-1.26666666666667,0.519666666666667,6.737,-0.6294,-0.19812,-0.79768,-62.7444444444444,-3.55844444444444,-30.0444444444444,140.751,0.7238,0.3995,0.5994,-4.359,-2.6322,-2.8276,0.171,-0.716825,-0.41145,0.5161,2.8048,0.3658,-0.7684,699.7755,1,1,1,1
24-May-2018 12:50:07,-2048,0.903,-0.167528571428571,0.309871428571429,2.807,-1.26666666666667,0.519666666666667,6.737,-0.6294,-0.19812,-0.79768,-62.7444444444444,-3.55844444444444,-30.0444444444444,140.751,0.7238,0.3995,0.5994,-4.359,-2.6322,-2.8276,0.171,-0.716825,-0.41145,0.5161,2.8048,0.3658,-0.7684,699.7755,1,1,1,1
24-May-2018 12:50:07,-2048,0.903,-0.167528571428571,0.309871428571429,2.807,-1.26666666666667,0.519666666666667,6.737,-0.6294,-0.19812,-0.79768,-62.7444444444444,-3.55844444444444,-30.0444444444444,140.751,0.7238,0.3995,0.5994,-4.359,-2.6322,-2.8276,0.171,-0.716825,-0.41145,0.5161,2.8048,0.3658,-0.7684,699.7755,1,1,1,1
24-May-2018 12:50:07,-2048,0.903,-0.167528571428571,0.309871428571429,2.807,-1.26666666666667,0.519666666666667,6.737,-0.6294,-0.19812,-0.79768,-62.7444444444444,-3.55844444444444,-30.0444444444444,140.751,0.7238,0.3995,0.5994,-4.359,-2.6322,-2.8276,0.171,-0.716825,-0.41145,0.5161,2.8048,0.3658,-0.7684,699.7755,1,1,1,1
24-May-2018 12:50:08,-1879.3,0.9026625,-0.1781,0.305525,0.343428571428571,-0.146142857142857,0.871285714285714,6.67166666666667,-0.72135,0.00140000000000001,-0.794233333333333,-48.1125,17.04525,-19.98875,140.3605,0.7245,0.3956,0.6053,1.7568,0.404,1.4894,0.121,-0.707157142857143,-0.411785714285714,0.524442857142857,0.1625,-0.061,-0.589333333333333,702.549,1,1,1,1
24-May-2018 12:50:08,-1879.3,0.9026625,-0.1781,0.305525,0.343428571428571,-0.146142857142857,0.871285714285714,6.67166666666667,-0.72135,0.00140000000000001,-0.794233333333333,-48.1125,17.04525,-19.98875,140.3605,0.7245,0.3956,0.6053,1.7568,0.404,1.4894,0.121,-0.707157142857143,-0.411785714285714,0.524442857142857,0.1625,-0.061,-0.589333333333333,702.549,1,1,1,1
24-May-2018 12:50:08,-1879.3,0.9026625,-0.1781,0.305525,0.343428571428571,-0.146142857142857,0.871285714285714,6.67166666666667,-0.72135,0.00140000000000001,-0.794233333333333,-48.1125,17.04525,-19.98875,140.3605,0.7245,0.3956,0.6053,1.7568,0.404,1.4894,0.121,-0.707157142857143,-0.411785714285714,0.524442857142857,0.1625,-0.061,-0.589333333333333,702.549,1,1,1,1
24-May-2018 12:50:08,-1879.3,0.9026625,-0.1781,0.305525,0.343428571428571,-0.146142857142857,0.871285714285714,6.67166666666667,-0.72135,0.00140000000000001,-0.794233333333333,-48.1125,17.04525,-19.98875,140.3605,0.7245,0.3956,0.6053,1.7568,0.404,1.4894,0.121,-0.707157142857143,-0.411785714285714,0.524442857142857,0.1625,-0.061,-0.589333333333333,702.549,1,1,1,1
24-May-2018 12:50:09,-1334.88888888889,0.9041,-0.182375,0.3076875,1.50685714285714,0.994428571428572,0.455142857142857,6.814,-0.680225,0.07125,-0.7415,0.609333333333333,-10.77,-12.1351111111111,139.189,0.726133333333333,0.404433333333333,0.595966666666667,-0.891,-0.830666666666667,-0.201333333333333,0.124,-0.707383333333333,-0.413683333333333,0.526516666666667,0.64025,0.86875,0.076125,706.226,1,1,1,1
24-May-2018 12:50:09,-1334.88888888889,0.9041,-0.182375,0.3076875,1.50685714285714,0.994428571428572,0.455142857142857,6.814,-0.680225,0.07125,-0.7415,0.609333333333333,-10.77,-12.1351111111111,139.189,0.726133333333333,0.404433333333333,0.595966666666667,-0.891,-0.830666666666667,-0.201333333333333,0.124,-0.707383333333333,-0.413683333333333,0.526516666666667,0.64025,0.86875,0.076125,706.226,1,1,1,1
24-May-2018 12:50:09,-1334.88888888889,0.9041,-0.182375,0.3076875,1.50685714285714,0.994428571428572,0.455142857142857,6.814,-0.680225,0.07125,-0.7415,0.609333333333333,-10.77,-12.1351111111111,139.189,0.726133333333333,0.404433333333333,0.595966666666667,-0.891,-0.830666666666667,-0.201333333333333,0.124,-0.707383333333333,-0.413683333333333,0.526516666666667,0.64025,0.86875,0.076125,706.226,1,1,1,1
24-May-2018 12:50:09,-1334.88888888889,0.9041,-0.182375,0.3076875,1.50685714285714,0.994428571428572,0.455142857142857,6.814,-0.680225,0.07125,-0.7415,0.609333333333333,-10.77,-12.1351111111111,139.189,0.726133333333333,0.404433333333333,0.595966666666667,-0.891,-0.830666666666667,-0.201333333333333,0.124,-0.707383333333333,-0.413683333333333,0.526516666666667,0.64025,0.86875,0.076125,706.226,1,1,1,1
24-May-2018 12:50:10,-976.285714285714,0.900114285714286,-0.182385714285714,0.309257142857143,0.0965714285714285,-0.694142857142857,0.445,6.75625,-0.65315,-0.034075,-0.805525,16.662,-9.58944444444445,-19.7111111111111,139.3374,0.72424,0.40494,0.59744,1.159,-2.5,-1.15,0.248,-0.70545,-0.416075,0.5244625,0.461571428571429,-0.0522857142857143,-0.165571428571429,704.260666666667,1,1,1,1
24-May-2018 12:50:10,-976.285714285714,0.900114285714286,-0.182385714285714,0.309257142857143,0.0965714285714285,-0.694142857142857,0.445,6.75625,-0.65315,-0.034075,-0.805525,16.662,-9.58944444444445,-19.7111111111111,139.3374,0.72424,0.40494,0.59744,1.159,-2.5,-1.15,0.248,-0.70545,-0.416075,0.5244625,0.461571428571429,-0.0522857142857143,-0.165571428571429,704.260666666667,1,1,1,1
24-May-2018 12:50:10,-976.285714285714,0.900114285714286,-0.182385714285714,0.309257142857143,0.0965714285714285,-0.694142857142857,0.445,6.75625,-0.65315,-0.034075,-0.805525,16.662,-9.58944444444445,-19.7111111111111,139.3374,0.72424,0.40494,0.59744,1.159,-2.5,-1.15,0.248,-0.70545,-0.416075,0.5244625,0.461571428571429,-0.0522857142857143,-0.165571428571429,704.260666666667,1,1,1,1
24-May-2018 12:50:10,-976.285714285714,0.900114285714286,-0.182385714285714,0.309257142857143,0.0965714285714285,-0.694142857142857,0.445,6.75625,-0.65315,-0.034075,-0.805525,16.662,-9.58944444444445,-19.7111111111111,139.3374,0.72424,0.40494,0.59744,1.159,-2.5,-1.15,0.248,-0.70545,-0.416075,0.5244625,0.461571428571429,-0.0522857142857143,-0.165571428571429,704.260666666667,1,1,1,1
24-May-2018 12:50:11,-699.7,0.906114285714286,-0.180957142857143,0.295157142857143,1.52544444444444,-0.911333333333333,0.346666666666667,6.79,-0.700983333333333,-0.242983333333333,-0.78015,24.411625,21.55925,-13.24025,139.931,0.71855,0.41025,0.5969,-2.34,-0.5795,-0.121,0.154,-0.696875,-0.41335,0.535875,-0.0303749999999999,0.63275,0.58675,712.863,1,1,1,1
24-May-2018 12:50:11,-699.7,0.906114285714286,-0.180957142857143,0.295157142857143,1.52544444444444,-0.911333333333333,0.346666666666667,6.79,-0.700983333333333,-0.242983333333333,-0.78015,24.411625,21.55925,-13.24025,139.931,0.71855,0.41025,0.5969,-2.34,-0.5795,-0.121,0.154,-0.696875,-0.41335,0.535875,-0.0303749999999999,0.63275,0.58675,712.863,1,1,1,1
24-May-2018 12:50:11,-699.7,0.906114285714286,-0.180957142857143,0.295157142857143,1.52544444444444,-0.911333333333333,0.346666666666667,6.79,-0.700983333333333,-0.242983333333333,-0.78015,24.411625,21.55925,-13.24025,139.931,0.71855,0.41025,0.5969,-2.34,-0.5795,-0.121,0.154,-0.696875,-0.41335,0.535875,-0.0303749999999999,0.63275,0.58675,712.863,1,1,1,1
24-May-2018 12:50:11,-699.7,0.906114285714286,-0.180957142857143,0.295157142857143,1.52544444444444,-0.911333333333333,0.346666666666667,6.79,-0.700983333333333,-0.242983333333333,-0.78015,24.411625,21.55925,-13.24025,139.931,0.71855,0.41025,0.5969,-2.34,-0.5795,-0.121,0.154,-0.696875,-0.41335,0.535875,-0.0303749999999999,0.63275,0.58675,712.863,1,1,1,1
24-May-2018 12:50:12,-494.285714285714,0.9071,-0.177414285714286,0.289628571428571,-0.170142857142857,0.481857142857143,0.0108571428571429,6.79,-0.6867,-0.278325,-0.71595,-22.493,-19.9037777777778,-14.3888888888889,139.931,0.71772,0.4111,0.60204,-2.34,-0.5795,-0.121,0.148,-0.714033333333333,-0.39365,0.524916666666667,1.30083333333333,0.894333333333333,0.833333333333333,705.867,1,1,1,1
24-May-2018 12:50:12,-494.285714285714,0.9071,-0.177414285714286,0.289628571428571,-0.170142857142857,0.481857142857143,0.0108571428571429,6.79,-0.6867,-0.278325,-0.71595,-22.493,-19.9037777777778,-14.3888888888889,139.931,0.71772,0.4111,0.60204,-2.34,-0.5795,-0.121,0.148,-0.714033333333333,-0.39365,0.524916666666667,1.30083333333333,0.894333333333333,0.833333333333333,705.867,1,1,1,1
24-May-2018 12:50:12,-494.285714285714,0.9071,-0.177414285714286,0.289628571428571,-0.170142857142857,0.481857142857143,0.0108571428571429,6.79,-0.6867,-0.278325,-0.71595,-22.493,-19.9037777777778,-14.3888888888889,139.931,0.71772,0.4111,0.60204,-2.34,-0.5795,-0.121,0.148,-0.714033333333333,-0.39365,0.524916666666667,1.30083333333333,0.894333333333333,0.833333333333333,705.867,1,1,1,1
24-May-2018 12:50:12,-494.285714285714,0.9071,-0.177414285714286,0.289628571428571,-0.170142857142857,0.481857142857143,0.0108571428571429,6.79,-0.6867,-0.278325,-0.71595,-22.493,-19.9037777777778,-14.3888888888889,139.931,0.71772,0.4111,0.60204,0,0,0,0.148,-0.714033333333333,-0.39365,0.524916666666667,1.30083333333333,0.894333333333333,0.833333333333333,705.867,1,1,1,1
24-May-2018 12:50:13,-354.555555555556,0.9031,-0.17295,0.2984,2.11875,1.9665,0.3665,6.79,-0.6244,-0.19245,-0.69725,-8.31966666666667,-21.9666666666667,8.33333333333333,145.059,0.720675,0.39985,0.6082,-0.545,-2.04666666666667,0.122,0.154,-0.71975,-0.39595,0.51335,0.812666666666667,1.17866666666667,-0.833666666666667,703.599,1,1,1,1
24-May-2018 12:50:13,-354.555555555556,0.9031,-0.17295,0.2984,2.11875,1.9665,0.3665,6.79,-0.6244,-0.19245,-0.69725,-8.31966666666667,-21.9666666666667,8.33333333333333,145.059,0.720675,0.39985,0.6082,-0.545,-2.04666666666667,0.122,0.154,-0.71975,-0.39595,0.51335,0.812666666666667,1.17866666666667,-0.833666666666667,703.599,1,1,1,1
24-May-2018 12:50:13,-354.555555555556,0.9031,-0.17295,0.2984,2.11875,1.9665,0.3665,6.79,-0.6244,-0.19245,-0.69725,-8.31966666666667,-21.9666666666667,8.33333333333333,145.059,0.720675,0.39985,0.6082,-0.545,-2.04666666666667,0.122,0.154,-0.71975,-0.39595,0.51335,0.812666666666667,1.17866666666667,-0.833666666666667,703.599,1,1,1,1
24-May-2018 12:50:13,-354.555555555556,0.9031,-0.17295,0.2984,2.11875,1.9665,0.3665,6.79,-0.6244,-0.19245,-0.69725,-8.31966666666667,-21.9666666666667,8.33333333333333,145.059,0.720675,0.39985,0.6082,-0.545,-2.04666666666667,0.122,0.154,-0.71975,-0.39595,0.51335,0.812666666666667,1.17866666666667,-0.833666666666667,703.599,1,1,1,1
24-May-2018 12:50:14,-237.555555555556,0.90035,-0.17563,0.31475,0.138875,0.755375,0.327875,6.79,-0.7768,-0.20292,-0.89204,-10.43,-4.03133333333333,30.7544444444444,145.059,0.72818,0.40466,0.59054,0.997666666666667,-0.423333333333333,-0.93,0.154,-0.7207125,-0.39615,0.514375,-0.148142857142857,0.374714285714286,-0.252714285714286,698.432,1,1,1,1
24-May-2018 12:50:14,-237.555555555556,0.90035,-0.17563,0.31475,0.138875,0.755375,0.327875,6.79,-0.7768,-0.20292,-0.89204,-10.43,-4.03133333333333,30.7544444444444,145.059,0.72818,0.40466,0.59054,0.997666666666667,-0.423333333333333,-0.93,0.154,-0.7207125,-0.39615,0.514375,-0.148142857142857,0.374714285714286,-0.252714285714286,698.432,1,1,1,1
24-May-2018 12:50:14,-237.555555555556,0.90035,-0.17563,0.31475,0.138875,0.755375,0.327875,6.79,-0.7768,-0.20292,-0.89204,-10.43,-4.03133333333333,30.7544444444444,145.059,0.72818,0.40466,0.59054,0.997666666666667,-0.423333333333333,-0.93,0.154,-0.7207125,-0.39615,0.514375,-0.148142857142857,0.374714285714286,-0.252714285714286,698.432,1,1,1,1
24-May-2018 12:50:14,-237.555555555556,0.90035,-0.17563,0.31475,0.138875,0.755375,0.327875,6.79,-0.7768,-0.20292,-0.89204,-10.43,-4.03133333333333,30.7544444444444,145.059,0.72818,0.40466,0.59054,0.997666666666667,-0.423333333333333,-0.93,0,-0.7207125,-0.39615,0.514375,-0.148142857142857,0.374714285714286,-0.252714285714286,698.432,1,1,1,1
24-May-2018 12:50:15,-151.2,0.900075,-0.1773375,0.3127375,0.731875,-0.035625,0.617625,6.577,-0.73905,0.055175,-0.632725,-30.3035555555556,2.62111111111111,29.0622222222222,136.955666666667,0.723466666666667,0.417966666666667,0.586133333333333,-0.526666666666667,-0.646666666666667,-0.24,0.112,-0.721116666666667,-0.407133333333333,0.505283333333333,0.0303333333333333,0.477666666666667,-0.193,694.996666666667,1,1,1,1
24-May-2018 12:50:15,-151.2,0.900075,-0.1773375,0.3127375,0.731875,-0.035625,0.617625,6.577,-0.73905,0.055175,-0.632725,-30.3035555555556,2.62111111111111,29.0622222222222,136.955666666667,0.723466666666667,0.417966666666667,0.586133333333333,-0.526666666666667,-0.646666666666667,-0.24,0.112,-0.721116666666667,-0.407133333333333,0.505283333333333,0.0303333333333333,0.477666666666667,-0.193,694.996666666667,1,1,1,1
24-May-2018 12:50:15,-151.2,0.900075,-0.1773375,0.3127375,0.731875,-0.035625,0.617625,6.577,-0.73905,0.055175,-0.632725,-30.3035555555556,2.62111111111111,29.0622222222222,136.955666666667,0.723466666666667,0.417966666666667,0.586133333333333,-0.526666666666667,-0.646666666666667,-0.24,0.112,-0.721116666666667,-0.407133333333333,0.505283333333333,0.0303333333333333,0.477666666666667,-0.193,694.996666666667,1,1,1,1
24-May-2018 12:50:15,-151.2,0.900075,-0.1773375,0.3127375,0.731875,-0.035625,0.617625,6.577,-0.73905,0.055175,-0.632725,-30.3035555555556,2.62111111111111,29.0622222222222,136.955666666667,0.723466666666667,0.417966666666667,0.586133333333333,-0.526666666666667,-0.646666666666667,-0.24,0.112,-0.721116666666667,-0.407133333333333,0.505283333333333,0.0303333333333333,0.477666666666667,-0.193,694.996666666667,1,1,1,1
24-May-2018 12:50:16,-90,0.900216666666667,-0.175283333333333,0.31515,0.5246,0.3294,0.0128,6.526,-0.78436,0.10628,-0.66312,30.3766666666667,-13.5433333333333,26.2155555555556,120.749,0.7256,0.4149,0.58375,-0.785,-2.19,-0.635,0.133,-0.719216666666667,-0.406383333333333,0.508966666666667,0.587,0.3125,0.061,694.6735,1,1,1,1
24-May-2018 12:50:16,-90,0.900216666666667,-0.175283333333333,0.31515,0.5246,0.3294,0.0128,6.526,-0.78436,0.10628,-0.66312,30.3766666666667,-13.5433333333333,26.2155555555556,120.749,0.7256,0.4149,0.58375,-0.785,-2.19,-0.635,0.133,-0.719216666666667,-0.406383333333333,0.508966666666667,0.587,0.3125,0.061,694.6735,1,1,1,1
24-May-2018 12:50:16,-90,0.900216666666667,-0.175283333333333,0.31515,0.5246,0.3294,0.0128,6.526,-0.78436,0.10628,-0.66312,30.3766666666667,-13.5433333333333,26.2155555555556,120.749,0.7256,0.4149,0.58375,-0.785,-2.19,-0.635,0.133,-0.719216666666667,-0.406383333333333,0.508966666666667,0.587,0.3125,0.061,694.6735,1,1,1,1
24-May-2018 12:50:16,-90,0.900216666666667,-0.175283333333333,0.31515,0.5246,0.3294,0.0128,6.526,-0.78436,0.10628,-0.66312,30.3766666666667,-13.5433333333333,26.2155555555556,120.749,0.7256,0.4149,0.58375,-0.785,-2.19,-0.635,0.133,-0.719216666666667,-0.406383333333333,0.508966666666667,0.587,0.3125,0.061,694.6735,1,1,1,1
24-May-2018 12:50:17,-52.8571428571429,0.9013,-0.17262,0.31378,0.833666666666667,0.223666666666667,0.325333333333333,6.521,-0.696533333333333,0.0528333333333333,-0.650366666666667,13.2284,-12.512,4.5,120.749,0.72595,0.4218,0.5823,0.427,-0.545,-0.333,0.139,-0.7239,-0.40335,0.504475,0.772333333333333,1.34133333333333,-0.345666666666667,694.358,1,1,1,1
24-May-2018 12:50:17,-52.8571428571429,0.9013,-0.17262,0.31378,0.833666666666667,0.223666666666667,0.325333333333333,6.521,-0.696533333333333,0.0528333333333333,-0.650366666666667,13.2284,-12.512,4.5,120.749,0.72595,0.4218,0.5823,0.427,-0.545,-0.333,0.139,-0.7239,-0.40335,0.504475,0.772333333333333,1.34133333333333,-0.345666666666667,694.358,1,1,1,1
24-May-2018 12:50:17,-52.8571428571429,0.9013,-0.17262,0.31378,0.833666666666667,0.223666666666667,0.325333333333333,6.521,-0.696533333333333,0.0528333333333333,-0.650366666666667,13.2284,-12.512,4.5,120.749,0.72595,0.4218,0.5823,0.427,-0.545,-0.333,0.139,-0.7239,-0.40335,0.504475,0.772333333333333,1.34133333333333,-0.345666666666667,694.358,1,1,1,1
24-May-2018 12:50:17,-52.8571428571429,0.9013,-0.17262,0.31378,0.833666666666667,0.223666666666667,0.325333333333333,6.521,-0.696533333333333,0.0528333333333333,-0.650366666666667,13.2284,-12.512,4.5,120.749,0.72595,0.4218,0.5823,0.427,-0.545,-0.333,0.139,-0.7239,-0.40335,0.504475,0.772333333333333,1.34133333333333,-0.345666666666667,694.358,1,1,1,1
24-May-2018 12:50:18,-27.25,0.898983333333333,-0.170566666666667,0.3238,0.648,0.32875,0.19825,6.5225,-0.73618,0.09548,-0.73428,0.3751,-2.5423,-9.029,116.313,0.7216,0.42085,0.5863,-0.45,-0.97,-0.365,0.106,-0.723271428571429,-0.400971428571429,0.507157142857143,0.548875,-0.160125,-0.236375,692.141,1,1,1,1
24-May-2018 12:50:18,-27.25,0.898983333333333,-0.170566666666667,0.3238,0.648,0.32875,0.19825,6.5225,-0.73618,0.09548,-0.73428,0.3751,-2.5423,-9.029,116.313,0.7216,0.42085,0.5863,-0.45,-0.97,-0.365,0.106,-0.723271428571429,-0.400971428571429,0.507157142857143,0.548875,-0.160125,-0.236375,692.141,1,1,1,1
24-May-2018 12:50:18,-27.25,0.898983333333333,-0.170566666666667,0.3238,0.648,0.32875,0.19825,6.5225,-0.73618,0.09548,-0.73428,0.3751,-2.5423,-9.029,116.313,0.7216,0.42085,0.5863,-0.45,-0.97,-0.365,0.106,-0.723271428571429,-0.400971428571429,0.507157142857143,0.548875,-0.160125,-0.236375,692.141,1,1,1,1
24-May-2018 12:50:18,-27.25,0.898983333333333,-0.170566666666667,0.3238,0.648,0.32875,0.19825,6.5225,-0.73618,0.09548,-0.73428,0.3751,-2.5423,-9.029,116.313,0.7216,0.42085,0.5863,-0.45,-0.97,-0.365,0.106,-0.723271428571429,-0.400971428571429,0.507157142857143,0.548875,-0.160125,-0.236375,692.141,1,1,1,1
24-May-2018 12:50:19,-7.42857142857143,0.900716666666667,-0.170416666666667,0.31625,0.443125,-0.54725,0.388875,6.585,-0.79815,-0.05175,-0.609775,12.3363333333333,14.3413333333333,-15.55,107.441,0.721575,0.4281,0.578675,0.0167500000000001,-1.0025,-0.59,0.13,-0.715333333333333,-0.3877,0.53005,4.61383333333333,-1.10766666666667,0.305,695.11875,1,1,1,1
24-May-2018 12:50:19,-7.42857142857143,0.900716666666667,-0.170416666666667,0.31625,0.443125,-0.54725,0.388875,6.585,-0.79815,-0.05175,-0.609775,12.3363333333333,14.3413333333333,-15.55,107.441,0.721575,0.4281,0.578675,0.0167500000000001,-1.0025,-0.59,0.13,-0.715333333333333,-0.3877,0.53005,4.61383333333333,-1.10766666666667,0.305,695.11875,1,1,1,1
24-May-2018 12:50:19,-7.42857142857143,0.900716666666667,-0.170416666666667,0.31625,0.443125,-0.54725,0.388875,6.585,-0.79815,-0.05175,-0.609775,12.3363333333333,14.3413333333333,-15.55,107.441,0.721575,0.4281,0.578675,0.0167500000000001,-1.0025,-0.59,0.13,-0.715333333333333,-0.3877,0.53005,4.61383333333333,-1.10766666666667,0.305,695.11875,1,1,1,1
24-May-2018 12:50:19,-7.42857142857143,0.900716666666667,-0.170416666666667,0.31625,0.443125,-0.54725,0.388875,6.585,-0.79815,-0.05175,-0.609775,12.3363333333333,14.3413333333333,-15.55,107.441,0.721575,0.4281,0.578675,0.0167500000000001,-1.0025,-0.59,0.13,-0.715333333333333,-0.3877,0.53005,4.61383333333333,-1.10766666666667,0.305,695.11875,1,1,1,1
24-May-2018 12:50:20,6.22222222222222,0.903957142857143,-0.170171428571429,0.306614285714286,0.406666666666667,-0.738333333333333,0.5795,6.587,-0.84186,-0.0511,-0.60308,-6.45188888888889,-10.8575555555556,7.53333333333333,107.441,0.724366666666667,0.427233333333333,0.577866666666667,-0.87,-0.851666666666667,-0.243333333333333,0.106,-0.711416666666667,-0.37865,0.550083333333333,-0.426666666666667,0.813,-0.0813333333333334,715.256,1,1,1,1
24-May-2018 12:50:20,6.22222222222222,0.903957142857143,-0.170171428571429,0.306614285714286,0.406666666666667,-0.738333333333333,0.5795,6.587,-0.84186,-0.0511,-0.60308,-6.45188888888889,-10.8575555555556,7.53333333333333,107.441,0.724366666666667,0.427233333333333,0.577866666666667,-0.87,-0.851666666666667,-0.243333333333333,0.106,-0.711416666666667,-0.37865,0.550083333333333,-0.426666666666667,0.813,-0.0813333333333334,715.256,1,1,1,1
24-May-2018 12:50:20,6.22222222222222,0.903957142857143,-0.170171428571429,0.306614285714286,0.406666666666667,-0.738333333333333,0.5795,6.587,-0.84186,-0.0511,-0.60308,-6.45188888888889,-10.8575555555556,7.53333333333333,107.441,0.724366666666667,0.427233333333333,0.577866666666667,-0.87,-0.851666666666667,-0.243333333333333,0.106,-0.711416666666667,-0.37865,0.550083333333333,-0.426666666666667,0.813,-0.0813333333333334,715.256,1,1,1,1
24-May-2018 12:50:20,6.22222222222222,0.903957142857143,-0.170171428571429,0.306614285714286,0.406666666666667,-0.738333333333333,0.5795,6.587,-0.84186,-0.0511,-0.60308,-6.45188888888889,-10.8575555555556,7.53333333333333,107.441,0.724366666666667,0.427233333333333,0.577866666666667,-0.87,-0.851666666666667,-0.243333333333333,0.106,-0.711416666666667,-0.37865,0.550083333333333,-0.426666666666667,0.813,-0.0813333333333334,715.256,1,1,1,1
24-May-2018 12:50:21,19.6666666666667,0.905757142857143,-0.172014285714286,0.299271428571429,1.28914285714286,-0.381,0.427,6.559,-0.80706,-0.0486,-0.61866,59.3155555555555,-5.682,28.2344444444444,104.1065,0.723933333333333,0.4208,0.584766666666667,-0.0725,-0.16625,0.3355,0.1195,-0.70942,-0.37578,0.5469,0.0811666666666667,-0.142166666666667,0.0713333333333333,712.534,1,1,1,1
24-May-2018 12:50:21,19.6666666666667,0.905757142857143,-0.172014285714286,0.299271428571429,1.28914285714286,-0.381,0.427,6.559,-0.80706,-0.0486,-0.61866,59.3155555555555,-5.682,28.2344444444444,104.1065,0.723933333333333,0.4208,0.584766666666667,-0.0725,-0.16625,0.3355,0.1195,-0.70942,-0.37578,0.5469,0.0811666666666667,-0.142166666666667,0.0713333333333333,712.534,1,1,1,1
24-May-2018 12:50:21,19.6666666666667,0.905757142857143,-0.172014285714286,0.299271428571429,1.28914285714286,-0.381,0.427,6.559,-0.80706,-0.0486,-0.61866,59.3155555555555,-5.682,28.2344444444444,104.1065,0.723933333333333,0.4208,0.584766666666667,-0.0725,-0.16625,0.3355,0.1195,-0.70942,-0.37578,0.5469,0.0811666666666667,-0.142166666666667,0.0713333333333333,712.534,1,1,1,1
24-May-2018 12:50:21,19.6666666666667,0.905757142857143,-0.172014285714286,0.299271428571429,1.28914285714286,-0.381,0.427,6.559,-0.80706,-0.0486,-0.61866,59.3155555555555,-5.682,28.2344444444444,104.1065,0.723933333333333,0.4208,0.584766666666667,-0.0725,-0.16625,0.3355,0.1195,-0.70942,-0.37578,0.5469,0.0811666666666667,-0.142166666666667,0.0713333333333333,712.534,1,1,1,1
24-May-2018 12:50:22,27.6666666666667,0.907755555555556,-0.1699,0.295022222222222,0.576333333333333,0.104111111111111,0.494777777777778,6.559,-0.7682,-0.148975,-0.662375,94.582,9.4367,53.556,102.995,0.721966666666667,0.412033333333333,0.5946,-0.566666666666667,-0.32,0.225333333333333,0.13,-0.70912,-0.38388,0.54794,-0.457333333333333,0.457166666666667,0.142333333333333,710.79,1,1,1,1
24-May-2018 12:50:22,27.6666666666667,0.907755555555556,-0.1699,0.295022222222222,0.576333333333333,0.104111111111111,0.494777777777778,6.559,-0.7682,-0.148975,-0.662375,94.582,9.4367,53.556,102.995,0.721966666666667,0.412033333333333,0.5946,-0.566666666666667,-0.32,0.225333333333333,0.13,-0.70912,-0.38388,0.54794,-0.457333333333333,0.457166666666667,0.142333333333333,710.79,1,1,1,1
24-May-2018 12:50:22,27.6666666666667,0.907755555555556,-0.1699,0.295022222222222,0.576333333333333,0.104111111111111,0.494777777777778,6.559,-0.7682,-0.148975,-0.662375,94.582,9.4367,53.556,102.995,0.721966666666667,0.412033333333333,0.5946,-0.566666666666667,-0.32,0.225333333333333,0.13,-0.70912,-0.38388,0.54794,-0.457333333333333,0.457166666666667,0.142333333333333,710.79,1,1,1,1
24-May-2018 12:50:22,27.6666666666667,0.907755555555556,-0.1699,0.295022222222222,0.576333333333333,0.104111111111111,0.494777777777778,6.559,-0.7682,-0.148975,-0.662375,94.582,9.4367,53.556,102.995,0.721966666666667,0.412033333333333,0.5946,-0.566666666666667,-0.32,0.225333333333333,0.13,-0.70912,-0.38388,0.54794,-0.457333333333333,0.457166666666667,0.142333333333333,710.79,1,1,1,1
24-May-2018 12:50:23,35.6,0.9051,-0.1724375,0.2997375,0.840222222222222,0.494777777777778,0.284777777777778,6.559,-0.80456,-0.18266,-0.69698,77.76,10.5872222222222,75.3077777777778,103.130333333333,0.720633333333333,0.4151,0.593933333333333,-0.456,-1.54083333333333,-0.413166666666667,0.103,-0.709033333333333,-0.383966666666667,0.543233333333333,1.15857142857143,-0.148142857142857,-0.165571428571429,712.1815,1,1,1,1
24-May-2018 12:50:23,35.6,0.9051,-0.1724375,0.2997375,0.840222222222222,0.494777777777778,0.284777777777778,6.559,-0.80456,-0.18266,-0.69698,77.76,10.5872222222222,75.3077777777778,103.130333333333,0.720633333333333,0.4151,0.593933333333333,-0.456,-1.54083333333333,-0.413166666666667,0.103,-0.709033333333333,-0.383966666666667,0.543233333333333,1.15857142857143,-0.148142857142857,-0.165571428571429,712.1815,1,1,1,1
24-May-2018 12:50:23,35.6,0.9051,-0.1724375,0.2997375,0.840222222222222,0.494777777777778,0.284777777777778,6.559,-0.80456,-0.18266,-0.69698,77.76,10.5872222222222,75.3077777777778,103.130333333333,0.720633333333333,0.4151,0.593933333333333,-0.456,-1.54083333333333,-0.413166666666667,0.103,-0.709033333333333,-0.383966666666667,0.543233333333333,1.15857142857143,-0.148142857142857,-0.165571428571429,712.1815,1,1,1,1
24-May-2018 12:50:23,35.6,0.9051,-0.1724375,0.2997375,0.840222222222222,0.494777777777778,0.284777777777778,6.559,-0.80456,-0.18266,-0.69698,77.76,10.5872222222222,75.3077777777778,103.130333333333,0.720633333333333,0.4151,0.593933333333333,-0.456,-1.54083333333333,-0.413166666666667,0.103,-0.709033333333333,-0.383966666666667,0.543233333333333,1.15857142857143,-0.148142857142857,-0.165571428571429,712.1815,1,1,1,1
24-May-2018 12:50:24,39.7777777777778,0.9070625,-0.167175,0.296975,0.996,-0.415777777777778,0.305,6.559,-0.86625,0.075775,-0.620425,43.8444444444444,20.69,111.171111111111,103.401,0.72055,0.41495,0.59335,-0.98625,-0.483,0.12225,0.106,-0.705375,-0.377525,0.552275,0.10675,-0.10675,0.183,712.1815,1,1,1,1
24-May-2018 12:50:24,39.7777777777778,0.9070625,-0.167175,0.296975,0.996,-0.415777777777778,0.305,6.559,-0.86625,0.075775,-0.620425,43.8444444444444,20.69,111.171111111111,103.401,0.72055,0.41495,0.59335,-0.98625,-0.483,0.12225,0.106,-0.705375,-0.377525,0.552275,0.10675,-0.10675,0.183,712.1815,1,1,1,1
24-May-2018 12:50:24,39.7777777777778,0.9070625,-0.167175,0.296975,0.996,-0.415777777777778,0.305,6.559,-0.86625,0.075775,-0.620425,43.8444444444444,20.69,111.171111111111,103.401,0.72055,0.41495,0.59335,-0.98625,-0.483,0.12225,0.106,-0.705375,-0.377525,0.552275,0.10675,-0.10675,0.183,712.1815,1,1,1,1
24-May-2018 12:50:24,39.7777777777778,0.9070625,-0.167175,0.296975,0.996,-0.415777777777778,0.305,6.559,-0.86625,0.075775,-0.620425,43.8444444444444,20.69,111.171111111111,103.401,0.72055,0.41495,0.59335,-0.98625,-0.483,0.12225,0.106,-0.705375,-0.377525,0.552275,0.10675,-0.10675,0.183,0,1,1,1,1
24-May-2018 12:50:25,42.5555555555556,0.912083333333333,-0.169466666666667,0.286816666666667,1.446,-0.668428571428571,0.993285714285714,6.559,-0.78206,0.3014,-0.63446,96.3211111111111,10.3996666666667,105.803333333333,103.401,0.722225,0.403925,0.602675,-0.18,-0.575,0.488,0.115,-0.690883333333333,-0.38915,0.563166666666667,-0.723142857142857,-0.836285714285714,-0.244,723.727,1,1,1,1
24-May-2018 12:50:25,42.5555555555556,0.912083333333333,-0.169466666666667,0.286816666666667,1.446,-0.668428571428571,0.993285714285714,6.559,-0.78206,0.3014,-0.63446,96.3211111111111,10.3996666666667,105.803333333333,103.401,0.722225,0.403925,0.602675,-0.18,-0.575,0.488,0.115,-0.690883333333333,-0.38915,0.563166666666667,-0.723142857142857,-0.836285714285714,-0.244,723.727,1,1,1,1
24-May-2018 12:50:25,42.5555555555556,0.912083333333333,-0.169466666666667,0.286816666666667,1.446,-0.668428571428571,0.993285714285714,6.559,-0.78206,0.3014,-0.63446,96.3211111111111,10.3996666666667,105.803333333333,103.401,0.722225,0.403925,0.602675,-0.18,-0.575,0.488,0.115,-0.690883333333333,-0.38915,0.563166666666667,-0.723142857142857,-0.836285714285714,-0.244,723.727,1,1,1,1
24-May-2018 12:50:25,42.5555555555556,0.912083333333333,-0.169466666666667,0.286816666666667,1.446,-0.668428571428571,0.993285714285714,0,-0.78206,0.3014,-0.63446,96.3211111111111,10.3996666666667,105.803333333333,103.401,0.722225,0.403925,0.602675,-0.18,-0.575,0.488,0.115,-0.690883333333333,-0.38915,0.563166666666667,-0.723142857142857,-0.836285714285714,-0.244,723.727,1,1,1,1
24-May-2018 12:50:26,44.375,0.9077,-0.182325,0.2792,0.8786,-0.594,0.5612,6.84557142857143,-0.69985,0.24825,-0.6845,91.494,-12.322,77.778,115.088,0.7207,0.399133333333333,0.6087,-1.78666666666667,-1.19666666666667,-0.239666666666667,0.106,-0.688271428571429,-0.392757142857143,0.560542857142857,-0.1706,0.7438,0.4756,728.521,1,1,1,1
24-May-2018 12:50:26,44.375,0.9077,-0.182325,0.2792,0.8786,-0.594,0.5612,6.84557142857143,-0.69985,0.24825,-0.6845,91.494,-12.322,77.778,115.088,0.7207,0.399133333333333,0.6087,-1.78666666666667,-1.19666666666667,-0.239666666666667,0.106,-0.688271428571429,-0.392757142857143,0.560542857142857,-0.1706,0.7438,0.4756,728.521,1,1,1,1
24-May-2018 12:50:26,44.375,0.9077,-0.182325,0.2792,0.8786,-0.594,0.5612,6.84557142857143,-0.69985,0.24825,-0.6845,91.494,-12.322,77.778,115.088,0.7207,0.399133333333333,0.6087,-1.78666666666667,-1.19666666666667,-0.239666666666667,0.106,-0.688271428571429,-0.392757142857143,0.560542857142857,-0.1706,0.7438,0.4756,728.521,1,1,1,1
24-May-2018 12:50:26,44.375,0.9077,-0.182325,0.2792,0.8786,-0.594,0.5612,6.84557142857143,-0.69985,0.24825,-0.6845,91.494,-12.322,77.778,115.088,0.7207,0.399133333333333,0.6087,-1.78666666666667,-1.19666666666667,-0.239666666666667,0.106,-0.688271428571429,-0.392757142857143,0.560542857142857,-0.1706,0.7438,0.4756,728.521,1,1,1,1
24-May-2018 12:50:27,47.2222222222222,0.909542857142857,-0.176557142857143,0.276271428571429,-0.3165,1.701,-0.33975,6.72333333333333,-0.7103,0.171616666666667,-0.71695,82.86125,-25.6375,59.88125,138.462,0.725,0.3946,0.603066666666667,-0.243,-1.2465,-0.3,0.151666666666667,-0.710257142857143,-0.382128571428571,0.534985714285714,1.8395,2.805,0.680833333333333,717.136333333333,1,1,1,1
24-May-2018 12:50:27,47.2222222222222,0.909542857142857,-0.176557142857143,0.276271428571429,-0.3165,1.701,-0.33975,6.72333333333333,-0.7103,0.171616666666667,-0.71695,82.86125,-25.6375,59.88125,138.462,0.725,0.3946,0.603066666666667,-0.243,-1.2465,-0.3,0.151666666666667,-0.710257142857143,-0.382128571428571,0.534985714285714,1.8395,2.805,0.680833333333333,717.136333333333,1,1,1,1
24-May-2018 12:50:27,47.2222222222222,0.909542857142857,-0.176557142857143,0.276271428571429,-0.3165,1.701,-0.33975,6.72333333333333,-0.7103,0.171616666666667,-0.71695,82.86125,-25.6375,59.88125,138.462,0.725,0.3946,0.603066666666667,-0.243,-1.2465,-0.3,0.151666666666667,-0.710257142857143,-0.382128571428571,0.534985714285714,1.8395,2.805,0.680833333333333,717.136333333333,1,1,1,1
24-May-2018 12:50:27,47.2222222222222,0.909542857142857,-0.176557142857143,0.276271428571429,-0.3165,1.701,-0.33975,6.72333333333333,-0.7103,0.171616666666667,-0.71695,82.86125,-25.6375,59.88125,138.462,0.725,0.3946,0.603066666666667,-0.243,-1.2465,-0.3,0.151666666666667,-0.710257142857143,-0.382128571428571,0.534985714285714,1.8395,2.805,0.680833333333333,717.136333333333,1,1,1,1
24-May-2018 12:50:28,49,0.904866666666667,-0.158133333333333,0.290133333333333,8.06716666666667,-5.164,1.89166666666667,6.5115,-0.806083333333333,0.161,-0.70575,64.7242857142857,-28.3,56.1714285714286,139.1125,0.72365,0.39765,0.60285,-0.09,-2.555,-2.585,0.127666666666667,-0.7452,-0.380366666666667,0.503766666666667,-7.74383333333333,-2.8455,1.94116666666667,717.136333333333,1,1,1,1
24-May-2018 12:50:28,49,0.904866666666667,-0.158133333333333,0.290133333333333,8.06716666666667,-5.164,1.89166666666667,6.5115,-0.806083333333333,0.161,-0.70575,64.7242857142857,-28.3,56.1714285714286,139.1125,0.72365,0.39765,0.60285,-0.09,-2.555,-2.585,0.127666666666667,-0.7452,-0.380366666666667,0.503766666666667,-7.74383333333333,-2.8455,1.94116666666667,717.136333333333,1,1,1,1
24-May-2018 12:50:28,49,0.904866666666667,-0.158133333333333,0.290133333333333,8.06716666666667,-5.164,1.89166666666667,6.5115,-0.806083333333333,0.161,-0.70575,64.7242857142857,-28.3,56.1714285714286,139.1125,0.72365,0.39765,0.60285,-0.09,-2.555,-2.585,0.127666666666667,-0.7452,-0.380366666666667,0.503766666666667,-7.74383333333333,-2.8455,1.94116666666667,717.136333333333,1,1,1,1
24-May-2018 12:50:28,49,0.904866666666667,-0.158133333333333,0.290133333333333,8.06716666666667,-5.164,1.89166666666667,6.5115,-0.806083333333333,0.161,-0.70575,64.7242857142857,-28.3,56.1714285714286,139.1125,0.72365,0.39765,0.60285,-0.09,-2.555,-2.585,0.127666666666667,-0.7452,-0.380366666666667,0.503766666666667,-7.74383333333333,-2.8455,1.94116666666667,0,1,1,1,1
24-May-2018 12:50:29,49.8571428571429,0.919333333333333,-0.143833333333333,0.242683333333333,3.84316666666667,1.20066666666667,0.224666666666667,5.9695,-0.78745,0.109725,-0.689725,51.52,-16.1566666666667,21.6936666666667,139.763,0.7201,0.41555,0.5841,0.094,-1.34,0.3675,0.1,-0.7255,-0.3704875,0.5159125,1.8414,1.2438,0.012,706.5288,1,1,1,1
24-May-2018 12:50:29,49.8571428571429,0.919333333333333,-0.143833333333333,0.242683333333333,3.84316666666667,1.20066666666667,0.224666666666667,5.9695,-0.78745,0.109725,-0.689725,51.52,-16.1566666666667,21.6936666666667,139.763,0.7201,0.41555,0.5841,0.094,-1.34,0.3675,0.1,-0.7255,-0.3704875,0.5159125,1.8414,1.2438,0.012,706.5288,1,1,1,1
24-May-2018 12:50:29,49.8571428571429,0.919333333333333,-0.143833333333333,0.242683333333333,3.84316666666667,1.20066666666667,0.224666666666667,5.9695,-0.78745,0.109725,-0.689725,51.52,-16.1566666666667,21.6936666666667,139.763,0.7201,0.41555,0.5841,0.094,-1.34,0.3675,0.1,-0.7255,-0.3704875,0.5159125,1.8414,1.2438,0.012,706.5288,1,1,1,1
24-May-2018 12:50:29,49.8571428571429,0.919333333333333,-0.143833333333333,0.242683333333333,3.84316666666667,1.20066666666667,0.224666666666667,5.9695,-0.78745,0.109725,-0.689725,51.52,-16.1566666666667,21.6936666666667,139.763,0.7201,0.41555,0.5841,0.094,-1.34,0.3675,0.1,-0.7255,-0.3704875,0.5159125,1.8414,1.2438,0.012,706.5288,1,1,1,1
24-May-2018 12:50:30,50.1428571428571,0.91402,-0.16104,0.26872,-1.279,1.81375,-0.0725,5.704,-0.845325,0.0746,-0.62455,26.3655555555556,6.92955555555556,-7.82211111111111,136.39775,0.7391,0.3535,0.5959,2.8806,-0.5102,3.6846,0.047,-0.738983333333333,-0.358666666666667,0.51515,-0.426714285714286,-1.21057142857143,0.827428571428571,710.78,1,1,1,1
24-May-2018 12:50:30,50.1428571428571,0.91402,-0.16104,0.26872,-1.279,1.81375,-0.0725,5.704,-0.845325,0.0746,-0.62455,26.3655555555556,6.92955555555556,-7.82211111111111,136.39775,0.7391,0.3535,0.5959,2.8806,-0.5102,3.6846,0.047,-0.738983333333333,-0.358666666666667,0.51515,-0.426714285714286,-1.21057142857143,0.827428571428571,710.78,1,1,1,1
24-May-2018 12:50:30,50.1428571428571,0.91402,-0.16104,0.26872,-1.279,1.81375,-0.0725,5.704,-0.845325,0.0746,-0.62455,26.3655555555556,6.92955555555556,-7.82211111111111,136.39775,0.7391,0.3535,0.5959,2.8806,-0.5102,3.6846,0.047,-0.738983333333333,-0.358666666666667,0.51515,-0.426714285714286,-1.21057142857143,0.827428571428571,710.78,1,1,1,1
24-May-2018 12:50:30,50.1428571428571,0.91402,-0.16104,0.26872,-1.279,1.81375,-0.0725,5.704,-0.845325,0.0746,-0.62455,26.3655555555556,6.92955555555556,-7.82211111111111,136.39775,0.7391,0.3535,0.5959,2.8806,-0.5102,3.6846,0.047,-0.738983333333333,-0.358666666666667,0.51515,-0.426714285714286,-1.21057142857143,0.827428571428571,710.78,1,1,1,1
24-May-2018 12:50:31,50.6666666666667,0.913857142857143,-0.158114285714286,0.2774,1.003,-0.222857142857143,0.784142857142857,5.65466666666667,-0.8047,-0.02674,-0.60838,-6.710125,-2.506,-14.0275,126.302,0.747,0.3908,0.57665,-1.735,-1.55,-3.56,0.047,-0.730516666666667,-0.356616666666667,0.526233333333333,0.148142857142857,0.932,0.0175714285714286,713.993,1,1,1,1
24-May-2018 12:50:31,50.6666666666667,0.913857142857143,-0.158114285714286,0.2774,1.003,-0.222857142857143,0.784142857142857,5.65466666666667,-0.8047,-0.02674,-0.60838,-6.710125,-2.506,-14.0275,126.302,0.747,0.3908,0.57665,-1.735,-1.55,-3.56,0.047,-0.730516666666667,-0.356616666666667,0.526233333333333,0.148142857142857,0.932,0.0175714285714286,713.993,1,1,1,1
24-May-2018 12:50:31,50.6666666666667,0.913857142857143,-0.158114285714286,0.2774,1.003,-0.222857142857143,0.784142857142857,5.65466666666667,-0.8047,-0.02674,-0.60838,-6.710125,-2.506,-14.0275,126.302,0.747,0.3908,0.57665,-1.735,-1.55,-3.56,0.047,-0.730516666666667,-0.356616666666667,0.526233333333333,0.148142857142857,0.932,0.0175714285714286,713.993,1,1,1,1
24-May-2018 12:50:31,50.6666666666667,0.913857142857143,-0.158114285714286,0.2774,1.003,-0.222857142857143,0.784142857142857,5.65466666666667,-0.8047,-0.02674,-0.60838,-6.710125,-2.506,-14.0275,126.302,0.747,0.3908,0.57665,-1.735,-1.55,-3.56,0,-0.730516666666667,-0.356616666666667,0.526233333333333,0.148142857142857,0.932,0.0175714285714286,713.993,1,1,1,1
24-May-2018 12:50:32,50.9,0.914928571428572,-0.157328571428571,0.275657142857143,0.94625,0.298,0.488,5.653,-0.80316,-0.01876,-0.6568,-23.7444444444444,0.3,4.77033333333333,126.302,0.744366666666667,0.3937,0.573733333333333,-1.02,-0.59325,-0.04475,0.0118,-0.73575,-0.360766666666667,0.5116,-0.874,0.599333333333333,0.304833333333333,710.979,1,1,1,1
24-May-2018 12:50:32,50.9,0.914928571428572,-0.157328571428571,0.275657142857143,0.94625,0.298,0.488,5.653,-0.80316,-0.01876,-0.6568,-23.7444444444444,0.3,4.77033333333333,126.302,0.744366666666667,0.3937,0.573733333333333,-1.02,-0.59325,-0.04475,0.0118,-0.73575,-0.360766666666667,0.5116,-0.874,0.599333333333333,0.304833333333333,710.979,1,1,1,1
24-May-2018 12:50:32,50.9,0.914928571428572,-0.157328571428571,0.275657142857143,0.94625,0.298,0.488,5.653,-0.80316,-0.01876,-0.6568,-23.7444444444444,0.3,4.77033333333333,126.302,0.744366666666667,0.3937,0.573733333333333,-1.02,-0.59325,-0.04475,0.0118,-0.73575,-0.360766666666667,0.5116,-0.874,0.599333333333333,0.304833333333333,710.979,1,1,1,1
24-May-2018 12:50:32,50.9,0.914928571428572,-0.157328571428571,0.275657142857143,0.94625,0.298,0.488,5.653,-0.80316,-0.01876,-0.6568,-23.7444444444444,0.3,4.77033333333333,126.302,0.744366666666667,0.3937,0.573733333333333,-1.02,-0.59325,-0.04475,0.0118,-0.73575,-0.360766666666667,0.5116,-0.874,0.599333333333333,0.304833333333333,710.979,1,1,1,1
24-May-2018 12:50:33,51.25,0.913022222222222,-0.160633333333333,0.2891,1.72133333333333,0.779555555555556,0.752222222222222,5.653,-0.77492,0.02566,-0.67032,2.127,-2.32825,19.776625,129.492666666667,0.7442,0.396966666666667,0.573433333333333,1.3125,-1.855,0.13925,0.0765,-0.7415,-0.363933333333333,0.5144,-0.7804,-0.5124,0.4636,702.432333333333,1,1,1,1
24-May-2018 12:50:33,51.25,0.913022222222222,-0.160633333333333,0.2891,1.72133333333333,0.779555555555556,0.752222222222222,5.653,-0.77492,0.02566,-0.67032,2.127,-2.32825,19.776625,129.492666666667,0.7442,0.396966666666667,0.573433333333333,1.3125,-1.855,0.13925,0.0765,-0.7415,-0.363933333333333,0.5144,-0.7804,-0.5124,0.4636,702.432333333333,1,1,1,1
24-May-2018 12:50:33,51.25,0.913022222222222,-0.160633333333333,0.2891,1.72133333333333,0.779555555555556,0.752222222222222,5.653,-0.77492,0.02566,-0.67032,2.127,-2.32825,19.776625,129.492666666667,0.7442,0.396966666666667,0.573433333333333,1.3125,-1.855,0.13925,0.0765,-0.7415,-0.363933333333333,0.5144,-0.7804,-0.5124,0.4636,702.432333333333,1,1,1,1
24-May-2018 12:50:33,51.25,0.913022222222222,-0.160633333333333,0.2891,1.72133333333333,0.779555555555556,0.752222222222222,5.653,-0.77492,0.02566,-0.67032,2.127,-2.32825,19.776625,129.492666666667,0.7442,0.396966666666667,0.573433333333333,1.3125,-1.855,0.13925,0.0765,-0.7415,-0.363933333333333,0.5144,-0.7804,-0.5124,0.4636,702.432333333333,1,1,1,1
24-May-2018 12:50:34,51.25,0.9095375,-0.1599,0.2957625,1.83785714285714,-0.511285714285714,0.853857142857143,5.653,-0.818675,0.061025,-0.720375,3.3602,5.2317,21.441,131.088,0.751366666666667,0.408,0.558166666666667,1.3125,-1.855,0.13925,0.094,-0.727525,-0.3722,0.5242,-2.6065,-0.9145,0.884,707.865,1,1,1,1
24-May-2018 12:50:34,51.25,0.9095375,-0.1599,0.2957625,1.83785714285714,-0.511285714285714,0.853857142857143,5.653,-0.818675,0.061025,-0.720375,3.3602,5.2317,21.441,131.088,0.751366666666667,0.408,0.558166666666667,1.3125,-1.855,0.13925,0.094,-0.727525,-0.3722,0.5242,-2.6065,-0.9145,0.884,707.865,1,1,1,1
24-May-2018 12:50:34,51.25,0.9095375,-0.1599,0.2957625,1.83785714285714,-0.511285714285714,0.853857142857143,5.653,-0.818675,0.061025,-0.720375,3.3602,5.2317,21.441,131.088,0.751366666666667,0.408,0.558166666666667,1.3125,-1.855,0.13925,0.094,-0.727525,-0.3722,0.5242,-2.6065,-0.9145,0.884,707.865,1,1,1,1
24-May-2018 12:50:34,51.25,0.9095375,-0.1599,0.2957625,1.83785714285714,-0.511285714285714,0.853857142857143,5.653,-0.818675,0.061025,-0.720375,3.3602,5.2317,21.441,131.088,0.751366666666667,0.408,0.558166666666667,0,0,0,0.094,-0.727525,-0.3722,0.5242,-2.6065,-0.9145,0.884,707.865,1,1,1,1
24-May-2018 12:50:35,51.5555555555556,0.912722222222222,-0.168088888888889,0.281022222222222,3.73977777777778,-1.01188888888889,1.02355555555556,5.653,-0.8379,0.19136,-0.71096,-8.189625,32.76325,15.72625,131.088,0.739833333333333,0.4016,0.573566666666667,0.672,0.308,0.833666666666667,0.114,-0.728275,-0.377375,0.52225,3.183,1.8658,-1.3658,717.660333333333,1,1,1,1
24-May-2018 12:50:35,51.5555555555556,0.912722222222222,-0.168088888888889,0.281022222222222,3.73977777777778,-1.01188888888889,1.02355555555556,5.653,-0.8379,0.19136,-0.71096,-8.189625,32.76325,15.72625,131.088,0.739833333333333,0.4016,0.573566666666667,0.672,0.308,0.833666666666667,0.114,-0.728275,-0.377375,0.52225,3.183,1.8658,-1.3658,717.660333333333,1,1,1,1
24-May-2018 12:50:35,51.5555555555556,0.912722222222222,-0.168088888888889,0.281022222222222,3.73977777777778,-1.01188888888889,1.02355555555556,5.653,-0.8379,0.19136,-0.71096,-8.189625,32.76325,15.72625,131.088,0.739833333333333,0.4016,0.573566666666667,0.672,0.308,0.833666666666667,0.114,-0.728275,-0.377375,0.52225,3.183,1.8658,-1.3658,717.660333333333,1,1,1,1
24-May-2018 12:50:35,51.5555555555556,0.912722222222222,-0.168088888888889,0.281022222222222,3.73977777777778,-1.01188888888889,1.02355555555556,5.653,-0.8379,0.19136,-0.71096,-8.189625,32.76325,15.72625,131.088,0.739833333333333,0.4016,0.573566666666667,0.672,0.308,0.833666666666667,0.114,-0.728275,-0.377375,0.52225,3.183,1.8658,-1.3658,717.660333333333,1,1,1,1
24-May-2018 12:50:36,51.9,0.913116666666667,-0.165166666666667,0.272366666666667,-6.74666666666667,0.3575,-2.20333333333333,5.426,-0.71875,0.32905,-0.6179,27.5396,-0.7517,29.936,137.702666666667,0.73755,0.403525,0.5743,3.232,2.0425,2.4695,0.098,-0.733233333333333,-0.356616666666667,0.5264,3.09228571428571,1.58528571428571,-1.82071428571429,711.742,1,1,1,1
24-May-2018 12:50:36,51.9,0.913116666666667,-0.165166666666667,0.272366666666667,-6.74666666666667,0.3575,-2.20333333333333,5.426,-0.71875,0.32905,-0.6179,27.5396,-0.7517,29.936,137.702666666667,0.73755,0.403525,0.5743,3.232,2.0425,2.4695,0.098,-0.733233333333333,-0.356616666666667,0.5264,3.09228571428571,1.58528571428571,-1.82071428571429,711.742,1,1,1,1
24-May-2018 12:50:36,51.9,0.913116666666667,-0.165166666666667,0.272366666666667,-6.74666666666667,0.3575,-2.20333333333333,5.426,-0.71875,0.32905,-0.6179,27.5396,-0.7517,29.936,137.702666666667,0.73755,0.403525,0.5743,3.232,2.0425,2.4695,0.098,-0.733233333333333,-0.356616666666667,0.5264,3.09228571428571,1.58528571428571,-1.82071428571429,711.742,1,1,1,1
24-May-2018 12:50:36,51.9,0.913116666666667,-0.165166666666667,0.272366666666667,-6.74666666666667,0.3575,-2.20333333333333,5.426,-0.71875,0.32905,-0.6179,27.5396,-0.7517,29.936,137.702666666667,0.73755,0.403525,0.5743,3.232,2.0425,2.4695,0.098,-0.733233333333333,-0.356616666666667,0.5264,3.09228571428571,1.58528571428571,-1.82071428571429,711.742,1,1,1,1
24-May-2018 12:50:37,52,0.924328571428571,-0.138171428571429,0.254528571428571,1.49242857142857,0.124,-0.0674285714285714,5.30275,-0.70728,0.2185,-0.69566,42.74,-17.99325,21.54875,141.01,0.756,0.3535,0.5827,-7.584,-4.254,-2.812,0.0706666666666667,-0.730966666666667,-0.3683,0.53,-0.3168,-0.3658,0.9026,710.314666666667,1,1,1,1
24-May-2018 12:50:37,52,0.924328571428571,-0.138171428571429,0.254528571428571,1.49242857142857,0.124,-0.0674285714285714,5.30275,-0.70728,0.2185,-0.69566,42.74,-17.99325,21.54875,141.01,0.756,0.3535,0.5827,-7.584,-4.254,-2.812,0.0706666666666667,-0.730966666666667,-0.3683,0.53,-0.3168,-0.3658,0.9026,710.314666666667,1,1,1,1
24-May-2018 12:50:37,52,0.924328571428571,-0.138171428571429,0.254528571428571,1.49242857142857,0.124,-0.0674285714285714,5.30275,-0.70728,0.2185,-0.69566,42.74,-17.99325,21.54875,141.01,0.756,0.3535,0.5827,-7.584,-4.254,-2.812,0.0706666666666667,-0.730966666666667,-0.3683,0.53,-0.3168,-0.3658,0.9026,710.314666666667,1,1,1,1
24-May-2018 12:50:37,52,0.924328571428571,-0.138171428571429,0.254528571428571,1.49242857142857,0.124,-0.0674285714285714,5.30275,-0.70728,0.2185,-0.69566,42.74,-17.99325,21.54875,141.01,0.756,0.3535,0.5827,-7.584,-4.254,-2.812,0.0706666666666667,-0.730966666666667,-0.3683,0.53,-0.3168,-0.3658,0.9026,710.314666666667,1,1,1,1
24-May-2018 12:50:38,52,0.927616666666667,-0.1362,0.258983333333333,1.69185714285714,-0.119428571428571,1.01914285714286,5.22,-0.69625,0.178525,-0.69875,0.478666666666667,-9.04666666666667,-7.88411111111111,141.01,0.7615,0.354,0.5856,1.419,-1.215,1.57075,0.094,-0.722683333333333,-0.373433333333333,0.528333333333333,5.17283333333333,3.86166666666667,-3.29266666666667,711.343,1,1,1,1
24-May-2018 12:50:38,52,0.927616666666667,-0.1362,0.258983333333333,1.69185714285714,-0.119428571428571,1.01914285714286,5.22,-0.69625,0.178525,-0.69875,0.478666666666667,-9.04666666666667,-7.88411111111111,141.01,0.7615,0.354,0.5856,1.419,-1.215,1.57075,0.094,-0.722683333333333,-0.373433333333333,0.528333333333333,5.17283333333333,3.86166666666667,-3.29266666666667,711.343,1,1,1,1
24-May-2018 12:50:38,52,0.927616666666667,-0.1362,0.258983333333333,1.69185714285714,-0.119428571428571,1.01914285714286,5.22,-0.69625,0.178525,-0.69875,0.478666666666667,-9.04666666666667,-7.88411111111111,141.01,0.7615,0.354,0.5856,1.419,-1.215,1.57075,0.094,-0.722683333333333,-0.373433333333333,0.528333333333333,5.17283333333333,3.86166666666667,-3.29266666666667,711.343,1,1,1,1
24-May-2018 12:50:38,52,0.927616666666667,-0.1362,0.258983333333333,1.69185714285714,-0.119428571428571,1.01914285714286,5.22,-0.69625,0.178525,-0.69875,0.478666666666667,-9.04666666666667,-7.88411111111111,141.01,0.7615,0.354,0.5856,1.419,-1.215,1.57075,0.094,-0.722683333333333,-0.373433333333333,0.528333333333333,5.17283333333333,3.86166666666667,-3.29266666666667,711.343,1,1,1,1
24-May-2018 12:50:39,52,0.9216,-0.143942857142857,0.284857142857143,-5.74833333333333,5.0095,-0.697333333333333,5.25366666666667,-0.800075,0.20085,-0.793725,-4.12766666666667,-1.92044444444444,-25.4666666666667,138.542,0.7625,0.36975,0.56325,0.1855,0.71775,0.33775,0.092,-0.739725,-0.36975,0.513125,5.0732,2.9756,-2.634,705.968166666667,1,1,1,1
24-May-2018 12:50:39,52,0.9216,-0.143942857142857,0.284857142857143,-5.74833333333333,5.0095,-0.697333333333333,5.25366666666667,-0.800075,0.20085,-0.793725,-4.12766666666667,-1.92044444444444,-25.4666666666667,138.542,0.7625,0.36975,0.56325,0.1855,0.71775,0.33775,0.092,-0.739725,-0.36975,0.513125,5.0732,2.9756,-2.634,705.968166666667,1,1,1,1
24-May-2018 12:50:39,52,0.9216,-0.143942857142857,0.284857142857143,-5.74833333333333,5.0095,-0.697333333333333,5.25366666666667,-0.800075,0.20085,-0.793725,-4.12766666666667,-1.92044444444444,-25.4666666666667,138.542,0.7625,0.36975,0.56325,0.1855,0.71775,0.33775,0.092,-0.739725,-0.36975,0.513125,5.0732,2.9756,-2.634,705.968166666667,1,1,1,1
24-May-2018 12:50:39,52,0.9216,-0.143942857142857,0.284857142857143,-5.74833333333333,5.0095,-0.697333333333333,5.25366666666667,-0.800075,0.20085,-0.793725,-4.12766666666667,-1.92044444444444,-25.4666666666667,138.542,0.7625,0.36975,0.56325,0.1855,0.71775,0.33775,0.092,-0.739725,-0.36975,0.513125,5.0732,2.9756,-2.634,705.968166666667,1,1,1,1
24-May-2018 12:50:40,51.875,0.905883333333333,-0.159483333333333,0.302966666666667,-3.23657142857143,-1.50514285714286,-0.234428571428571,5.2735,-0.78522,0.09126,-0.6979,25.01,25.6811111111111,-23.8111111111111,137.308,0.7458,0.4229,0.5616,-4.22,-3.8825,-7.09,0.13,-0.72688,-0.3701,0.51908,-1.72471428571429,0.496571428571429,-0.487857142857143,707.5725,1,1,1,1
24-May-2018 12:50:40,51.875,0.905883333333333,-0.159483333333333,0.302966666666667,-3.23657142857143,-1.50514285714286,-0.234428571428571,5.2735,-0.78522,0.09126,-0.6979,25.01,25.6811111111111,-23.8111111111111,137.308,0.7458,0.4229,0.5616,-4.22,-3.8825,-7.09,0.13,-0.72688,-0.3701,0.51908,-1.72471428571429,0.496571428571429,-0.487857142857143,707.5725,1,1,1,1
24-May-2018 12:50:40,51.875,0.905883333333333,-0.159483333333333,0.302966666666667,-3.23657142857143,-1.50514285714286,-0.234428571428571,5.2735,-0.78522,0.09126,-0.6979,25.01,25.6811111111111,-23.8111111111111,137.308,0.7458,0.4229,0.5616,-4.22,-3.8825,-7.09,0.13,-0.72688,-0.3701,0.51908,-1.72471428571429,0.496571428571429,-0.487857142857143,707.5725,1,1,1,1
24-May-2018 12:50:40,51.875,0.905883333333333,-0.159483333333333,0.302966666666667,-3.23657142857143,-1.50514285714286,-0.234428571428571,5.2735,-0.78522,0.09126,-0.6979,25.01,25.6811111111111,-23.8111111111111,137.308,0.7458,0.4229,0.5616,-4.22,-3.8825,-7.09,0.13,-0.72688,-0.3701,0.51908,-1.72471428571429,0.496571428571429,-0.487857142857143,707.5725,1,1,1,1
24-May-2018 12:50:41,51.8571428571429,0.909171428571429,-0.164642857142857,0.295714285714286,0.958857142857143,0.306,0.723142857142857,5.29933333333333,-0.82105,-0.062275,-0.65185,-7.655,-5.19966666666667,-19.7433333333333,137.308,0.733675,0.40175,0.579425,-4.22,-3.8825,-7.09,0.116,-0.72705,-0.3689,0.51695,1.43283333333333,0.609833333333333,-0.193166666666667,704.4115,1,1,1,1
24-May-2018 12:50:41,51.8571428571429,0.909171428571429,-0.164642857142857,0.295714285714286,0.958857142857143,0.306,0.723142857142857,5.29933333333333,-0.82105,-0.062275,-0.65185,-7.655,-5.19966666666667,-19.7433333333333,137.308,0.733675,0.40175,0.579425,-4.22,-3.8825,-7.09,0.116,-0.72705,-0.3689,0.51695,1.43283333333333,0.609833333333333,-0.193166666666667,704.4115,1,1,1,1
24-May-2018 12:50:41,51.8571428571429,0.909171428571429,-0.164642857142857,0.295714285714286,0.958857142857143,0.306,0.723142857142857,5.29933333333333,-0.82105,-0.062275,-0.65185,-7.655,-5.19966666666667,-19.7433333333333,137.308,0.733675,0.40175,0.579425,-4.22,-3.8825,-7.09,0.116,-0.72705,-0.3689,0.51695,1.43283333333333,0.609833333333333,-0.193166666666667,704.4115,1,1,1,1
24-May-2018 12:50:41,51.8571428571429,0.909171428571429,-0.164642857142857,0.295714285714286,0.958857142857143,0.306,0.723142857142857,5.29933333333333,-0.82105,-0.062275,-0.65185,-7.655,-5.19966666666667,-19.7433333333333,137.308,0.733675,0.40175,0.579425,0,0,0,0.116,-0.72705,-0.3689,0.51695,1.43283333333333,0.609833333333333,-0.193166666666667,704.4115,1,1,1,1
24-May-2018 12:50:42,52,0.908116666666667,-0.1591,0.293233333333333,0.936833333333333,0.488666666666667,-0.0183333333333333,5.256,-0.738575,-0.02165,-0.657625,-18.4357142857143,-12.1328571428571,-9.74428571428571,148.743,0.73505,0.3996,0.58485,-0.445666666666667,-0.548,-0.626666666666667,0.116,-0.72862,-0.36708,0.52564,0.7318,-1.0122,-0.2562,704.25,1,1,1,1
24-May-2018 12:50:42,52,0.908116666666667,-0.1591,0.293233333333333,0.936833333333333,0.488666666666667,-0.0183333333333333,5.256,-0.738575,-0.02165,-0.657625,-18.4357142857143,-12.1328571428571,-9.74428571428571,148.743,0.73505,0.3996,0.58485,-0.445666666666667,-0.548,-0.626666666666667,0.116,-0.72862,-0.36708,0.52564,0.7318,-1.0122,-0.2562,704.25,1,1,1,1
24-May-2018 12:50:42,52,0.908116666666667,-0.1591,0.293233333333333,0.936833333333333,0.488666666666667,-0.0183333333333333,5.256,-0.738575,-0.02165,-0.657625,-18.4357142857143,-12.1328571428571,-9.74428571428571,148.743,0.73505,0.3996,0.58485,-0.445666666666667,-0.548,-0.626666666666667,0.116,-0.72862,-0.36708,0.52564,0.7318,-1.0122,-0.2562,704.25,1,1,1,1
24-May-2018 12:50:42,52,0.908116666666667,-0.1591,0.293233333333333,0.936833333333333,0.488666666666667,-0.0183333333333333,5.256,-0.738575,-0.02165,-0.657625,-18.4357142857143,-12.1328571428571,-9.74428571428571,148.743,0.73505,0.3996,0.58485,-0.445666666666667,-0.548,-0.626666666666667,0,-0.72862,-0.36708,0.52564,0.7318,-1.0122,-0.2562,704.25,1,1,1,1
24-May-2018 12:50:43,52,0.910955555555556,-0.159855555555556,0.290988888888889,0.495,0.315111111111111,0.562555555555555,5.256,-0.7368,-0.06656,-0.7016,15.1454444444444,-9.02,9.05477777777778,148.743,0.74432,0.39918,0.56964,-1.005,-2.1,-0.3345,0.0455,-0.72312,-0.36886,0.53182,0.113285714285714,1.12357142857143,-1.03671428571429,712.007,1,1,1,1
24-May-2018 12:50:43,52,0.910955555555556,-0.159855555555556,0.290988888888889,0.495,0.315111111111111,0.562555555555555,5.256,-0.7368,-0.06656,-0.7016,15.1454444444444,-9.02,9.05477777777778,148.743,0.74432,0.39918,0.56964,-1.005,-2.1,-0.3345,0.0455,-0.72312,-0.36886,0.53182,0.113285714285714,1.12357142857143,-1.03671428571429,712.007,1,1,1,1
24-May-2018 12:50:43,52,0.910955555555556,-0.159855555555556,0.290988888888889,0.495,0.315111111111111,0.562555555555555,5.256,-0.7368,-0.06656,-0.7016,15.1454444444444,-9.02,9.05477777777778,148.743,0.74432,0.39918,0.56964,-1.005,-2.1,-0.3345,0.0455,-0.72312,-0.36886,0.53182,0.113285714285714,1.12357142857143,-1.03671428571429,712.007,1,1,1,1
24-May-2018 12:50:43,52,0.910955555555556,-0.159855555555556,0.290988888888889,0.495,0.315111111111111,0.562555555555555,5.256,-0.7368,-0.06656,-0.7016,15.1454444444444,-9.02,9.05477777777778,148.743,0.74432,0.39918,0.56964,-1.005,-2.1,-0.3345,0.0455,-0.72312,-0.36886,0.53182,0.113285714285714,1.12357142857143,-1.03671428571429,712.007,1,1,1,1
24-May-2018 12:50:44,52,0.9074125,-0.1654625,0.2998625,-0.213333333333333,0.123555555555556,0.664666666666667,5.256,-0.78005,-0.063775,-0.811875,0.4317,8.3413,11.9733,148.743,0.7406,0.3956,0.5854,-0.635,0.13825,0.22975,0.094,-0.71575,-0.38395,0.532566666666667,-0.3538,-0.6706,-0.4268,710.8736,1,1,1,1
24-May-2018 12:50:44,52,0.9074125,-0.1654625,0.2998625,-0.213333333333333,0.123555555555556,0.664666666666667,5.256,-0.78005,-0.063775,-0.811875,0.4317,8.3413,11.9733,148.743,0.7406,0.3956,0.5854,-0.635,0.13825,0.22975,0.094,-0.71575,-0.38395,0.532566666666667,-0.3538,-0.6706,-0.4268,710.8736,1,1,1,1
24-May-2018 12:50:44,52,0.9074125,-0.1654625,0.2998625,-0.213333333333333,0.123555555555556,0.664666666666667,5.256,-0.78005,-0.063775,-0.811875,0.4317,8.3413,11.9733,148.743,0.7406,0.3956,0.5854,-0.635,0.13825,0.22975,0.094,-0.71575,-0.38395,0.532566666666667,-0.3538,-0.6706,-0.4268,710.8736,1,1,1,1
24-May-2018 12:50:44,52,0.9074125,-0.1654625,0.2998625,-0.213333333333333,0.123555555555556,0.664666666666667,5.256,-0.78005,-0.063775,-0.811875,0.4317,8.3413,11.9733,148.743,0.7406,0.3956,0.5854,-0.635,0.13825,0.22975,0.094,-0.71575,-0.38395,0.532566666666667,-0.3538,-0.6706,-0.4268,710.8736,1,1,1,1
24-May-2018 12:50:45,52,0.90772,-0.17143,0.29389,1.136,0.192,0.291125,5.256,-0.78008,0.04462,-0.7158,-18.2733333333333,19.8072222222222,17.32,143.335,0.7424,0.3882,0.5847,-0.81,0.0616666666666668,0.407666666666667,0.088,-0.720333333333333,-0.37915,0.53335,0.6706,0.8778,0.244,710.683,1,1,1,1
24-May-2018 12:50:45,52,0.90772,-0.17143,0.29389,1.136,0.192,0.291125,5.256,-0.78008,0.04462,-0.7158,-18.2733333333333,19.8072222222222,17.32,143.335,0.7424,0.3882,0.5847,-0.81,0.0616666666666668,0.407666666666667,0.088,-0.720333333333333,-0.37915,0.53335,0.6706,0.8778,0.244,710.683,1,1,1,1
24-May-2018 12:50:45,52,0.90772,-0.17143,0.29389,1.136,0.192,0.291125,5.256,-0.78008,0.04462,-0.7158,-18.2733333333333,19.8072222222222,17.32,143.335,0.7424,0.3882,0.5847,-0.81,0.0616666666666668,0.407666666666667,0.088,-0.720333333333333,-0.37915,0.53335,0.6706,0.8778,0.244,710.683,1,1,1,1
24-May-2018 12:50:45,52,0.90772,-0.17143,0.29389,1.136,0.192,0.291125,5.256,-0.78008,0.04462,-0.7158,-18.2733333333333,19.8072222222222,17.32,143.335,0.7424,0.3882,0.5847,-0.81,0.0616666666666668,0.407666666666667,0.088,-0.720333333333333,-0.37915,0.53335,0.6706,0.8778,0.244,710.683,1,1,1,1
24-May-2018 12:50:46,52,0.907875,-0.1688,0.29145,1.037,0.3298,0.464,5.395625,-0.8095,0.171225,-0.670125,21.8271111111111,-10.9392222222222,25.2611111111111,143.335,0.7321,0.3936,0.5936,0.27675,-0.285,-0.4075,0.0333333333333333,-0.72126,-0.38178,0.52848,0.314833333333333,0.5185,-0.294833333333333,714.666,1,1,1,1
24-May-2018 12:50:46,52,0.907875,-0.1688,0.29145,1.037,0.3298,0.464,5.395625,-0.8095,0.171225,-0.670125,21.8271111111111,-10.9392222222222,25.2611111111111,143.335,0.7321,0.3936,0.5936,0.27675,-0.285,-0.4075,0.0333333333333333,-0.72126,-0.38178,0.52848,0.314833333333333,0.5185,-0.294833333333333,714.666,1,1,1,1
24-May-2018 12:50:46,52,0.907875,-0.1688,0.29145,1.037,0.3298,0.464,5.395625,-0.8095,0.171225,-0.670125,21.8271111111111,-10.9392222222222,25.2611111111111,143.335,0.7321,0.3936,0.5936,0.27675,-0.285,-0.4075,0.0333333333333333,-0.72126,-0.38178,0.52848,0.314833333333333,0.5185,-0.294833333333333,714.666,1,1,1,1
24-May-2018 12:50:46,52,0.907875,-0.1688,0.29145,1.037,0.3298,0.464,5.395625,-0.8095,0.171225,-0.670125,21.8271111111111,-10.9392222222222,25.2611111111111,143.335,0.7321,0.3936,0.5936,0.27675,-0.285,-0.4075,0.0333333333333333,-0.72126,-0.38178,0.52848,0.314833333333333,0.5185,-0.294833333333333,714.666,1,1,1,1
24-May-2018 12:50:47,51.875,0.906333333333333,-0.170133333333333,0.299,0.191,-0.00522222222222223,0.454111111111111,5.383,-0.72752,0.05056,-0.65554,19.1576666666667,-23.1111111111111,0.435222222222222,143.335,0.731533333333333,0.394966666666667,0.593933333333333,-1.70333333333333,-1.07333333333333,0.0613333333333333,0.1,-0.716442857142857,-0.383128571428571,0.530357142857143,1.26033333333333,-0.305,-0.488,711.932,1,1,1,1
24-May-2018 12:50:47,51.875,0.906333333333333,-0.170133333333333,0.299,0.191,-0.00522222222222223,0.454111111111111,5.383,-0.72752,0.05056,-0.65554,19.1576666666667,-23.1111111111111,0.435222222222222,143.335,0.731533333333333,0.394966666666667,0.593933333333333,-1.70333333333333,-1.07333333333333,0.0613333333333333,0.1,-0.716442857142857,-0.383128571428571,0.530357142857143,1.26033333333333,-0.305,-0.488,711.932,1,1,1,1
24-May-2018 12:50:47,51.875,0.906333333333333,-0.170133333333333,0.299,0.191,-0.00522222222222223,0.454111111111111,5.383,-0.72752,0.05056,-0.65554,19.1576666666667,-23.1111111111111,0.435222222222222,143.335,0.731533333333333,0.394966666666667,0.593933333333333,-1.70333333333333,-1.07333333333333,0.0613333333333333,0.1,-0.716442857142857,-0.383128571428571,0.530357142857143,1.26033333333333,-0.305,-0.488,711.932,1,1,1,1
24-May-2018 12:50:47,51.875,0.906333333333333,-0.170133333333333,0.299,0.191,-0.00522222222222223,0.454111111111111,5.383,-0.72752,0.05056,-0.65554,19.1576666666667,-23.1111111111111,0.435222222222222,143.335,0.731533333333333,0.394966666666667,0.593933333333333,-1.70333333333333,-1.07333333333333,0.0613333333333333,0.1,-0.716442857142857,-0.383128571428571,0.530357142857143,1.26033333333333,-0.305,-0.488,711.932,1,1,1,1
