TIME,HELMET_RAW,BELT_ACC_X,BELT_ACC_Y,BELT_ACC_Z,BELT_ANG_X,BELT_ANG_Y,BELT_ANG_Z,BELT_LUMINOSITY,NECK_ACC_X,NECK_ACC_Y,NECK_ACC_Z,NECK_ANG_X,NECK_ANG_Y,NECK_ANG_Z,NECK_LUMINOSITY,PCKT_ACC_X,PCKT_ACC_Y,PCKT_ACC_Z,PCKT_ANG_X,PCKT_ANG_Y,PCKT_ANG_Z,PCKT_LUMINOSITY,WRST_ACC_X,WRST_ACC_Y,WRST_ACC_Z,WRST_ANG_X,WRST_ANG_Y,WRST_ANG_Z,WRST_LUMINOSITY,IR_1,IR_2,IR_3,IR_4
24-May-2018 14:32:08,-221.222222222222,0.41845,0.0243,-0.86695,-1.46,0.244,-0.79,4.457,0,0,0,0,0,0,0,-0.4588,0.88916,0.25498,13.1168333333333,-1.94783333333333,-10.7831666666667,1.70775,0.991983333333333,-0.343,-0.0423833333333333,-9.248,6.50416666666667,23.4453333333333,746.309,1,1,1,1
24-May-2018 14:32:08,-221.222222222222,0.41845,0.0243,-0.86695,-1.46,0.244,-0.79,4.457,0,0,0,0,0,0,0,-0.4588,0.88916,0.25498,13.1168333333333,-1.94783333333333,-10.7831666666667,1.70775,0.991983333333333,-0.343,-0.0423833333333333,-9.248,6.50416666666667,23.4453333333333,746.309,1,1,1,1
24-May-2018 14:32:08,-221.222222222222,0.41845,0.0243,-0.86695,-1.46,0.244,-0.79,4.457,0,0,0,0,0,0,0,-0.4588,0.88916,0.25498,13.1168333333333,-1.94783333333333,-10.7831666666667,1.70775,0.991983333333333,-0.343,-0.0423833333333333,-9.248,6.50416666666667,23.4453333333333,746.309,1,1,1,1
24-May-2018 14:32:08,-221.222222222222,0,0,0,-1.46,0.244,-0.79,4.457,0,0,0,0,0,0,0,-0.4588,0.88916,0.25498,13.1168333333333,-1.94783333333333,-10.7831666666667,1.70775,0.991983333333333,-0.343,-0.0423833333333333,-9.248,6.50416666666667,23.4453333333333,746.309,1,1,1,1
24-May-2018 14:32:09,-221.222222222222,0.456871428571429,0.0637714285714286,-0.842314285714286,2.94375,17.11775,-6.8525,3.36475,0,0,0,0,0,0,0,-0.80804,0.17466,0.19944,22.3775,-6.986625,-78.995,1.53875,0.865833333333333,-0.494233333333333,-0.0405333333333333,-13.544125,17.286625,24.939,902.517,1,1,1,1
24-May-2018 14:32:09,-221.222222222222,0.456871428571429,0.0637714285714286,-0.842314285714286,2.94375,17.11775,-6.8525,3.36475,0,0,0,0,0,0,0,-0.80804,0.17466,0.19944,22.3775,-6.986625,-78.995,1.53875,0.865833333333333,-0.494233333333333,-0.0405333333333333,-13.544125,17.286625,24.939,902.517,1,1,1,1
24-May-2018 14:32:09,-221.222222222222,0.456871428571429,0.0637714285714286,-0.842314285714286,2.94375,17.11775,-6.8525,3.36475,0,0,0,0,0,0,0,-0.80804,0.17466,0.19944,22.3775,-6.986625,-78.995,1.53875,0.865833333333333,-0.494233333333333,-0.0405333333333333,-13.544125,17.286625,24.939,902.517,1,1,1,1
24-May-2018 14:32:09,-221.222222222222,0.456871428571429,0.0637714285714286,-0.842314285714286,2.94375,17.11775,-6.8525,3.36475,0,0,0,0,0,0,0,-0.80804,0.17466,0.19944,22.3775,-6.986625,-78.995,1.53875,0.865833333333333,-0.494233333333333,-0.0405333333333333,-13.544125,17.286625,24.939,902.517,1,1,1,1
24-May-2018 14:32:10,-221.222222222222,-0.72036,-0.12674,-0.38732,40.76,-47.9051111111111,6.361,0.0293333333333333,0,0,0,0,0,0,0,-0.681516666666667,-0.615083333333333,0.299233333333333,-6.9825,27.985,-46.585,1.66633333333333,-0.0844,-0.483216666666667,0.0780833333333334,21.5458333333333,-9.79516666666666,-8.709,746.19075,1,1,1,1
24-May-2018 14:32:10,-221.222222222222,-0.72036,-0.12674,-0.38732,40.76,-47.9051111111111,6.361,0.0293333333333333,0,0,0,0,0,0,0,-0.681516666666667,-0.615083333333333,0.299233333333333,-6.9825,27.985,-46.585,1.66633333333333,-0.0844,-0.483216666666667,0.0780833333333334,21.5458333333333,-9.79516666666666,-8.709,746.19075,1,1,1,1
24-May-2018 14:32:10,-221.222222222222,-0.72036,-0.12674,-0.38732,40.76,-47.9051111111111,6.361,0.0293333333333333,0,0,0,0,0,0,0,-0.681516666666667,-0.615083333333333,0.299233333333333,-6.9825,27.985,-46.585,1.66633333333333,-0.0844,-0.483216666666667,0.0780833333333334,21.5458333333333,-9.79516666666666,-8.709,746.19075,1,1,1,1
24-May-2018 14:32:10,-221.222222222222,-0.72036,-0.12674,-0.38732,40.76,-47.9051111111111,6.361,0.0293333333333333,0,0,0,0,0,0,0,-0.681516666666667,-0.615083333333333,0.299233333333333,-6.9825,27.985,-46.585,1.66633333333333,-0.0844,-0.483216666666667,0.0780833333333334,21.5458333333333,-9.79516666666666,-8.709,746.19075,1,1,1,1
24-May-2018 14:32:11,-221.222222222222,-0.999742857142857,0.1431,-0.138042857142857,-23.108,-3.2394,-6.014,0.135333333333333,0,0,0,0,0,0,0,-0.431475,-0.945525,0.3257,27.014,4.276,11.928,1.736,-0.5922,0.0179,0.646733333333333,-7.94975,-46.074,8.91,507.268333333333,1,1,1,1
24-May-2018 14:32:11,-221.222222222222,-0.999742857142857,0.1431,-0.138042857142857,-23.108,-3.2394,-6.014,0.135333333333333,0,0,0,0,0,0,0,-0.431475,-0.945525,0.3257,27.014,4.276,11.928,1.736,-0.5922,0.0179,0.646733333333333,-7.94975,-46.074,8.91,507.268333333333,1,1,1,1
24-May-2018 14:32:11,-221.222222222222,-0.999742857142857,0.1431,-0.138042857142857,-23.108,-3.2394,-6.014,0.135333333333333,0,0,0,0,0,0,0,-0.431475,-0.945525,0.3257,27.014,4.276,11.928,1.736,-0.5922,0.0179,0.646733333333333,-7.94975,-46.074,8.91,507.268333333333,1,1,1,1
24-May-2018 14:32:11,-221.222222222222,-0.999742857142857,0.1431,-0.138042857142857,-23.108,-3.2394,-6.014,0.135333333333333,0,0,0,0,0,0,0,-0.431475,-0.945525,0.3257,27.014,4.276,11.928,1.736,-0.5922,0.0179,0.646733333333333,-7.94975,-46.074,8.91,507.268333333333,1,1,1,1
24-May-2018 14:32:12,-221.222222222222,-1.05428,0.1054,-0.14406,-89.62,7.5578,-12.74,0.312,0,0,0,0,0,0,0,-0.41645,-0.98085,-0.1359,14.326,-63.666,14.174,1.5845,-0.48742,-0.05712,0.84412,-2.17466666666667,-2.57116666666667,-1.748,856.7948,1,1,1,1
24-May-2018 14:32:12,-221.222222222222,-1.05428,0.1054,-0.14406,-89.62,7.5578,-12.74,0.312,0,0,0,0,0,0,0,-0.41645,-0.98085,-0.1359,14.326,-63.666,14.174,1.5845,-0.48742,-0.05712,0.84412,-2.17466666666667,-2.57116666666667,-1.748,856.7948,1,1,1,1
24-May-2018 14:32:12,-221.222222222222,-1.05428,0.1054,-0.14406,-89.62,7.5578,-12.74,0.312,0,0,0,0,0,0,0,-0.41645,-0.98085,-0.1359,14.326,-63.666,14.174,1.5845,-0.48742,-0.05712,0.84412,-2.17466666666667,-2.57116666666667,-1.748,856.7948,1,1,1,1
24-May-2018 14:32:12,-221.222222222222,-1.05428,0.1054,-0.14406,-89.62,7.5578,-12.74,0.312,0,0,0,0,0,0,0,-0.41645,-0.98085,-0.1359,14.326,-63.666,14.174,1.5845,-0.48742,-0.05712,0.84412,-2.17466666666667,-2.57116666666667,-1.748,856.7948,1,1,1,1
24-May-2018 14:32:13,-221.222222222222,-1.0105,0.0814,-0.1545,-101,-3.72,-2.74,0.312,0,0,0,0,0,0,0,-0.1289,-0.96526,0.02078,-29.834125,-38.331375,-0.855874999999999,1.349,-0.5251,-0.00624000000000001,0.86298,34.6428571428571,3.68457142857143,13.8327142857143,855.9,0,1,1,0
24-May-2018 14:32:13,-221.222222222222,-1.0105,0.0814,-0.1545,-101,-3.72,-2.74,0.312,0,0,0,0,0,0,0,-0.1289,-0.96526,0.02078,-29.834125,-38.331375,-0.855874999999999,1.349,-0.5251,-0.00624000000000001,0.86298,34.6428571428571,3.68457142857143,13.8327142857143,855.9,0,1,1,0
24-May-2018 14:32:13,-221.222222222222,-1.0105,0.0814,-0.1545,-101,-3.72,-2.74,0.312,0,0,0,0,0,0,0,-0.1289,-0.96526,0.02078,-29.834125,-38.331375,-0.855874999999999,1.349,-0.5251,-0.00624000000000001,0.86298,34.6428571428571,3.68457142857143,13.8327142857143,855.9,0,1,1,0
24-May-2018 14:32:13,-221.222222222222,-1.0105,0.0814,-0.1545,-101,-3.72,-2.74,0,0,0,0,0,0,0,0,-0.1289,-0.96526,0.02078,-29.834125,-38.331375,-0.855874999999999,1.349,-0.5251,-0.00624000000000001,0.86298,34.6428571428571,3.68457142857143,13.8327142857143,855.9,0,1,1,0
24-May-2018 14:32:14,-221.222222222222,-1.04998,7.99999999999981e-05,-0.19786,-26.1634,1.7218,-1.2546,0.308,0,0,0,0,0,0,0,-0.0164,-1.04134,0.19766,10.727,6.385,22.421,1.58566666666667,0.207183333333333,0.652183333333333,0.5576,-1.63633333333333,-22.7235,73.2623333333333,748.2176,0,0,0,0
24-May-2018 14:32:14,-221.222222222222,-1.04998,7.99999999999981e-05,-0.19786,-26.1634,1.7218,-1.2546,0.308,0,0,0,0,0,0,0,-0.0164,-1.04134,0.19766,10.727,6.385,22.421,1.58566666666667,0.207183333333333,0.652183333333333,0.5576,-1.63633333333333,-22.7235,73.2623333333333,748.2176,0,0,0,0
24-May-2018 14:32:14,-221.222222222222,-1.04998,7.99999999999981e-05,-0.19786,-26.1634,1.7218,-1.2546,0.308,0,0,0,0,0,0,0,-0.0164,-1.04134,0.19766,10.727,6.385,22.421,1.58566666666667,0.207183333333333,0.652183333333333,0.5576,-1.63633333333333,-22.7235,73.2623333333333,748.2176,0,0,0,0
24-May-2018 14:32:14,-221.222222222222,-1.04998,7.99999999999981e-05,-0.19786,-26.1634,1.7218,-1.2546,0.308,0,0,0,0,0,0,0,-0.0164,-1.04134,0.19766,10.727,6.385,22.421,1.58566666666667,0.207183333333333,0.652183333333333,0.5576,-1.63633333333333,-22.7235,73.2623333333333,748.2176,0,0,0,0
24-May-2018 14:32:15,-221.222222222222,-1.0316,0.1242,-0.155633333333333,-8.27,-6.33816666666667,-2.89566666666667,0.308,0,0,0,0,0,0,0,-0.688285714285714,-0.567628571428571,0.536128571428571,56.1148333333333,37.56,58.4,1.499,0.458028571428571,0.641285714285714,0.633157142857143,4.30328571428571,-6.27185714285714,-0.244,664.939666666667,1,1,0,0
24-May-2018 14:32:15,-221.222222222222,-1.0316,0.1242,-0.155633333333333,-8.27,-6.33816666666667,-2.89566666666667,0.308,0,0,0,0,0,0,0,-0.688285714285714,-0.567628571428571,0.536128571428571,56.1148333333333,37.56,58.4,1.499,0.458028571428571,0.641285714285714,0.633157142857143,4.30328571428571,-6.27185714285714,-0.244,664.939666666667,1,1,0,0
24-May-2018 14:32:15,-221.222222222222,-1.0316,0.1242,-0.155633333333333,-8.27,-6.33816666666667,-2.89566666666667,0.308,0,0,0,0,0,0,0,-0.688285714285714,-0.567628571428571,0.536128571428571,56.1148333333333,37.56,58.4,1.499,0.458028571428571,0.641285714285714,0.633157142857143,4.30328571428571,-6.27185714285714,-0.244,664.939666666667,1,1,0,0
24-May-2018 14:32:15,-221.222222222222,-1.0316,0.1242,-0.155633333333333,-8.27,-6.33816666666667,-2.89566666666667,0.308,0,0,0,0,0,0,0,-0.688285714285714,-0.567628571428571,0.536128571428571,56.1148333333333,37.56,58.4,1.499,0.458028571428571,0.641285714285714,0.633157142857143,4.30328571428571,-6.27185714285714,-0.244,664.939666666667,1,1,0,0
24-May-2018 14:32:16,-221.222222222222,-0.165422222222222,-0.0100888888888889,-0.390333333333333,-4.585,65.3875,-4.38975,0.308,0,0,0,0,0,0,0,-0.519285714285714,0.810171428571429,-0.0566714285714286,5.274,-7.0692,30.206,1.27225,0.449475,0.5945625,0.6418,10.22875,7.5155,-2.17975,659.143833333333,0,0,0,0
24-May-2018 14:32:16,-221.222222222222,-0.165422222222222,-0.0100888888888889,-0.390333333333333,-4.585,65.3875,-4.38975,0.308,0,0,0,0,0,0,0,-0.519285714285714,0.810171428571429,-0.0566714285714286,5.274,-7.0692,30.206,1.27225,0.449475,0.5945625,0.6418,10.22875,7.5155,-2.17975,659.143833333333,0,0,0,0
24-May-2018 14:32:16,-221.222222222222,-0.165422222222222,-0.0100888888888889,-0.390333333333333,-4.585,65.3875,-4.38975,0,0,0,0,0,0,0,0,-0.519285714285714,0.810171428571429,-0.0566714285714286,5.274,-7.0692,30.206,1.27225,0.449475,0.5945625,0.6418,10.22875,7.5155,-2.17975,659.143833333333,0,0,0,0
24-May-2018 14:32:16,-221.222222222222,-0.165422222222222,-0.0100888888888889,-0.390333333333333,-4.585,65.3875,-4.38975,0,0,0,0,0,0,0,0,-0.519285714285714,0.810171428571429,-0.0566714285714286,5.274,-7.0692,30.206,1.27225,0.449475,0.5945625,0.6418,10.22875,7.5155,-2.17975,659.143833333333,0,0,0,0
24-May-2018 14:32:17,-221.222222222222,0.40405,0.07565,-0.880825,0.73175,12.47,1.12,0.385,0,0,0,0,0,0,0,-0.6263,0.67285,0.35475,-0.1132,-4.2608,2.7822,1.77733333333333,0.416614285714286,0.6163,0.641528571428571,-2.04714285714286,-0.557571428571428,1.54185714285714,681.690666666667,0,0,0,0
24-May-2018 14:32:17,-221.222222222222,0.40405,0.07565,-0.880825,0.73175,12.47,1.12,0.385,0,0,0,0,0,0,0,-0.6263,0.67285,0.35475,-0.1132,-4.2608,2.7822,1.77733333333333,0.416614285714286,0.6163,0.641528571428571,-2.04714285714286,-0.557571428571428,1.54185714285714,681.690666666667,0,0,0,0
24-May-2018 14:32:17,-221.222222222222,0.40405,0.07565,-0.880825,0.73175,12.47,1.12,0.385,0,0,0,0,0,0,0,-0.6263,0.67285,0.35475,-0.1132,-4.2608,2.7822,1.77733333333333,0.416614285714286,0.6163,0.641528571428571,-2.04714285714286,-0.557571428571428,1.54185714285714,681.690666666667,0,0,0,0
24-May-2018 14:32:17,-221.222222222222,0.40405,0.07565,-0.880825,0.73175,12.47,1.12,0.385,0,0,0,0,0,0,0,-0.6263,0.67285,0.35475,-0.1132,-4.2608,2.7822,1.77733333333333,0.416614285714286,0.6163,0.641528571428571,-2.04714285714286,-0.557571428571428,1.54185714285714,681.690666666667,0,0,0,0
