TIME,HELMET_RAW,BELT_ACC_X,BELT_ACC_Y,BELT_ACC_Z,BELT_ANG_X,BELT_ANG_Y,BELT_ANG_Z,BELT_LUMINOSITY,NECK_ACC_X,NECK_ACC_Y,NECK_ACC_Z,NECK_ANG_X,NECK_ANG_Y,NECK_ANG_Z,NECK_LUMINOSITY,PCKT_ACC_X,PCKT_ACC_Y,PCKT_ACC_Z,PCKT_ANG_X,PCKT_ANG_Y,PCKT_ANG_Z,PCKT_LUMINOSITY,WRST_ACC_X,WRST_ACC_Y,WRST_ACC_Z,WRST_ANG_X,WRST_ANG_Y,WRST_ANG_Z,WRST_LUMINOSITY,IR_1,IR_2,IR_3,IR_4
24-May-2018 12:41:21,66.5,0.1196,0.287533333333333,0.996983333333333,1.14833333333333,0.51,0.2755,7.20333333333333,-0.893775,0.003125,-0.4616,13.8657142857143,33.4971428571429,13.5071428571429,75.601,0.38225,0.63225,-0.57,-1.13633333333333,-0.789666666666667,-0.16,2.853,-0.93778,0.07382,0.1406,0.566428571428572,0.731857142857143,-0.278857142857143,416.4365,1,1,1,1
24-May-2018 12:41:21,66.5,0.1196,0.287533333333333,0.996983333333333,1.14833333333333,0.51,0.2755,7.20333333333333,-0.893775,0.003125,-0.4616,13.8657142857143,33.4971428571429,13.5071428571429,75.601,0.38225,0.63225,-0.57,-1.13633333333333,-0.789666666666667,-0.16,2.853,-0.93778,0.07382,0.1406,0.566428571428572,0.731857142857143,-0.278857142857143,416.4365,1,1,1,1
24-May-2018 12:41:21,66.5,0.1196,0.287533333333333,0.996983333333333,1.14833333333333,0.51,0.2755,7.20333333333333,-0.893775,0.003125,-0.4616,13.8657142857143,33.4971428571429,13.5071428571429,75.601,0.38225,0.63225,-0.57,-1.13633333333333,-0.789666666666667,-0.16,2.853,-0.93778,0.07382,0.1406,0.566428571428572,0.731857142857143,-0.278857142857143,416.4365,1,1,1,1
24-May-2018 12:41:21,66.5,0.1196,0.287533333333333,0.996983333333333,1.14833333333333,0.51,0.2755,7.20333333333333,-0.893775,0.003125,-0.4616,13.8657142857143,33.4971428571429,13.5071428571429,75.601,0.38225,0.63225,-0.57,-1.13633333333333,-0.789666666666667,-0.16,2.853,-0.93778,0.07382,0.1406,0.566428571428572,0.731857142857143,-0.278857142857143,416.4365,1,1,1,1
24-May-2018 12:41:22,59.5555555555556,0.11645,0.28635,0.9936,1.11475,1.3265,-0.226,7.395,-0.863575,0.0815,-0.5347,5.28975,17.55625,13.404625,72.962,0.3739,0.63855,-0.573775,-1.03,-1.49,-1.305,2.826,-0.942475,0.07255,0.135525,0.5795,0.833333333333333,0.355833333333333,414.922,1,1,1,0
24-May-2018 12:41:22,59.5555555555556,0.11645,0.28635,0.9936,1.11475,1.3265,-0.226,7.395,-0.863575,0.0815,-0.5347,5.28975,17.55625,13.404625,72.962,0.3739,0.63855,-0.573775,-1.03,-1.49,-1.305,2.826,-0.942475,0.07255,0.135525,0.5795,0.833333333333333,0.355833333333333,414.922,1,1,1,0
24-May-2018 12:41:22,59.5555555555556,0.11645,0.28635,0.9936,1.11475,1.3265,-0.226,7.395,-0.863575,0.0815,-0.5347,5.28975,17.55625,13.404625,72.962,0.3739,0.63855,-0.573775,-1.03,-1.49,-1.305,2.826,-0.942475,0.07255,0.135525,0.5795,0.833333333333333,0.355833333333333,414.922,1,1,1,0
24-May-2018 12:41:22,59.5555555555556,0.11645,0.28635,0.9936,1.11475,1.3265,-0.226,7.395,-0.863575,0.0815,-0.5347,5.28975,17.55625,13.404625,72.962,0.3739,0.63855,-0.573775,-1.03,-1.49,-1.305,2.826,-0.942475,0.07255,0.135525,0.5795,0.833333333333333,0.355833333333333,414.922,1,1,1,0
24-May-2018 12:41:23,47.4545454545455,0.112828571428571,0.298442857142857,0.993871428571429,1.7086,-1.5828,0.342,7.53333333333333,-0.8577,0.08925,-0.548425,7.03233333333333,-0.554777777777778,3.105,70.323,0.363233333333333,0.639333333333333,-0.577266666666667,0.184,-2.375,-0.91,2.82,-0.9442,0.075725,0.133325,0.955333333333333,0.4675,-0.071,413.568333333333,1,1,1,1
24-May-2018 12:41:23,47.4545454545455,0.112828571428571,0.298442857142857,0.993871428571429,1.7086,-1.5828,0.342,7.53333333333333,-0.8577,0.08925,-0.548425,7.03233333333333,-0.554777777777778,3.105,70.323,0.363233333333333,0.639333333333333,-0.577266666666667,0.184,-2.375,-0.91,2.82,-0.9442,0.075725,0.133325,0.955333333333333,0.4675,-0.071,413.568333333333,1,1,1,1
24-May-2018 12:41:23,47.4545454545455,0.112828571428571,0.298442857142857,0.993871428571429,1.7086,-1.5828,0.342,7.53333333333333,-0.8577,0.08925,-0.548425,7.03233333333333,-0.554777777777778,3.105,70.323,0.363233333333333,0.639333333333333,-0.577266666666667,0.184,-2.375,-0.91,2.82,-0.9442,0.075725,0.133325,0.955333333333333,0.4675,-0.071,413.568333333333,1,1,1,1
24-May-2018 12:41:23,47.4545454545455,0.112828571428571,0.298442857142857,0.993871428571429,1.7086,-1.5828,0.342,7.53333333333333,-0.8577,0.08925,-0.548425,7.03233333333333,-0.554777777777778,3.105,70.323,0.363233333333333,0.639333333333333,-0.577266666666667,0.184,-2.375,-0.91,2.82,-0.9442,0.075725,0.133325,0.955333333333333,0.4675,-0.071,413.568333333333,1,1,1,1
24-May-2018 12:41:24,28.4,0.117516666666667,0.3006,0.9958,2.77928571428571,-0.764142857142857,1.51671428571429,7.44766666666667,-0.899175,0.016975,-0.545375,1.73414285714286,-18.3731428571429,-34.4428571428571,70.323,0.351875,0.64775,-0.5756,-2.228,-1.3998,-1.5458,2.82,-0.941116666666666,0.0715333333333333,0.139683333333333,0.701333333333333,0.630166666666667,-0.00999999999999999,415.626666666667,1,1,1,0
24-May-2018 12:41:24,28.4,0.117516666666667,0.3006,0.9958,2.77928571428571,-0.764142857142857,1.51671428571429,7.44766666666667,-0.899175,0.016975,-0.545375,1.73414285714286,-18.3731428571429,-34.4428571428571,70.323,0.351875,0.64775,-0.5756,-2.228,-1.3998,-1.5458,2.82,-0.941116666666666,0.0715333333333333,0.139683333333333,0.701333333333333,0.630166666666667,-0.00999999999999999,415.626666666667,1,1,1,0
24-May-2018 12:41:24,28.4,0.117516666666667,0.3006,0.9958,2.77928571428571,-0.764142857142857,1.51671428571429,7.44766666666667,-0.899175,0.016975,-0.545375,1.73414285714286,-18.3731428571429,-34.4428571428571,70.323,0.351875,0.64775,-0.5756,-2.228,-1.3998,-1.5458,2.82,-0.941116666666666,0.0715333333333333,0.139683333333333,0.701333333333333,0.630166666666667,-0.00999999999999999,415.626666666667,1,1,1,0
24-May-2018 12:41:24,28.4,0.117516666666667,0.3006,0.9958,2.77928571428571,-0.764142857142857,1.51671428571429,7.44766666666667,-0.899175,0.016975,-0.545375,1.73414285714286,-18.3731428571429,-34.4428571428571,70.323,0.351875,0.64775,-0.5756,-2.228,-1.3998,-1.5458,0,-0.941116666666666,0.0715333333333333,0.139683333333333,0.701333333333333,0.630166666666667,-0.00999999999999999,415.626666666667,1,1,1,0
24-May-2018 12:41:25,36.1111111111111,0.1082,0.28088,0.99414,-2.52,-0.512,-0.7066,7.433,-0.8492,-0.083,-0.5397,-10.6412222222222,-3.43022222222222,-35.6666666666667,75.3163333333333,0.351875,0.64775,-0.5756,0.85525,-1.42825,0.76325,2.848,-0.93868,0.0667,0.13868,0.50325,0.47275,-0.59475,415.5725,0,0,1,0
24-May-2018 12:41:25,36.1111111111111,0.1082,0.28088,0.99414,-2.52,-0.512,-0.7066,7.433,-0.8492,-0.083,-0.5397,-10.6412222222222,-3.43022222222222,-35.6666666666667,75.3163333333333,0.351875,0.64775,-0.5756,0.85525,-1.42825,0.76325,2.848,-0.93868,0.0667,0.13868,0.50325,0.47275,-0.59475,415.5725,0,0,1,0
24-May-2018 12:41:25,36.1111111111111,0.1082,0.28088,0.99414,-2.52,-0.512,-0.7066,7.433,-0.8492,-0.083,-0.5397,-10.6412222222222,-3.43022222222222,-35.6666666666667,75.3163333333333,0.351875,0.64775,-0.5756,0.85525,-1.42825,0.76325,2.848,-0.93868,0.0667,0.13868,0.50325,0.47275,-0.59475,415.5725,0,0,1,0
24-May-2018 12:41:25,36.1111111111111,0.1082,0.28088,0.99414,-2.52,-0.512,-0.7066,7.433,-0.8492,-0.083,-0.5397,-10.6412222222222,-3.43022222222222,-35.6666666666667,75.3163333333333,0,0,0,0.85525,-1.42825,0.76325,2.848,-0.93868,0.0667,0.13868,0.50325,0.47275,-0.59475,415.5725,0,0,1,0
24-May-2018 12:41:26,54.2,0.052625,0.312175,1.0019,7.059,-12.04125,4.058,7.8745,-0.89915,-0.1427,-0.52255,-22.9,20.665,-8.655,85.303,0.33235,0.6437,-0.5869,-0.85,-1.1875,-1.125,2.844,-0.9957,-0.10615,0.35445,-7.75925,-19.71025,-15.47275,416.555,0,0,1,1
24-May-2018 12:41:26,54.2,0.052625,0.312175,1.0019,7.059,-12.04125,4.058,7.8745,-0.89915,-0.1427,-0.52255,-22.9,20.665,-8.655,85.303,0.33235,0.6437,-0.5869,-0.85,-1.1875,-1.125,2.844,-0.9957,-0.10615,0.35445,-7.75925,-19.71025,-15.47275,416.555,0,0,1,1
24-May-2018 12:41:26,54.2,0.052625,0.312175,1.0019,7.059,-12.04125,4.058,7.8745,-0.89915,-0.1427,-0.52255,-22.9,20.665,-8.655,85.303,0.33235,0.6437,-0.5869,-0.85,-1.1875,-1.125,2.844,-0.9957,-0.10615,0.35445,-7.75925,-19.71025,-15.47275,416.555,0,0,1,1
24-May-2018 12:41:26,54.2,0.052625,0.312175,1.0019,7.059,-12.04125,4.058,7.8745,-0.89915,-0.1427,-0.52255,-22.9,20.665,-8.655,85.303,0.33235,0.6437,-0.5869,-0.85,-1.1875,-1.125,2.844,-0.9957,-0.10615,0.35445,-7.75925,-19.71025,-15.47275,416.555,0,0,1,1
24-May-2018 12:41:27,46.7,0.454275,0.17205,0.91135,-24.405,-69.365,19.8445,6.174,-0.90305,-0.0413,-0.52955,-15.764,-7.5234,5.4514,85.303,0.341466666666667,0.633066666666667,-0.595833333333333,6.005,-0.211,3.2965,2.838,-0.974433333333333,-0.0726666666666667,0.2197,38.0335,74.60375,50.1525,417.225,0,0,1,0
24-May-2018 12:41:27,46.7,0.454275,0.17205,0.91135,-24.405,-69.365,19.8445,6.174,-0.90305,-0.0413,-0.52955,-15.764,-7.5234,5.4514,85.303,0.341466666666667,0.633066666666667,-0.595833333333333,6.005,-0.211,3.2965,2.838,-0.974433333333333,-0.0726666666666667,0.2197,38.0335,74.60375,50.1525,417.225,0,0,1,0
24-May-2018 12:41:27,46.7,0.454275,0.17205,0.91135,-24.405,-69.365,19.8445,6.174,-0.90305,-0.0413,-0.52955,-15.764,-7.5234,5.4514,85.303,0.341466666666667,0.633066666666667,-0.595833333333333,6.005,-0.211,3.2965,2.838,-0.974433333333333,-0.0726666666666667,0.2197,38.0335,74.60375,50.1525,417.225,0,0,1,0
24-May-2018 12:41:27,46.7,0.454275,0.17205,0.91135,-24.405,-69.365,19.8445,6.174,-0.90305,-0.0413,-0.52955,-15.764,-7.5234,5.4514,85.303,0.341466666666667,0.633066666666667,-0.595833333333333,6.005,-0.211,3.2965,2.838,-0.974433333333333,-0.0726666666666667,0.2197,38.0335,74.60375,50.1525,417.225,0,0,1,0
24-May-2018 12:41:28,25.8571428571429,0.83489,0.09997,0.47718,6.99842857142857,-23.0912857142857,15.3441428571429,6.174,-0.8907,-0.063125,-0.517625,3.24042857142857,2.61014285714286,6.00185714285714,85.303,0.739342857142857,0.399085714285714,-0.00580000000000001,-16.22,37.6416666666667,13.199,1.73275,-1.123525,0.028275,0.002575,-49.2498571428571,-58.2825714285714,-57.8281428571429,517.3748,1,1,1,1
24-May-2018 12:41:28,25.8571428571429,0.83489,0.09997,0.47718,6.99842857142857,-23.0912857142857,15.3441428571429,6.174,-0.8907,-0.063125,-0.517625,3.24042857142857,2.61014285714286,6.00185714285714,85.303,0.739342857142857,0.399085714285714,-0.00580000000000001,-16.22,37.6416666666667,13.199,1.73275,-1.123525,0.028275,0.002575,-49.2498571428571,-58.2825714285714,-57.8281428571429,517.3748,1,1,1,1
24-May-2018 12:41:28,25.8571428571429,0.83489,0.09997,0.47718,6.99842857142857,-23.0912857142857,15.3441428571429,6.174,-0.8907,-0.063125,-0.517625,3.24042857142857,2.61014285714286,6.00185714285714,85.303,0.739342857142857,0.399085714285714,-0.00580000000000001,-16.22,37.6416666666667,13.199,1.73275,-1.123525,0.028275,0.002575,-49.2498571428571,-58.2825714285714,-57.8281428571429,517.3748,1,1,1,1
24-May-2018 12:41:28,25.8571428571429,0.83489,0.09997,0.47718,6.99842857142857,-23.0912857142857,15.3441428571429,6.174,-0.8907,-0.063125,-0.517625,3.24042857142857,2.61014285714286,6.00185714285714,85.303,0.739342857142857,0.399085714285714,-0.00580000000000001,-16.22,37.6416666666667,13.199,1.73275,-1.123525,0.028275,0.002575,-49.2498571428571,-58.2825714285714,-57.8281428571429,517.3748,1,1,1,1
24-May-2018 12:41:29,13.2,0.833925,0.0458125,0.4035125,23.2271428571429,-10.5935714285714,8.81428571428571,6.174,-0.884066666666667,-0.0833333333333333,-0.541266666666667,5.569,5.88366666666667,6.5345,85.303,0.940033333333333,0.179933333333333,0.246683333333333,26.9988333333333,11.969,15.5965,2.56933333333333,0.691525,-0.2216,0.719225,3.85675,27.37825,-23.41425,729.826333333333,1,1,1,1
24-May-2018 12:41:29,13.2,0.833925,0.0458125,0.4035125,23.2271428571429,-10.5935714285714,8.81428571428571,6.174,-0.884066666666667,-0.0833333333333333,-0.541266666666667,5.569,5.88366666666667,6.5345,85.303,0.940033333333333,0.179933333333333,0.246683333333333,26.9988333333333,11.969,15.5965,2.56933333333333,0.691525,-0.2216,0.719225,3.85675,27.37825,-23.41425,729.826333333333,1,1,1,1
24-May-2018 12:41:29,13.2,0.833925,0.0458125,0.4035125,23.2271428571429,-10.5935714285714,8.81428571428571,6.174,-0.884066666666667,-0.0833333333333333,-0.541266666666667,5.569,5.88366666666667,6.5345,85.303,0.940033333333333,0.179933333333333,0.246683333333333,26.9988333333333,11.969,15.5965,2.56933333333333,0.691525,-0.2216,0.719225,3.85675,27.37825,-23.41425,729.826333333333,1,1,1,1
24-May-2018 12:41:29,13.2,0.833925,0.0458125,0.4035125,23.2271428571429,-10.5935714285714,8.81428571428571,6.174,-0.884066666666667,-0.0833333333333333,-0.541266666666667,5.569,5.88366666666667,6.5345,85.303,0.940033333333333,0.179933333333333,0.246683333333333,26.9988333333333,11.969,15.5965,2.56933333333333,0.691525,-0.2216,0.719225,3.85675,27.37825,-23.41425,729.826333333333,1,1,1,1
24-May-2018 12:41:30,1.66666666666667,0.9281,0.0322222222222222,0.296611111111111,-2.62666666666667,-1.21522222222222,0.612,6.174,-0.869533333333333,-0.0241333333333333,-0.559516666666667,-0.965222222222222,8.66333333333333,19.8054444444444,82.146,0.939385714285714,0.125857142857143,0.286614285714286,-5.285,-0.0245714285714285,-1.17328571428571,2.832,0.66282,-0.17894,0.77974,3.6706,-3.0732,-8.5366,897.902,1,1,1,1
24-May-2018 12:41:30,1.66666666666667,0.9281,0.0322222222222222,0.296611111111111,-2.62666666666667,-1.21522222222222,0.612,6.174,-0.869533333333333,-0.0241333333333333,-0.559516666666667,-0.965222222222222,8.66333333333333,19.8054444444444,82.146,0.939385714285714,0.125857142857143,0.286614285714286,-5.285,-0.0245714285714285,-1.17328571428571,2.832,0.66282,-0.17894,0.77974,3.6706,-3.0732,-8.5366,897.902,1,1,1,1
24-May-2018 12:41:30,1.66666666666667,0.9281,0.0322222222222222,0.296611111111111,-2.62666666666667,-1.21522222222222,0.612,6.174,-0.869533333333333,-0.0241333333333333,-0.559516666666667,-0.965222222222222,8.66333333333333,19.8054444444444,82.146,0.939385714285714,0.125857142857143,0.286614285714286,-5.285,-0.0245714285714285,-1.17328571428571,2.832,0.66282,-0.17894,0.77974,3.6706,-3.0732,-8.5366,897.902,1,1,1,1
24-May-2018 12:41:30,1.66666666666667,0.9281,0.0322222222222222,0.296611111111111,-2.62666666666667,-1.21522222222222,0.612,6.174,-0.869533333333333,-0.0241333333333333,-0.559516666666667,-0.965222222222222,8.66333333333333,19.8054444444444,82.146,0.939385714285714,0.125857142857143,0.286614285714286,-5.285,-0.0245714285714285,-1.17328571428571,2.832,0.66282,-0.17894,0.77974,3.6706,-3.0732,-8.5366,897.902,1,1,1,1
