TIME,HELMET_RAW,BELT_ACC_X,BELT_ACC_Y,BELT_ACC_Z,BELT_ANG_X,BELT_ANG_Y,BELT_ANG_Z,BELT_LUMINOSITY,NECK_ACC_X,NECK_ACC_Y,NECK_ACC_Z,NECK_ANG_X,NECK_ANG_Y,NECK_ANG_Z,NECK_LUMINOSITY,PCKT_ACC_X,PCKT_ACC_Y,PCKT_ACC_Z,PCKT_ANG_X,PCKT_ANG_Y,PCKT_ANG_Z,PCKT_LUMINOSITY,WRST_ACC_X,WRST_ACC_Y,WRST_ACC_Z,WRST_ANG_X,WRST_ANG_Y,WRST_ANG_Z,WRST_LUMINOSITY,IR_1,IR_2,IR_3,IR_4
24-May-2018 13:20:07,51.5,0.8154,-0.228825,-0.458875,-8.86,0.182,2.65525,155.503,-0.93664,-0.33986,0.09806,2.673,-2.30166666666667,0.752333333333333,479.989,0.244075,0.947375,-0.012975,-0.923833333333333,-0.118166666666667,0.4175,0.053,-0.41494,0.04968,0.74824,-18.06325,-8.62025,-2.949625,570.00475,1,1,1,1
24-May-2018 13:20:07,51.5,0.8154,-0.228825,-0.458875,-8.86,0.182,2.65525,155.503,-0.93664,-0.33986,0.09806,2.673,-2.30166666666667,0.752333333333333,479.989,0.244075,0.947375,-0.012975,-0.923833333333333,-0.118166666666667,0.4175,0.053,-0.41494,0.04968,0.74824,-18.06325,-8.62025,-2.949625,570.00475,1,1,1,1
24-May-2018 13:20:07,51.5,0.8154,-0.228825,-0.458875,-8.86,0.182,2.65525,155.503,-0.93664,-0.33986,0.09806,2.673,-2.30166666666667,0.752333333333333,479.989,0.244075,0.947375,-0.012975,-0.923833333333333,-0.118166666666667,0.4175,0.053,-0.41494,0.04968,0.74824,-18.06325,-8.62025,-2.949625,570.00475,1,1,1,1
24-May-2018 13:20:07,51.5,0.8154,-0.228825,-0.458875,-8.86,0.182,2.65525,155.503,-0.93664,-0.33986,0.09806,2.673,-2.30166666666667,0.752333333333333,479.989,0.244075,0.947375,-0.012975,-0.923833333333333,-0.118166666666667,0.4175,0.053,-0.41494,0.04968,0.74824,-18.06325,-8.62025,-2.949625,570.00475,1,1,1,1
24-May-2018 13:20:08,51.5714285714286,0.750333333333333,-0.146966666666667,-0.543983333333333,-7.597125,-4.72875,3.01225,138.621,-0.930225,-0.3271,0.097675,2.91042857142857,-3.29714285714286,0.506,481.733,0.3349,0.91375,0.225075,0.24,47.9283333333333,7.946,0.053,-0.0251,-0.753571428571429,0.696628571428571,5.869,-3.5365,-0.3355,604.275,1,1,1,1
24-May-2018 13:20:08,51.5714285714286,0.750333333333333,-0.146966666666667,-0.543983333333333,-7.597125,-4.72875,3.01225,138.621,-0.930225,-0.3271,0.097675,2.91042857142857,-3.29714285714286,0.506,481.733,0.3349,0.91375,0.225075,0.24,47.9283333333333,7.946,0.053,-0.0251,-0.753571428571429,0.696628571428571,5.869,-3.5365,-0.3355,604.275,1,1,1,1
24-May-2018 13:20:08,51.5714285714286,0.750333333333333,-0.146966666666667,-0.543983333333333,-7.597125,-4.72875,3.01225,138.621,-0.930225,-0.3271,0.097675,2.91042857142857,-3.29714285714286,0.506,481.733,0.3349,0.91375,0.225075,0.24,47.9283333333333,7.946,0.053,-0.0251,-0.753571428571429,0.696628571428571,5.869,-3.5365,-0.3355,604.275,1,1,1,1
24-May-2018 13:20:08,51.5714285714286,0.750333333333333,-0.146966666666667,-0.543983333333333,-7.597125,-4.72875,3.01225,138.621,-0.930225,-0.3271,0.097675,2.91042857142857,-3.29714285714286,0.506,481.733,0.3349,0.91375,0.225075,0.24,47.9283333333333,7.946,0.053,-0.0251,-0.753571428571429,0.696628571428571,5.869,-3.5365,-0.3355,604.275,1,1,1,1
24-May-2018 13:20:09,51.8571428571429,0.724716666666667,-0.144733333333333,-0.6081,0.76425,-0.18775,1.310875,113.259666666667,-0.92648,-0.34204,0.11264,-0.526777777777778,0.00166666666666668,-0.761111111111111,485.221,0.2187,0.9074,0.292425,29.582,83.082,13.252,0.053,-0.1132125,-0.6707,0.8283375,38.3536,1.6098,21.4268,591.78275,1,1,1,1
24-May-2018 13:20:09,51.8571428571429,0.724716666666667,-0.144733333333333,-0.6081,0.76425,-0.18775,1.310875,113.259666666667,-0.92648,-0.34204,0.11264,-0.526777777777778,0.00166666666666668,-0.761111111111111,485.221,0.2187,0.9074,0.292425,29.582,83.082,13.252,0.053,-0.1132125,-0.6707,0.8283375,38.3536,1.6098,21.4268,591.78275,1,1,1,1
24-May-2018 13:20:09,51.8571428571429,0.724716666666667,-0.144733333333333,-0.6081,0.76425,-0.18775,1.310875,113.259666666667,-0.92648,-0.34204,0.11264,-0.526777777777778,0.00166666666666668,-0.761111111111111,485.221,0.2187,0.9074,0.292425,29.582,83.082,13.252,0.053,-0.1132125,-0.6707,0.8283375,38.3536,1.6098,21.4268,591.78275,1,1,1,1
24-May-2018 13:20:09,51.8571428571429,0.724716666666667,-0.144733333333333,-0.6081,0.76425,-0.18775,1.310875,113.259666666667,-0.92648,-0.34204,0.11264,-0.526777777777778,0.00166666666666668,-0.761111111111111,485.221,0.2187,0.9074,0.292425,29.582,83.082,13.252,0.053,-0.1132125,-0.6707,0.8283375,38.3536,1.6098,21.4268,591.78275,1,1,1,1
24-May-2018 13:20:10,51.5,0.7902,-0.196057142857143,-0.481085714285714,44.7871428571429,7.394,-16.2942857142857,117.23675,-0.92878,-0.345,0.11006,0.340714285714286,0.818714285714286,0.0625714285714286,485.221,-0.164366666666667,0.727866666666667,0.267466666666667,32.985,35.155,-9.52,0.053,-0.87015,-0.274975,0.31365,-59.0591428571429,62.1864285714286,46.7682857142857,540.13,1,1,1,1
24-May-2018 13:20:10,51.5,0.7902,-0.196057142857143,-0.481085714285714,44.7871428571429,7.394,-16.2942857142857,117.23675,-0.92878,-0.345,0.11006,0.340714285714286,0.818714285714286,0.0625714285714286,485.221,-0.164366666666667,0.727866666666667,0.267466666666667,32.985,35.155,-9.52,0.053,-0.87015,-0.274975,0.31365,-59.0591428571429,62.1864285714286,46.7682857142857,540.13,1,1,1,1
24-May-2018 13:20:10,51.5,0.7902,-0.196057142857143,-0.481085714285714,44.7871428571429,7.394,-16.2942857142857,117.23675,-0.92878,-0.345,0.11006,0.340714285714286,0.818714285714286,0.0625714285714286,485.221,-0.164366666666667,0.727866666666667,0.267466666666667,32.985,35.155,-9.52,0.053,-0.87015,-0.274975,0.31365,-59.0591428571429,62.1864285714286,46.7682857142857,540.13,1,1,1,1
24-May-2018 13:20:10,51.5,0.7902,-0.196057142857143,-0.481085714285714,44.7871428571429,7.394,-16.2942857142857,117.23675,-0.92878,-0.345,0.11006,0.340714285714286,0.818714285714286,0.0625714285714286,485.221,-0.164366666666667,0.727866666666667,0.267466666666667,32.985,35.155,-9.52,0.053,-0.87015,-0.274975,0.31365,-59.0591428571429,62.1864285714286,46.7682857142857,540.13,1,1,1,1
24-May-2018 13:20:11,51.7142857142857,0.91155,-0.0427,-0.22775,53.0357142857143,-5.17071428571429,-25.8382857142857,265.4435,-0.9288,-0.3405,0.109625,0.6415,0.571875,0.039125,489.94,0.34618,0.9042,0.04022,-28.5225,-87.825,-2.8175,0.053,-0.88884,-0.26686,0.1431,22.1875,-0.762124999999998,-16.714875,545.350666666667,1,1,1,0
24-May-2018 13:20:11,51.7142857142857,0.91155,-0.0427,-0.22775,53.0357142857143,-5.17071428571429,-25.8382857142857,265.4435,-0.9288,-0.3405,0.109625,0.6415,0.571875,0.039125,489.94,0.34618,0.9042,0.04022,-28.5225,-87.825,-2.8175,0.053,-0.88884,-0.26686,0.1431,22.1875,-0.762124999999998,-16.714875,545.350666666667,1,1,1,0
24-May-2018 13:20:11,51.7142857142857,0.91155,-0.0427,-0.22775,53.0357142857143,-5.17071428571429,-25.8382857142857,265.4435,-0.9288,-0.3405,0.109625,0.6415,0.571875,0.039125,489.94,0.34618,0.9042,0.04022,-28.5225,-87.825,-2.8175,0.053,-0.88884,-0.26686,0.1431,22.1875,-0.762124999999998,-16.714875,545.350666666667,1,1,1,0
24-May-2018 13:20:11,51.7142857142857,0.91155,-0.0427,-0.22775,53.0357142857143,-5.17071428571429,-25.8382857142857,265.4435,-0.9288,-0.3405,0.109625,0.6415,0.571875,0.039125,489.94,0.34618,0.9042,0.04022,-28.5225,-87.825,-2.8175,0.053,-0.88884,-0.26686,0.1431,22.1875,-0.762124999999998,-16.714875,545.350666666667,1,1,1,0
24-May-2018 13:20:12,51.8888888888889,0.9867,0.0615833333333333,-0.368366666666667,-66.1166666666667,8.01733333333333,21.6833333333333,328.4065,-0.925475,-0.343775,0.113375,0.528666666666667,-0.0395555555555555,0.318555555555556,489.94,0.232833333333333,0.933833333333333,0.0472333333333333,-1.4175,-24.0075,-10.03,0.053,-0.64095,-0.21975,0.524333333333333,61.263,-37.7352857142857,-13.9285714285714,704.49975,1,1,1,0
24-May-2018 13:20:12,51.8888888888889,0.9867,0.0615833333333333,-0.368366666666667,-66.1166666666667,8.01733333333333,21.6833333333333,328.4065,-0.925475,-0.343775,0.113375,0.528666666666667,-0.0395555555555555,0.318555555555556,489.94,0.232833333333333,0.933833333333333,0.0472333333333333,-1.4175,-24.0075,-10.03,0.053,-0.64095,-0.21975,0.524333333333333,61.263,-37.7352857142857,-13.9285714285714,704.49975,1,1,1,0
24-May-2018 13:20:12,51.8888888888889,0.9867,0.0615833333333333,-0.368366666666667,-66.1166666666667,8.01733333333333,21.6833333333333,328.4065,-0.925475,-0.343775,0.113375,0.528666666666667,-0.0395555555555555,0.318555555555556,489.94,0.232833333333333,0.933833333333333,0.0472333333333333,-1.4175,-24.0075,-10.03,0.053,-0.64095,-0.21975,0.524333333333333,61.263,-37.7352857142857,-13.9285714285714,704.49975,1,1,1,0
24-May-2018 13:20:12,51.8888888888889,0.9867,0.0615833333333333,-0.368366666666667,-66.1166666666667,8.01733333333333,21.6833333333333,328.4065,-0.925475,-0.343775,0.113375,0.528666666666667,-0.0395555555555555,0.318555555555556,489.94,0.232833333333333,0.933833333333333,0.0472333333333333,-1.4175,-24.0075,-10.03,0.053,-0.64095,-0.21975,0.524333333333333,61.263,-37.7352857142857,-13.9285714285714,704.49975,1,1,1,0
24-May-2018 13:20:13,52,0.88388,0.00368,-0.30218,-11.0628333333333,-11.2716666666667,8.2215,366.3325,-0.92844,-0.34344,0.11242,0.982444444444444,0.447333333333333,0.454111111111111,490.184,-0.505366666666667,-0.4336,-1.00243333333333,39.958,-67.288,-45,0.053,-0.542671428571429,-0.0718428571428572,0.8012,-1.385,23.3458571428571,-18.8927142857143,608.286,0,0,1,0
24-May-2018 13:20:13,52,0.88388,0.00368,-0.30218,-11.0628333333333,-11.2716666666667,8.2215,366.3325,-0.92844,-0.34344,0.11242,0.982444444444444,0.447333333333333,0.454111111111111,490.184,-0.505366666666667,-0.4336,-1.00243333333333,39.958,-67.288,-45,0.053,-0.542671428571429,-0.0718428571428572,0.8012,-1.385,23.3458571428571,-18.8927142857143,608.286,0,0,1,0
24-May-2018 13:20:13,52,0.88388,0.00368,-0.30218,-11.0628333333333,-11.2716666666667,8.2215,366.3325,-0.92844,-0.34344,0.11242,0.982444444444444,0.447333333333333,0.454111111111111,490.184,-0.505366666666667,-0.4336,-1.00243333333333,39.958,-67.288,-45,0.053,-0.542671428571429,-0.0718428571428572,0.8012,-1.385,23.3458571428571,-18.8927142857143,608.286,0,0,1,0
24-May-2018 13:20:13,52,0.88388,0.00368,-0.30218,-11.0628333333333,-11.2716666666667,8.2215,366.3325,-0.92844,-0.34344,0.11242,0.982444444444444,0.447333333333333,0.454111111111111,490.184,-0.505366666666667,-0.4336,-1.00243333333333,39.958,-67.288,-45,0.053,-0.542671428571429,-0.0718428571428572,0.8012,-1.385,23.3458571428571,-18.8927142857143,608.286,0,0,1,0
24-May-2018 13:20:14,51.4444444444444,0.715957142857143,-0.0918857142857143,-0.323914285714286,-5.36485714285714,-56.2142857142857,11.7664285714286,366.3325,-0.928775,-0.34005,0.1171,0.923285714285714,-0.884285714285714,0.261428571428571,490.184,-0.14785,0.06915,-0.65175,-14.81775,2.2025,1.05225,0.053,-0.01785,-0.14505,0.548825,-7.522375,19.039375,-25.06,725.505,1,1,1,0
24-May-2018 13:20:14,51.4444444444444,0.715957142857143,-0.0918857142857143,-0.323914285714286,-5.36485714285714,-56.2142857142857,11.7664285714286,366.3325,-0.928775,-0.34005,0.1171,0.923285714285714,-0.884285714285714,0.261428571428571,490.184,-0.14785,0.06915,-0.65175,-14.81775,2.2025,1.05225,0.053,-0.01785,-0.14505,0.548825,-7.522375,19.039375,-25.06,725.505,1,1,1,0
24-May-2018 13:20:14,51.4444444444444,0.715957142857143,-0.0918857142857143,-0.323914285714286,-5.36485714285714,-56.2142857142857,11.7664285714286,366.3325,-0.928775,-0.34005,0.1171,0.923285714285714,-0.884285714285714,0.261428571428571,490.184,-0.14785,0.06915,-0.65175,-14.81775,2.2025,1.05225,0.053,-0.01785,-0.14505,0.548825,-7.522375,19.039375,-25.06,725.505,1,1,1,0
24-May-2018 13:20:14,51.4444444444444,0.715957142857143,-0.0918857142857143,-0.323914285714286,-5.36485714285714,-56.2142857142857,11.7664285714286,366.3325,-0.928775,-0.34005,0.1171,0.923285714285714,-0.884285714285714,0.261428571428571,490.184,-0.14785,0.06915,-0.65175,-14.81775,2.2025,1.05225,0.053,-0.01785,-0.14505,0.548825,-7.522375,19.039375,-25.06,725.505,1,1,1,0
24-May-2018 13:20:15,51.8,0.0652333333333333,-0.131866666666667,-0.889633333333333,0.477833333333334,-11.749,14.8591666666667,366.3325,-0.926175,-0.3449,0.126225,-1.34488888888889,-2.23222222222222,1.301,490.583,-0.177975,0.04105,-0.924625,-0.9854,-0.3026,-0.1556,0.053,-0.1289,-0.23784,0.97322,0.071,0.447333333333333,-0.233833333333333,835.074,0,1,1,0
24-May-2018 13:20:15,51.8,0.0652333333333333,-0.131866666666667,-0.889633333333333,0.477833333333334,-11.749,14.8591666666667,366.3325,-0.926175,-0.3449,0.126225,-1.34488888888889,-2.23222222222222,1.301,490.583,-0.177975,0.04105,-0.924625,-0.9854,-0.3026,-0.1556,0.053,-0.1289,-0.23784,0.97322,0.071,0.447333333333333,-0.233833333333333,835.074,0,1,1,0
24-May-2018 13:20:15,51.8,0.0652333333333333,-0.131866666666667,-0.889633333333333,0.477833333333334,-11.749,14.8591666666667,366.3325,-0.926175,-0.3449,0.126225,-1.34488888888889,-2.23222222222222,1.301,490.583,-0.177975,0.04105,-0.924625,-0.9854,-0.3026,-0.1556,0.053,-0.1289,-0.23784,0.97322,0.071,0.447333333333333,-0.233833333333333,835.074,0,1,1,0
24-May-2018 13:20:15,51.8,0.0652333333333333,-0.131866666666667,-0.889633333333333,0.477833333333334,-11.749,14.8591666666667,366.3325,-0.926175,-0.3449,0.126225,-1.34488888888889,-2.23222222222222,1.301,490.583,-0.177975,0.04105,-0.924625,-0.9854,-0.3026,-0.1556,0.053,-0.1289,-0.23784,0.97322,0.071,0.447333333333333,-0.233833333333333,835.074,0,1,1,0
24-May-2018 13:20:16,52,0.176266666666667,-0.1744,-0.939566666666667,-5.145,1.677,-1.185,366.3325,-0.92998,-0.33724,0.12834,2.46688888888889,-6.88888888888889,4.09911111111111,491.78,-0.173866666666667,0.0386,-0.930033333333333,-0.36,-1.11333333333333,-0.24,0.053,-0.12868,-0.23988,0.97276,0.644857142857143,0.505428571428571,-0.191714285714286,834.73,0,1,1,1
24-May-2018 13:20:16,52,0.176266666666667,-0.1744,-0.939566666666667,-5.145,1.677,-1.185,366.3325,-0.92998,-0.33724,0.12834,2.46688888888889,-6.88888888888889,4.09911111111111,491.78,-0.173866666666667,0.0386,-0.930033333333333,-0.36,-1.11333333333333,-0.24,0.053,-0.12868,-0.23988,0.97276,0.644857142857143,0.505428571428571,-0.191714285714286,834.73,0,1,1,1
24-May-2018 13:20:16,52,0.176266666666667,-0.1744,-0.939566666666667,-5.145,1.677,-1.185,366.3325,-0.92998,-0.33724,0.12834,2.46688888888889,-6.88888888888889,4.09911111111111,491.78,-0.173866666666667,0.0386,-0.930033333333333,-0.36,-1.11333333333333,-0.24,0.053,-0.12868,-0.23988,0.97276,0.644857142857143,0.505428571428571,-0.191714285714286,834.73,0,1,1,1
24-May-2018 13:20:16,52,0.176266666666667,-0.1744,-0.939566666666667,-5.145,1.677,-1.185,366.3325,-0.92998,-0.33724,0.12834,2.46688888888889,-6.88888888888889,4.09911111111111,491.78,-0.173866666666667,0.0386,-0.930033333333333,-0.36,-1.11333333333333,-0.24,0.053,-0.12868,-0.23988,0.97276,0.644857142857143,0.505428571428571,-0.191714285714286,834.73,0,1,1,1
