TIME,HELMET_RAW,BELT_ACC_X,BELT_ACC_Y,BELT_ACC_Z,BELT_ANG_X,BELT_ANG_Y,BELT_ANG_Z,BELT_LUMINOSITY,NECK_ACC_X,NECK_ACC_Y,NECK_ACC_Z,NECK_ANG_X,NECK_ANG_Y,NECK_ANG_Z,NECK_LUMINOSITY,PCKT_ACC_X,PCKT_ACC_Y,PCKT_ACC_Z,PCKT_ANG_X,PCKT_ANG_Y,PCKT_ANG_Z,PCKT_LUMINOSITY,WRST_ACC_X,WRST_ACC_Y,WRST_ACC_Z,WRST_ANG_X,WRST_ANG_Y,WRST_ANG_Z,WRST_LUMINOSITY,IR_1,IR_2,IR_3,IR_4
24-May-2018 13:20:48,51.8,0.856528571428571,-0.0615857142857143,-0.4229,31.7724285714286,15.4862857142857,-17.6614285714286,26.51225,-0.9267,-0.3403,0.11378,0.1417,1.4025,0.7137,495.566,0.1522,0.955333333333333,0.376333333333333,11.2693333333333,36.2785,5.62183333333333,0.088,-0.877757142857143,-0.3173,0.302214285714286,-89.36675,39.96175,46.364375,681.633,1,1,1,1
24-May-2018 13:20:48,51.8,0.856528571428571,-0.0615857142857143,-0.4229,31.7724285714286,15.4862857142857,-17.6614285714286,26.51225,-0.9267,-0.3403,0.11378,0.1417,1.4025,0.7137,495.566,0.1522,0.955333333333333,0.376333333333333,11.2693333333333,36.2785,5.62183333333333,0.088,-0.877757142857143,-0.3173,0.302214285714286,-89.36675,39.96175,46.364375,681.633,1,1,1,1
24-May-2018 13:20:48,51.8,0.856528571428571,-0.0615857142857143,-0.4229,31.7724285714286,15.4862857142857,-17.6614285714286,26.51225,-0.9267,-0.3403,0.11378,0.1417,1.4025,0.7137,495.566,0.1522,0.955333333333333,0.376333333333333,11.2693333333333,36.2785,5.62183333333333,0.088,-0.877757142857143,-0.3173,0.302214285714286,-89.36675,39.96175,46.364375,681.633,1,1,1,1
24-May-2018 13:20:48,51.8,0.856528571428571,-0.0615857142857143,-0.4229,31.7724285714286,15.4862857142857,-17.6614285714286,26.51225,-0.9267,-0.3403,0.11378,0.1417,1.4025,0.7137,495.566,0.1522,0.955333333333333,0.376333333333333,11.2693333333333,36.2785,5.62183333333333,0.088,-0.877757142857143,-0.3173,0.302214285714286,-89.36675,39.96175,46.364375,681.633,1,1,1,1
24-May-2018 13:20:49,52,0.901533333333333,-0.03445,-0.284716666666667,6.17783333333333,-4.70033333333333,-2.67166666666667,219.162333333333,-0.92964,-0.34046,0.11104,0.313666666666667,1.55122222222222,1.13188888888889,493.638666666667,0.3519,0.93175,0.1739,17.49775,12.00175,3.45625,0.088,-0.9233875,0.024875,0.1964125,25.9145,-7.35766666666667,-4.878,634.629333333333,1,1,1,1
24-May-2018 13:20:49,52,0.901533333333333,-0.03445,-0.284716666666667,6.17783333333333,-4.70033333333333,-2.67166666666667,219.162333333333,-0.92964,-0.34046,0.11104,0.313666666666667,1.55122222222222,1.13188888888889,493.638666666667,0.3519,0.93175,0.1739,17.49775,12.00175,3.45625,0.088,-0.9233875,0.024875,0.1964125,25.9145,-7.35766666666667,-4.878,634.629333333333,1,1,1,1
24-May-2018 13:20:49,52,0.901533333333333,-0.03445,-0.284716666666667,6.17783333333333,-4.70033333333333,-2.67166666666667,219.162333333333,-0.92964,-0.34046,0.11104,0.313666666666667,1.55122222222222,1.13188888888889,493.638666666667,0.3519,0.93175,0.1739,17.49775,12.00175,3.45625,0.088,-0.9233875,0.024875,0.1964125,25.9145,-7.35766666666667,-4.878,634.629333333333,1,1,1,1
24-May-2018 13:20:49,52,0.901533333333333,-0.03445,-0.284716666666667,6.17783333333333,-4.70033333333333,-2.67166666666667,219.162333333333,-0.92964,-0.34046,0.11104,0.313666666666667,1.55122222222222,1.13188888888889,493.638666666667,0.3519,0.93175,0.1739,17.49775,12.00175,3.45625,0.088,-0.9233875,0.024875,0.1964125,25.9145,-7.35766666666667,-4.878,634.629333333333,1,1,1,1
24-May-2018 13:20:50,51.9,0.884416666666667,-0.1324,-0.295566666666667,25.227,0.55825,-9.8095,249.883,-0.932225,-0.335075,0.1071,1.36877777777778,0.555777777777778,0.948888888888889,492.675,0.3565,0.911,0.096925,3.59766666666667,7.805,1.38566666666667,0.088,-0.871,0.0206571428571429,0.294914285714286,-31.3764285714286,-1.04528571428571,2.33457142857143,677.739,1,1,1,1
24-May-2018 13:20:50,51.9,0.884416666666667,-0.1324,-0.295566666666667,25.227,0.55825,-9.8095,249.883,-0.932225,-0.335075,0.1071,1.36877777777778,0.555777777777778,0.948888888888889,492.675,0.3565,0.911,0.096925,3.59766666666667,7.805,1.38566666666667,0.088,-0.871,0.0206571428571429,0.294914285714286,-31.3764285714286,-1.04528571428571,2.33457142857143,677.739,1,1,1,1
24-May-2018 13:20:50,51.9,0.884416666666667,-0.1324,-0.295566666666667,25.227,0.55825,-9.8095,249.883,-0.932225,-0.335075,0.1071,1.36877777777778,0.555777777777778,0.948888888888889,492.675,0.3565,0.911,0.096925,3.59766666666667,7.805,1.38566666666667,0.088,-0.871,0.0206571428571429,0.294914285714286,-31.3764285714286,-1.04528571428571,2.33457142857143,677.739,1,1,1,1
24-May-2018 13:20:50,51.9,0.884416666666667,-0.1324,-0.295566666666667,25.227,0.55825,-9.8095,249.883,-0.932225,-0.335075,0.1071,1.36877777777778,0.555777777777778,0.948888888888889,492.675,0.3565,0.911,0.096925,3.59766666666667,7.805,1.38566666666667,0.088,-0.871,0.0206571428571429,0.294914285714286,-31.3764285714286,-1.04528571428571,2.33457142857143,677.739,1,1,1,1
24-May-2018 13:20:51,51.6666666666667,0.939666666666667,0.0711333333333333,-0.137833333333333,-15.025,-3.465,2.3725,262.161,-0.930125,-0.3341,0.109375,1.17916666666667,0.1325,0.752333333333333,492.675,0.1904,1.10443333333333,0.200366666666667,-12.4466666666667,-59.55,12.907,0.088,-0.964466666666667,-0.2771,0.264966666666667,9.7255,0.502750000000001,-8.613,671.935,1,1,1,1
24-May-2018 13:20:51,51.6666666666667,0.939666666666667,0.0711333333333333,-0.137833333333333,-15.025,-3.465,2.3725,262.161,-0.930125,-0.3341,0.109375,1.17916666666667,0.1325,0.752333333333333,492.675,0.1904,1.10443333333333,0.200366666666667,-12.4466666666667,-59.55,12.907,0.088,-0.964466666666667,-0.2771,0.264966666666667,9.7255,0.502750000000001,-8.613,671.935,1,1,1,1
24-May-2018 13:20:51,51.6666666666667,0.939666666666667,0.0711333333333333,-0.137833333333333,-15.025,-3.465,2.3725,262.161,-0.930125,-0.3341,0.109375,1.17916666666667,0.1325,0.752333333333333,492.675,0.1904,1.10443333333333,0.200366666666667,-12.4466666666667,-59.55,12.907,0.088,-0.964466666666667,-0.2771,0.264966666666667,9.7255,0.502750000000001,-8.613,671.935,1,1,1,1
24-May-2018 13:20:51,51.6666666666667,0.939666666666667,0.0711333333333333,-0.137833333333333,-15.025,-3.465,2.3725,262.161,-0.930125,-0.3341,0.109375,1.17916666666667,0.1325,0.752333333333333,492.675,0.1904,1.10443333333333,0.200366666666667,-12.4466666666667,-59.55,12.907,0.088,-0.964466666666667,-0.2771,0.264966666666667,9.7255,0.502750000000001,-8.613,671.935,1,1,1,1
24-May-2018 13:20:52,52,1.00683333333333,0.0824666666666667,-0.223866666666667,-80.075,4.45525,14.204,262.161,-0.9306,-0.3304,0.1149,0.93,0.44225,0.62525,493.1135,0.14315,0.7394,0.36255,-21.1685,-128.4,-24,0.088,-0.8282,-0.2049,0.204733333333333,51.26,32.053,9.59333333333333,671.935,1,1,1,0.5
24-May-2018 13:20:52,52,1.00683333333333,0.0824666666666667,-0.223866666666667,-80.075,4.45525,14.204,262.161,-0.9306,-0.3304,0.1149,0.93,0.44225,0.62525,493.1135,0.14315,0.7394,0.36255,-21.1685,-128.4,-24,0.088,-0.8282,-0.2049,0.204733333333333,51.26,32.053,9.59333333333333,671.935,1,1,1,0.5
24-May-2018 13:20:52,52,1.00683333333333,0.0824666666666667,-0.223866666666667,-80.075,4.45525,14.204,262.161,-0.9306,-0.3304,0.1149,0.93,0.44225,0.62525,493.1135,0.14315,0.7394,0.36255,-21.1685,-128.4,-24,0.088,-0.8282,-0.2049,0.204733333333333,51.26,32.053,9.59333333333333,671.935,1,1,1,0.5
24-May-2018 13:20:52,52,1.00683333333333,0.0824666666666667,-0.223866666666667,-80.075,4.45525,14.204,262.161,-0.9306,-0.3304,0.1149,0.93,0.44225,0.62525,493.1135,0.14315,0.7394,0.36255,-21.1685,-128.4,-24,0.088,-0.8282,-0.2049,0.204733333333333,51.26,32.053,9.59333333333333,0,1,1,1,0.5
24-May-2018 13:20:53,52,0.90457,0.0145,-0.12744,-32.9525,6.221875,0.750375,262.161,-0.9319,-0.33224,0.11396,0.854,0.359222222222222,0.549,493.552,0.460533333333333,0.857933333333333,0.07355,-35.238,-27.636,-1.6078,0.088,-0.91962,-0.31344,0.30054,50.4268571428571,-22.1678571428571,-10.4878571428571,572.463,1,1,1,0
24-May-2018 13:20:53,52,0.90457,0.0145,-0.12744,-32.9525,6.221875,0.750375,262.161,-0.9319,-0.33224,0.11396,0.854,0.359222222222222,0.549,493.552,0.460533333333333,0.857933333333333,0.07355,-35.238,-27.636,-1.6078,0.088,-0.91962,-0.31344,0.30054,50.4268571428571,-22.1678571428571,-10.4878571428571,572.463,1,1,1,0
24-May-2018 13:20:53,52,0.90457,0.0145,-0.12744,-32.9525,6.221875,0.750375,0,-0.9319,-0.33224,0.11396,0.854,0.359222222222222,0.549,493.552,0.460533333333333,0.857933333333333,0.07355,-35.238,-27.636,-1.6078,0,-0.91962,-0.31344,0.30054,50.4268571428571,-22.1678571428571,-10.4878571428571,572.463,1,1,1,0
24-May-2018 13:20:53,52,0.90457,0.0145,-0.12744,-32.9525,6.221875,0.750375,0,-0.9319,-0.33224,0.11396,0.854,0.359222222222222,0.549,493.552,0.460533333333333,0.857933333333333,0.07355,-35.238,-27.636,-1.6078,0,-0.91962,-0.31344,0.30054,50.4268571428571,-22.1678571428571,-10.4878571428571,572.463,1,1,1,0
24-May-2018 13:20:54,52,0.454666666666667,0.0768,-0.838533333333333,-12.751,-76.356,9.6258,255.36475,-0.931075,-0.3303,0.111575,0.801714285714286,0.531571428571429,0.514142857142857,493.552,0.52515,1.10638333333333,0.405483333333333,0.9575,-27.84625,-29.65675,0.0393333333333333,-0.67725,-0.191383333333333,0.696,-36.9384,-93.8524,-25.9268,809.787,1,1,1,0
24-May-2018 13:20:54,52,0.454666666666667,0.0768,-0.838533333333333,-12.751,-76.356,9.6258,255.36475,-0.931075,-0.3303,0.111575,0.801714285714286,0.531571428571429,0.514142857142857,493.552,0.52515,1.10638333333333,0.405483333333333,0.9575,-27.84625,-29.65675,0.0393333333333333,-0.67725,-0.191383333333333,0.696,-36.9384,-93.8524,-25.9268,809.787,1,1,1,0
24-May-2018 13:20:54,52,0.454666666666667,0.0768,-0.838533333333333,-12.751,-76.356,9.6258,255.36475,-0.931075,-0.3303,0.111575,0.801714285714286,0.531571428571429,0.514142857142857,493.552,0.52515,1.10638333333333,0.405483333333333,0.9575,-27.84625,-29.65675,0.0393333333333333,-0.67725,-0.191383333333333,0.696,-36.9384,-93.8524,-25.9268,809.787,1,1,1,0
24-May-2018 13:20:54,52,0.454666666666667,0.0768,-0.838533333333333,-12.751,-76.356,9.6258,255.36475,-0.931075,-0.3303,0.111575,0.801714285714286,0.531571428571429,0.514142857142857,493.552,0.52515,1.10638333333333,0.405483333333333,0.9575,-27.84625,-29.65675,0.0393333333333333,-0.67725,-0.191383333333333,0.696,-36.9384,-93.8524,-25.9268,809.787,1,1,1,0
24-May-2018 13:20:55,52,0.2511,0.00641666666666667,-0.920466666666667,-2.0952,3.6288,-1.7182,238.597285714286,-0.9325,-0.33185,0.111175,0.122444444444444,0.671,0.0881111111111111,493.552,-0.0802857142857143,0.977085714285714,-0.183914285714286,6.39714285714286,0.901571428571428,2.33642857142857,0.0393333333333333,-0.616916666666667,-0.244783333333333,0.70755,4.40033333333333,5.51816666666667,3.03883333333333,633.1184,1,1,1,1
24-May-2018 13:20:55,52,0.2511,0.00641666666666667,-0.920466666666667,-2.0952,3.6288,-1.7182,238.597285714286,-0.9325,-0.33185,0.111175,0.122444444444444,0.671,0.0881111111111111,493.552,-0.0802857142857143,0.977085714285714,-0.183914285714286,6.39714285714286,0.901571428571428,2.33642857142857,0.0393333333333333,-0.616916666666667,-0.244783333333333,0.70755,4.40033333333333,5.51816666666667,3.03883333333333,633.1184,1,1,1,1
24-May-2018 13:20:55,52,0.2511,0.00641666666666667,-0.920466666666667,-2.0952,3.6288,-1.7182,238.597285714286,-0.9325,-0.33185,0.111175,0.122444444444444,0.671,0.0881111111111111,493.552,-0.0802857142857143,0.977085714285714,-0.183914285714286,6.39714285714286,0.901571428571428,2.33642857142857,0.0393333333333333,-0.616916666666667,-0.244783333333333,0.70755,4.40033333333333,5.51816666666667,3.03883333333333,633.1184,1,1,1,1
24-May-2018 13:20:55,52,0.2511,0.00641666666666667,-0.920466666666667,-2.0952,3.6288,-1.7182,238.597285714286,-0.9325,-0.33185,0.111175,0.122444444444444,0.671,0.0881111111111111,493.552,-0.0802857142857143,0.977085714285714,-0.183914285714286,6.39714285714286,0.901571428571428,2.33642857142857,0.0393333333333333,-0.616916666666667,-0.244783333333333,0.70755,4.40033333333333,5.51816666666667,3.03883333333333,633.1184,1,1,1,1
24-May-2018 13:20:56,51.6666666666667,0.26772,0.01286,-0.93806,0.123,0.15225,1.20625,236.9465,-0.93122,-0.33428,0.10978,0.555666666666667,0.278333333333333,0.101777777777778,493.009,-0.0405,0.977733333333333,-0.0654666666666667,-1.911,-1.788,0.0502,0.0393333333333333,-0.63298,-0.2225,0.69818,-0.0852000000000001,-0.7196,-1.5002,627.6134,1,1,1,1
24-May-2018 13:20:56,51.6666666666667,0.26772,0.01286,-0.93806,0.123,0.15225,1.20625,236.9465,-0.93122,-0.33428,0.10978,0.555666666666667,0.278333333333333,0.101777777777778,493.009,-0.0405,0.977733333333333,-0.0654666666666667,-1.911,-1.788,0.0502,0.0393333333333333,-0.63298,-0.2225,0.69818,-0.0852000000000001,-0.7196,-1.5002,627.6134,1,1,1,1
24-May-2018 13:20:56,51.6666666666667,0.26772,0.01286,-0.93806,0.123,0.15225,1.20625,236.9465,-0.93122,-0.33428,0.10978,0.555666666666667,0.278333333333333,0.101777777777778,493.009,-0.0405,0.977733333333333,-0.0654666666666667,-1.911,-1.788,0.0502,0.0393333333333333,-0.63298,-0.2225,0.69818,-0.0852000000000001,-0.7196,-1.5002,627.6134,1,1,1,1
24-May-2018 13:20:56,51.6666666666667,0.26772,0.01286,-0.93806,0.123,0.15225,1.20625,236.9465,-0.93122,-0.33428,0.10978,0.555666666666667,0.278333333333333,0.101777777777778,493.009,-0.0405,0.977733333333333,-0.0654666666666667,-1.911,-1.788,0.0502,0.0393333333333333,-0.63298,-0.2225,0.69818,-0.0852000000000001,-0.7196,-1.5002,627.6134,1,1,1,1
24-May-2018 13:20:57,51.7777777777778,0.24298,0.0148,-0.9484,0.321,-0.965625,0.945375,231.51525,-0.9307,-0.334333333333333,0.111433333333333,0.139571428571429,0.679714285714286,0.148142857142857,493.009,-0.0277166666666667,0.982783333333333,-0.0514666666666667,-0.85,-1.18085714285714,-0.265857142857143,0.0393333333333333,-0.640925,-0.22195,0.70405,0.172833333333333,-0.0915,-0.5795,629.418,1,1,1,1
24-May-2018 13:20:57,51.7777777777778,0.24298,0.0148,-0.9484,0.321,-0.965625,0.945375,231.51525,-0.9307,-0.334333333333333,0.111433333333333,0.139571428571429,0.679714285714286,0.148142857142857,493.009,-0.0277166666666667,0.982783333333333,-0.0514666666666667,-0.85,-1.18085714285714,-0.265857142857143,0.0393333333333333,-0.640925,-0.22195,0.70405,0.172833333333333,-0.0915,-0.5795,629.418,1,1,1,1
24-May-2018 13:20:57,51.7777777777778,0.24298,0.0148,-0.9484,0.321,-0.965625,0.945375,231.51525,-0.9307,-0.334333333333333,0.111433333333333,0.139571428571429,0.679714285714286,0.148142857142857,493.009,-0.0277166666666667,0.982783333333333,-0.0514666666666667,-0.85,-1.18085714285714,-0.265857142857143,0.0393333333333333,-0.640925,-0.22195,0.70405,0.172833333333333,-0.0915,-0.5795,629.418,1,1,1,1
24-May-2018 13:20:57,51.7777777777778,0.24298,0.0148,-0.9484,0.321,-0.965625,0.945375,231.51525,-0.9307,-0.334333333333333,0.111433333333333,0.139571428571429,0.679714285714286,0.148142857142857,493.009,-0.0277166666666667,0.982783333333333,-0.0514666666666667,-0.85,-1.18085714285714,-0.265857142857143,0.0393333333333333,-0.640925,-0.22195,0.70405,0.172833333333333,-0.0915,-0.5795,629.418,1,1,1,1
