TIME,HELMET_RAW,BELT_ACC_X,BELT_ACC_Y,BELT_ACC_Z,BELT_ANG_X,BELT_ANG_Y,BELT_ANG_Z,BELT_LUMINOSITY,NECK_ACC_X,NECK_ACC_Y,NECK_ACC_Z,NECK_ANG_X,NECK_ANG_Y,NECK_ANG_Z,NECK_LUMINOSITY,PCKT_ACC_X,PCKT_ACC_Y,PCKT_ACC_Z,PCKT_ANG_X,PCKT_ANG_Y,PCKT_ANG_Z,PCKT_LUMINOSITY,WRST_ACC_X,WRST_ACC_Y,WRST_ACC_Z,WRST_ANG_X,WRST_ANG_Y,WRST_ANG_Z,WRST_LUMINOSITY,IR_1,IR_2,IR_3,IR_4
24-May-2018 13:19:50,51.3,0.859016666666667,-0.366466666666667,-0.0370333333333333,-7.32266666666667,1.80411111111111,-4.84066666666667,431.067,-0.914116666666667,-0.368333333333333,0.0739666666666667,9.24477777777778,-7.54111111111111,-1.07444444444444,429.384,0.3699,0.880675,0.078375,4.8025,-21.1,-8.2675,0.053,-0.95385,0.00938333333333333,-0.0333166666666667,-4.48175,-3.262375,-0.183,542.663666666667,1,1,1,0
24-May-2018 13:19:50,51.3,0.859016666666667,-0.366466666666667,-0.0370333333333333,-7.32266666666667,1.80411111111111,-4.84066666666667,431.067,-0.914116666666667,-0.368333333333333,0.0739666666666667,9.24477777777778,-7.54111111111111,-1.07444444444444,429.384,0.3699,0.880675,0.078375,4.8025,-21.1,-8.2675,0.053,-0.95385,0.00938333333333333,-0.0333166666666667,-4.48175,-3.262375,-0.183,542.663666666667,1,1,1,0
24-May-2018 13:19:50,51.3,0.859016666666667,-0.366466666666667,-0.0370333333333333,-7.32266666666667,1.80411111111111,-4.84066666666667,431.067,-0.914116666666667,-0.368333333333333,0.0739666666666667,9.24477777777778,-7.54111111111111,-1.07444444444444,429.384,0.3699,0.880675,0.078375,4.8025,-21.1,-8.2675,0.053,-0.95385,0.00938333333333333,-0.0333166666666667,-4.48175,-3.262375,-0.183,542.663666666667,1,1,1,0
24-May-2018 13:19:50,51.3,0.859016666666667,-0.366466666666667,-0.0370333333333333,-7.32266666666667,1.80411111111111,-4.84066666666667,431.067,-0.914116666666667,-0.368333333333333,0.0739666666666667,9.24477777777778,-7.54111111111111,-1.07444444444444,429.384,0.3699,0.880675,0.078375,4.8025,-21.1,-8.2675,0.053,-0.95385,0.00938333333333333,-0.0333166666666667,-4.48175,-3.262375,-0.183,542.663666666667,1,1,1,0
24-May-2018 13:19:51,51.8,0.965675,-0.021275,-0.2285,-23.785,13.05025,1.35,418.905333333333,-0.899,-0.3853,0.124757142857143,-1.513875,-2.427875,1.479625,481.676,0.1807,0.8391,-0.07935,88.1305,-37.7666666666667,-46.3333333333333,0.053,-0.95635,-0.189816666666667,-0.0907833333333333,-6.321,-2.03266666666667,-9.28866666666667,530.7662,1,1,1,0
24-May-2018 13:19:51,51.8,0.965675,-0.021275,-0.2285,-23.785,13.05025,1.35,418.905333333333,-0.899,-0.3853,0.124757142857143,-1.513875,-2.427875,1.479625,481.676,0.1807,0.8391,-0.07935,88.1305,-37.7666666666667,-46.3333333333333,0.053,-0.95635,-0.189816666666667,-0.0907833333333333,-6.321,-2.03266666666667,-9.28866666666667,530.7662,1,1,1,0
24-May-2018 13:19:51,51.8,0.965675,-0.021275,-0.2285,-23.785,13.05025,1.35,418.905333333333,-0.899,-0.3853,0.124757142857143,-1.513875,-2.427875,1.479625,481.676,0.1807,0.8391,-0.07935,88.1305,-37.7666666666667,-46.3333333333333,0.053,-0.95635,-0.189816666666667,-0.0907833333333333,-6.321,-2.03266666666667,-9.28866666666667,530.7662,1,1,1,0
24-May-2018 13:19:51,51.8,0.965675,-0.021275,-0.2285,-23.785,13.05025,1.35,418.905333333333,-0.899,-0.3853,0.124757142857143,-1.513875,-2.427875,1.479625,481.676,0.1807,0.8391,-0.07935,88.1305,-37.7666666666667,-46.3333333333333,0.053,-0.95635,-0.189816666666667,-0.0907833333333333,-6.321,-2.03266666666667,-9.28866666666667,530.7662,1,1,1,0
24-May-2018 13:19:52,51.8888888888889,0.922833333333333,-0.143133333333333,-0.0343833333333333,-7.522,1.09085714285714,-2.76342857142857,381.551,-0.92998,-0.35126,0.09398,-10.389,-1.352,5.5611,485.995,-0.520166666666667,-0.051,-1.0875,69.05,-44.6,-35.97,0.053,-0.92465,-0.262483333333333,0.0906333333333333,17.6568571428571,-2.67428571428571,-8.798,525.528,0,0,1,0
24-May-2018 13:19:52,51.8888888888889,0.922833333333333,-0.143133333333333,-0.0343833333333333,-7.522,1.09085714285714,-2.76342857142857,381.551,-0.92998,-0.35126,0.09398,-10.389,-1.352,5.5611,485.995,-0.520166666666667,-0.051,-1.0875,69.05,-44.6,-35.97,0.053,-0.92465,-0.262483333333333,0.0906333333333333,17.6568571428571,-2.67428571428571,-8.798,525.528,0,0,1,0
24-May-2018 13:19:52,51.8888888888889,0.922833333333333,-0.143133333333333,-0.0343833333333333,-7.522,1.09085714285714,-2.76342857142857,381.551,-0.92998,-0.35126,0.09398,-10.389,-1.352,5.5611,485.995,-0.520166666666667,-0.051,-1.0875,69.05,-44.6,-35.97,0.053,-0.92465,-0.262483333333333,0.0906333333333333,17.6568571428571,-2.67428571428571,-8.798,525.528,0,0,1,0
24-May-2018 13:19:52,51.8888888888889,0.922833333333333,-0.143133333333333,-0.0343833333333333,-7.522,1.09085714285714,-2.76342857142857,381.551,-0.92998,-0.35126,0.09398,-10.389,-1.352,5.5611,485.995,-0.520166666666667,-0.051,-1.0875,69.05,-44.6,-35.97,0.053,-0.92465,-0.262483333333333,0.0906333333333333,17.6568571428571,-2.67428571428571,-8.798,525.528,0,0,1,0
24-May-2018 13:19:53,51.8571428571429,0.8458375,-0.20765,-0.255075,-0.789714285714285,-36.3571428571429,18.768,362.9565,-0.9161,-0.366525,0.09675,-3.61857142857143,-1.41571428571429,0.550857142857143,485.995,-0.20654,0.03984,-0.89546,2.84,-5.56528571428571,-0.651,0.053,-0.3920625,-0.281575,0.1166875,45.866,17.6708,23.939,685.064,0,0,1,0
24-May-2018 13:19:53,51.8571428571429,0.8458375,-0.20765,-0.255075,-0.789714285714285,-36.3571428571429,18.768,362.9565,-0.9161,-0.366525,0.09675,-3.61857142857143,-1.41571428571429,0.550857142857143,485.995,-0.20654,0.03984,-0.89546,2.84,-5.56528571428571,-0.651,0.053,-0.3920625,-0.281575,0.1166875,45.866,17.6708,23.939,685.064,0,0,1,0
24-May-2018 13:19:53,51.8571428571429,0.8458375,-0.20765,-0.255075,-0.789714285714285,-36.3571428571429,18.768,362.9565,-0.9161,-0.366525,0.09675,-3.61857142857143,-1.41571428571429,0.550857142857143,485.995,-0.20654,0.03984,-0.89546,2.84,-5.56528571428571,-0.651,0.053,-0.3920625,-0.281575,0.1166875,45.866,17.6708,23.939,685.064,0,0,1,0
24-May-2018 13:19:53,51.8571428571429,0.8458375,-0.20765,-0.255075,-0.789714285714285,-36.3571428571429,18.768,362.9565,-0.9161,-0.366525,0.09675,-3.61857142857143,-1.41571428571429,0.550857142857143,485.995,-0.20654,0.03984,-0.89546,2.84,-5.56528571428571,-0.651,0.053,-0.3920625,-0.281575,0.1166875,45.866,17.6708,23.939,685.064,0,0,1,0
24-May-2018 13:19:54,51.7777777777778,-0.0171625,-0.31315,-0.9955625,-19.81,-10.905125,27.189625,362.9565,-0.9239,-0.3629,0.10015,-2.4954,0.0628,1.1586,485.995,-0.224333333333333,0.0360666666666667,-0.9184,-0.732,-0.627666666666667,-0.2,0.053,-0.266775,-0.010925,0.6949,-0.548333333333336,-70.8115,21.2095,703.651666666667,1,1,1,0.5
24-May-2018 13:19:54,51.7777777777778,-0.0171625,-0.31315,-0.9955625,-19.81,-10.905125,27.189625,362.9565,-0.9239,-0.3629,0.10015,-2.4954,0.0628,1.1586,485.995,-0.224333333333333,0.0360666666666667,-0.9184,-0.732,-0.627666666666667,-0.2,0.053,-0.266775,-0.010925,0.6949,-0.548333333333336,-70.8115,21.2095,703.651666666667,1,1,1,0.5
24-May-2018 13:19:54,51.7777777777778,-0.0171625,-0.31315,-0.9955625,-19.81,-10.905125,27.189625,362.9565,-0.9239,-0.3629,0.10015,-2.4954,0.0628,1.1586,485.995,-0.224333333333333,0.0360666666666667,-0.9184,-0.732,-0.627666666666667,-0.2,0.053,-0.266775,-0.010925,0.6949,-0.548333333333336,-70.8115,21.2095,703.651666666667,1,1,1,0.5
24-May-2018 13:19:54,51.7777777777778,-0.0171625,-0.31315,-0.9955625,-19.81,-10.905125,27.189625,362.9565,-0.9239,-0.3629,0.10015,-2.4954,0.0628,1.1586,485.995,-0.224333333333333,0.0360666666666667,-0.9184,-0.732,-0.627666666666667,-0.2,0.053,-0.266775,-0.010925,0.6949,-0.548333333333336,-70.8115,21.2095,703.651666666667,1,1,1,0.5
24-May-2018 13:19:55,51.7,0.0525142857142857,-0.239285714285714,-0.905471428571429,1.892,1.47314285714286,0.392571428571429,362.9565,-0.928925,-0.3524,0.0974,0.52075,2.050125,2.30175,489.177666666667,-0.224071428571429,0.0357,-0.919642857142857,-0.4525,-0.895,-0.255,0.053,-0.0758333333333333,-0.392233333333333,0.92605,0.538666666666667,0.935166666666667,-0.233833333333333,804.753,0,1,1,1
24-May-2018 13:19:55,51.7,0.0525142857142857,-0.239285714285714,-0.905471428571429,1.892,1.47314285714286,0.392571428571429,362.9565,-0.928925,-0.3524,0.0974,0.52075,2.050125,2.30175,489.177666666667,-0.224071428571429,0.0357,-0.919642857142857,-0.4525,-0.895,-0.255,0.053,-0.0758333333333333,-0.392233333333333,0.92605,0.538666666666667,0.935166666666667,-0.233833333333333,804.753,0,1,1,1
24-May-2018 13:19:55,51.7,0.0525142857142857,-0.239285714285714,-0.905471428571429,1.892,1.47314285714286,0.392571428571429,0,-0.928925,-0.3524,0.0974,0.52075,2.050125,2.30175,489.177666666667,-0.224071428571429,0.0357,-0.919642857142857,-0.4525,-0.895,-0.255,0.053,-0.0758333333333333,-0.392233333333333,0.92605,0.538666666666667,0.935166666666667,-0.233833333333333,804.753,0,1,1,1
24-May-2018 13:19:55,51.7,0.0525142857142857,-0.239285714285714,-0.905471428571429,1.892,1.47314285714286,0.392571428571429,0,-0.928925,-0.3524,0.0974,0.52075,2.050125,2.30175,489.177666666667,-0.224071428571429,0.0357,-0.919642857142857,-0.4525,-0.895,-0.255,0.053,-0.0758333333333333,-0.392233333333333,0.92605,0.538666666666667,0.935166666666667,-0.233833333333333,804.753,0,1,1,1
24-May-2018 13:19:56,52,0.0704428571428571,-0.243928571428571,-0.950028571428571,0.1635,0.1635,0.264666666666667,0.116,-0.9288,-0.34085,0.095825,2.690375,1.78325,2.004625,490.769,-0.223575,0.0359,-0.9196,-0.534,-0.922,-0.216,0.053,-0.0727333333333333,-0.39545,0.926116666666667,0.488,0.496714285714286,-0.165571428571429,802.055333333333,0,1,1,1
24-May-2018 13:19:56,52,0.0704428571428571,-0.243928571428571,-0.950028571428571,0.1635,0.1635,0.264666666666667,0.116,-0.9288,-0.34085,0.095825,2.690375,1.78325,2.004625,490.769,-0.223575,0.0359,-0.9196,-0.534,-0.922,-0.216,0.053,-0.0727333333333333,-0.39545,0.926116666666667,0.488,0.496714285714286,-0.165571428571429,802.055333333333,0,1,1,1
24-May-2018 13:19:56,52,0.0704428571428571,-0.243928571428571,-0.950028571428571,0.1635,0.1635,0.264666666666667,0.116,-0.9288,-0.34085,0.095825,2.690375,1.78325,2.004625,490.769,-0.223575,0.0359,-0.9196,-0.534,-0.922,-0.216,0.053,-0.0727333333333333,-0.39545,0.926116666666667,0.488,0.496714285714286,-0.165571428571429,802.055333333333,0,1,1,1
24-May-2018 13:19:56,52,0.0704428571428571,-0.243928571428571,-0.950028571428571,0.1635,0.1635,0.264666666666667,0.116,-0.9288,-0.34085,0.095825,2.690375,1.78325,2.004625,490.769,-0.223575,0.0359,-0.9196,-0.534,-0.922,-0.216,0.053,-0.0727333333333333,-0.39545,0.926116666666667,0.488,0.496714285714286,-0.165571428571429,802.055333333333,0,1,1,1
24-May-2018 13:19:57,51.9,0.07055,-0.241825,-0.948875,0.61,0.01575,0.38125,0.116,-0.9313,-0.33645,0.09185,1.84933333333333,1.768,0.61,490.769,-0.22305,0.0368,-0.9206,-0.61,-0.91,-0.18,0.053,-0.0743,-0.3945,0.927633333333333,0.915,0.6344,-0.0122,802.48,0,1,1,1
24-May-2018 13:19:57,51.9,0.07055,-0.241825,-0.948875,0.61,0.01575,0.38125,0.116,-0.9313,-0.33645,0.09185,1.84933333333333,1.768,0.61,490.769,-0.22305,0.0368,-0.9206,-0.61,-0.91,-0.18,0.053,-0.0743,-0.3945,0.927633333333333,0.915,0.6344,-0.0122,802.48,0,1,1,1
24-May-2018 13:19:57,51.9,0.07055,-0.241825,-0.948875,0.61,0.01575,0.38125,0.116,-0.9313,-0.33645,0.09185,1.84933333333333,1.768,0.61,490.769,-0.22305,0.0368,-0.9206,-0.61,-0.91,-0.18,0.053,-0.0743,-0.3945,0.927633333333333,0.915,0.6344,-0.0122,802.48,0,1,1,1
24-May-2018 13:19:57,51.9,0.07055,-0.241825,-0.948875,0.61,0.01575,0.38125,0.116,-0.9313,-0.33645,0.09185,1.84933333333333,1.768,0.61,490.769,-0.22305,0.0368,-0.9206,-0.61,-0.91,-0.18,0.053,-0.0743,-0.3945,0.927633333333333,0.915,0.6344,-0.0122,802.48,0,1,1,1
24-May-2018 13:19:58,51.4444444444444,0.0665333333333333,-0.242483333333333,-0.948583333333333,0.74725,-0.3775,0.47275,0.116,-0.93305,-0.340175,0.09,0.834222222222222,1.47688888888889,0.447333333333333,490.769,-0.224366666666667,0.036,-0.921066666666667,-0.542857142857143,-0.901428571428571,-0.231428571428571,0.053,-0.076725,-0.394075,0.9271375,0.4575,0.5185,-0.16775,803.08875,0,1,1,1
24-May-2018 13:19:58,51.4444444444444,0.0665333333333333,-0.242483333333333,-0.948583333333333,0.74725,-0.3775,0.47275,0.116,-0.93305,-0.340175,0.09,0.834222222222222,1.47688888888889,0.447333333333333,490.769,-0.224366666666667,0.036,-0.921066666666667,-0.542857142857143,-0.901428571428571,-0.231428571428571,0.053,-0.076725,-0.394075,0.9271375,0.4575,0.5185,-0.16775,803.08875,0,1,1,1
24-May-2018 13:19:58,51.4444444444444,0.0665333333333333,-0.242483333333333,-0.948583333333333,0.74725,-0.3775,0.47275,0.116,-0.93305,-0.340175,0.09,0.834222222222222,1.47688888888889,0.447333333333333,490.769,-0.224366666666667,0.036,-0.921066666666667,-0.542857142857143,-0.901428571428571,-0.231428571428571,0.053,-0.076725,-0.394075,0.9271375,0.4575,0.5185,-0.16775,803.08875,0,1,1,1
24-May-2018 13:19:58,51.4444444444444,0.0665333333333333,-0.242483333333333,-0.948583333333333,0.74725,-0.3775,0.47275,0.116,-0.93305,-0.340175,0.09,0.834222222222222,1.47688888888889,0.447333333333333,490.769,-0.224366666666667,0.036,-0.921066666666667,-0.542857142857143,-0.901428571428571,-0.231428571428571,0.053,-0.076725,-0.394075,0.9271375,0.4575,0.5185,-0.16775,803.08875,0,1,1,1
24-May-2018 13:19:59,51.2857142857143,0.06528,-0.24412,-0.94858,0.538833333333333,0.538833333333333,0.233833333333333,0.116,-0.9312,-0.340875,0.087675,1.211875,1.4325,0.09925,486.95525,-0.214675,0.02505,-0.9389,-1.52266666666667,2.29766666666667,0.367,0.053,-0.076225,-0.394025,0.92675,0.461857142857143,0.435714285714286,-0.148142857142857,803.604,1,1,1,1
24-May-2018 13:19:59,51.2857142857143,0.06528,-0.24412,-0.94858,0.538833333333333,0.538833333333333,0.233833333333333,0.116,-0.9312,-0.340875,0.087675,1.211875,1.4325,0.09925,486.95525,-0.214675,0.02505,-0.9389,-1.52266666666667,2.29766666666667,0.367,0.053,-0.076225,-0.394025,0.92675,0.461857142857143,0.435714285714286,-0.148142857142857,803.604,1,1,1,1
24-May-2018 13:19:59,51.2857142857143,0.06528,-0.24412,-0.94858,0.538833333333333,0.538833333333333,0.233833333333333,0.116,-0.9312,-0.340875,0.087675,1.211875,1.4325,0.09925,486.95525,-0.214675,0.02505,-0.9389,-1.52266666666667,2.29766666666667,0.367,0.053,-0.076225,-0.394025,0.92675,0.461857142857143,0.435714285714286,-0.148142857142857,803.604,1,1,1,1
24-May-2018 13:19:59,51.2857142857143,0.06528,-0.24412,-0.94858,0.538833333333333,0.538833333333333,0.233833333333333,0.116,-0.9312,-0.340875,0.087675,1.211875,1.4325,0.09925,486.95525,-0.214675,0.02505,-0.9389,-1.52266666666667,2.29766666666667,0.367,0.053,-0.076225,-0.394025,0.92675,0.461857142857143,0.435714285714286,-0.148142857142857,803.604,1,1,1,1
