TIME,HELMET_RAW,BELT_ACC_X,BELT_ACC_Y,BELT_ACC_Z,BELT_ANG_X,BELT_ANG_Y,BELT_ANG_Z,BELT_LUMINOSITY,NECK_ACC_X,NECK_ACC_Y,NECK_ACC_Z,NECK_ANG_X,NECK_ANG_Y,NECK_ANG_Z,NECK_LUMINOSITY,PCKT_ACC_X,PCKT_ACC_Y,PCKT_ACC_Z,PCKT_ANG_X,PCKT_ANG_Y,PCKT_ANG_Z,PCKT_LUMINOSITY,WRST_ACC_X,WRST_ACC_Y,WRST_ACC_Z,WRST_ANG_X,WRST_ANG_Y,WRST_ANG_Z,WRST_LUMINOSITY,IR_1,IR_2,IR_3,IR_4
24-May-2018 12:39:36,1956.8,0.864866666666667,0.3068,0.3024,8.92,-1.48233333333333,-1.39966666666667,27.504,-0.6046,0.1991,-0.83875,-6.33666666666667,-1.56,-12.5333333333333,145.981,0.7902,0.21485,0.58785,0.5485,-4.965,0.2455,1.099,0.4332,0.82235,0.6206,-3.293,-9.878,-13.963,1032.262,1,1,1,0
24-May-2018 12:39:36,1956.8,0.864866666666667,0.3068,0.3024,8.92,-1.48233333333333,-1.39966666666667,27.504,-0.6046,0.1991,-0.83875,-6.33666666666667,-1.56,-12.5333333333333,145.981,0.7902,0.21485,0.58785,0.5485,-4.965,0.2455,1.099,0.4332,0.82235,0.6206,-3.293,-9.878,-13.963,1032.262,1,1,1,0
24-May-2018 12:39:36,1956.8,0.864866666666667,0.3068,0.3024,8.92,-1.48233333333333,-1.39966666666667,27.504,-0.6046,0.1991,-0.83875,-6.33666666666667,-1.56,-12.5333333333333,145.981,0.7902,0.21485,0.58785,0.5485,-4.965,0.2455,1.099,0.4332,0.82235,0.6206,-3.293,-9.878,-13.963,1032.262,1,1,1,0
24-May-2018 12:39:36,1956.8,0.864866666666667,0.3068,0.3024,8.92,-1.48233333333333,-1.39966666666667,27.504,-0.6046,0.1991,-0.83875,-6.33666666666667,-1.56,-12.5333333333333,145.981,0.7902,0.21485,0.58785,0.5485,-4.965,0.2455,1.099,0.4332,0.82235,0.6206,-3.293,-9.878,-13.963,1032.262,1,1,1,0
24-May-2018 12:39:37,1779.625,0.855475,0.338375,0.3692125,10.0744444444444,13.9757777777778,3.795,27.504,-0.612075,0.1921,-0.850475,-6.97666666666667,-0.422833333333333,-14.8666666666667,145.981,0.858528571428572,0.192971428571429,0.4894,7.23,-0.151833333333333,2.32833333333333,1.1165,0.5291375,-0.1654625,0.84215,15.9563333333333,3.13,17.2358333333333,1007.385,1,1,1,0
24-May-2018 12:39:37,1779.625,0.855475,0.338375,0.3692125,10.0744444444444,13.9757777777778,3.795,27.504,-0.612075,0.1921,-0.850475,-6.97666666666667,-0.422833333333333,-14.8666666666667,145.981,0.858528571428572,0.192971428571429,0.4894,7.23,-0.151833333333333,2.32833333333333,1.1165,0.5291375,-0.1654625,0.84215,15.9563333333333,3.13,17.2358333333333,1007.385,1,1,1,0
24-May-2018 12:39:37,1779.625,0.855475,0.338375,0.3692125,10.0744444444444,13.9757777777778,3.795,27.504,-0.612075,0.1921,-0.850475,-6.97666666666667,-0.422833333333333,-14.8666666666667,145.981,0.858528571428572,0.192971428571429,0.4894,7.23,-0.151833333333333,2.32833333333333,1.1165,0.5291375,-0.1654625,0.84215,15.9563333333333,3.13,17.2358333333333,1007.385,1,1,1,0
24-May-2018 12:39:37,1779.625,0.855475,0.338375,0.3692125,10.0744444444444,13.9757777777778,3.795,0,-0.612075,0.1921,-0.850475,-6.97666666666667,-0.422833333333333,-14.8666666666667,145.981,0.858528571428572,0.192971428571429,0.4894,7.23,-0.151833333333333,2.32833333333333,1.1165,0.5291375,-0.1654625,0.84215,15.9563333333333,3.13,17.2358333333333,1007.385,1,1,1,0
24-May-2018 12:39:38,1081,0.849883333333333,0.278383333333333,0.434666666666667,-0.7888,-6.08,-1.838,20.778,-0.6138,0.16472,-0.8417,4.85525,0.564625,-2.06875,151.12675,0.811733333333333,0.217216666666667,0.5512,-4.582,-2.7422,4.0732,1.27825,0.47715,0.16085,0.8774,-3.18083333333333,1.2095,-21.179,1090.328,1,1,1,1
24-May-2018 12:39:38,1081,0.849883333333333,0.278383333333333,0.434666666666667,-0.7888,-6.08,-1.838,20.778,-0.6138,0.16472,-0.8417,4.85525,0.564625,-2.06875,151.12675,0.811733333333333,0.217216666666667,0.5512,-4.582,-2.7422,4.0732,1.27825,0.47715,0.16085,0.8774,-3.18083333333333,1.2095,-21.179,1090.328,1,1,1,1
24-May-2018 12:39:38,1081,0.849883333333333,0.278383333333333,0.434666666666667,-0.7888,-6.08,-1.838,20.778,-0.6138,0.16472,-0.8417,4.85525,0.564625,-2.06875,151.12675,0.811733333333333,0.217216666666667,0.5512,-4.582,-2.7422,4.0732,1.27825,0.47715,0.16085,0.8774,-3.18083333333333,1.2095,-21.179,1090.328,1,1,1,1
24-May-2018 12:39:38,1081,0.849883333333333,0.278383333333333,0.434666666666667,-0.7888,-6.08,-1.838,20.778,-0.6138,0.16472,-0.8417,4.85525,0.564625,-2.06875,151.12675,0.811733333333333,0.217216666666667,0.5512,-4.582,-2.7422,4.0732,1.27825,0.47715,0.16085,0.8774,-3.18083333333333,1.2095,-21.179,1090.328,1,1,1,1
24-May-2018 12:39:39,-127.444444444444,0.865428571428571,0.302042857142857,0.380271428571429,-2.488,-1.52571428571429,-0.685571428571428,22.928,-0.63314,0.14932,-0.84026,0.58175,-5.080125,4.032125,152.842,0.8435,0.18115,0.54155,-2.31,-0.09,-4.565,1.223,0.47076,0.11096,0.87362,-10.6705555555556,5.25744444444444,-8.76011111111111,1037.96766666667,1,0,1,0
24-May-2018 12:39:39,-127.444444444444,0.865428571428571,0.302042857142857,0.380271428571429,-2.488,-1.52571428571429,-0.685571428571428,22.928,-0.63314,0.14932,-0.84026,0.58175,-5.080125,4.032125,152.842,0.8435,0.18115,0.54155,-2.31,-0.09,-4.565,1.223,0.47076,0.11096,0.87362,-10.6705555555556,5.25744444444444,-8.76011111111111,1037.96766666667,1,0,1,0
24-May-2018 12:39:39,-127.444444444444,0.865428571428571,0.302042857142857,0.380271428571429,-2.488,-1.52571428571429,-0.685571428571428,22.928,-0.63314,0.14932,-0.84026,0.58175,-5.080125,4.032125,152.842,0.8435,0.18115,0.54155,-2.31,-0.09,-4.565,1.223,0.47076,0.11096,0.87362,-10.6705555555556,5.25744444444444,-8.76011111111111,1037.96766666667,1,0,1,0
24-May-2018 12:39:39,-127.444444444444,0.865428571428571,0.302042857142857,0.380271428571429,-2.488,-1.52571428571429,-0.685571428571428,22.928,-0.63314,0.14932,-0.84026,0.58175,-5.080125,4.032125,152.842,0.8435,0.18115,0.54155,-2.31,-0.09,-4.565,1.223,0.47076,0.11096,0.87362,-10.6705555555556,5.25744444444444,-8.76011111111111,1037.96766666667,1,0,1,0
24-May-2018 12:39:40,-381.636363636364,0.861485714285714,0.290871428571429,0.402485714285714,-2.1796,1.806,0.6956,32.064,-0.64256,0.14622,-0.81392,0.151,-3.41955555555556,1.729,152.670666666667,0.827566666666667,0.198633333333333,0.5384,-2.59666666666667,-2.15,-2.82,1.208,0.347866666666667,1.349886,0.829283333333333,2.83971428571429,-11.4111428571429,-9.86057142857143,1002.24425,1,1,1,0
24-May-2018 12:39:40,-381.636363636364,0.861485714285714,0.290871428571429,0.402485714285714,-2.1796,1.806,0.6956,32.064,-0.64256,0.14622,-0.81392,0.151,-3.41955555555556,1.729,152.670666666667,0.827566666666667,0.198633333333333,0.5384,-2.59666666666667,-2.15,-2.82,1.208,0.347866666666667,1.349886,0.829283333333333,2.83971428571429,-11.4111428571429,-9.86057142857143,1002.24425,1,1,1,0
24-May-2018 12:39:40,-381.636363636364,0.861485714285714,0.290871428571429,0.402485714285714,-2.1796,1.806,0.6956,32.064,-0.64256,0.14622,-0.81392,0.151,-3.41955555555556,1.729,152.670666666667,0.827566666666667,0.198633333333333,0.5384,-2.59666666666667,-2.15,-2.82,1.208,0.347866666666667,1.349886,0.829283333333333,2.83971428571429,-11.4111428571429,-9.86057142857143,1002.24425,1,1,1,0
24-May-2018 12:39:40,-381.636363636364,0.861485714285714,0.290871428571429,0.402485714285714,-2.1796,1.806,0.6956,32.064,-0.64256,0.14622,-0.81392,0.151,-3.41955555555556,1.729,152.670666666667,0.827566666666667,0.198633333333333,0.5384,-2.59666666666667,-2.15,-2.82,1.208,0.347866666666667,1.349886,0.829283333333333,2.83971428571429,-11.4111428571429,-9.86057142857143,1002.24425,1,1,1,0
24-May-2018 12:39:41,1166.11111111111,0.684971428571428,0.267714285714286,0.631971428571429,-24.6385714285714,25.0591428571429,6.60214285714286,24.27875,-0.64525,0.15675,-0.81335,-3.62666666666667,-0.357222222222222,-0.607333333333333,152.585,0.809857142857143,0.242942857142857,0.509385714285714,-0.146571428571429,-2.78857142857143,-3.94285714285714,1.167,-0.71168,-0.02488,0.40846,-47.7425,158.8925,184.959333333333,805.8775,0,0,1,0
24-May-2018 12:39:41,1166.11111111111,0.684971428571428,0.267714285714286,0.631971428571429,-24.6385714285714,25.0591428571429,6.60214285714286,24.27875,-0.64525,0.15675,-0.81335,-3.62666666666667,-0.357222222222222,-0.607333333333333,152.585,0.809857142857143,0.242942857142857,0.509385714285714,-0.146571428571429,-2.78857142857143,-3.94285714285714,1.167,-0.71168,-0.02488,0.40846,-47.7425,158.8925,184.959333333333,805.8775,0,0,1,0
24-May-2018 12:39:41,1166.11111111111,0.684971428571428,0.267714285714286,0.631971428571429,-24.6385714285714,25.0591428571429,6.60214285714286,24.27875,-0.64525,0.15675,-0.81335,-3.62666666666667,-0.357222222222222,-0.607333333333333,152.585,0.809857142857143,0.242942857142857,0.509385714285714,-0.146571428571429,-2.78857142857143,-3.94285714285714,1.167,-0.71168,-0.02488,0.40846,-47.7425,158.8925,184.959333333333,805.8775,0,0,1,0
24-May-2018 12:39:41,1166.11111111111,0.684971428571428,0.267714285714286,0.631971428571429,-24.6385714285714,25.0591428571429,6.60214285714286,24.27875,-0.64525,0.15675,-0.81335,-3.62666666666667,-0.357222222222222,-0.607333333333333,152.585,0.809857142857143,0.242942857142857,0.509385714285714,-0.146571428571429,-2.78857142857143,-3.94285714285714,1.167,-0.71168,-0.02488,0.40846,-47.7425,158.8925,184.959333333333,805.8775,0,0,1,0
24-May-2018 12:39:42,1287,0.2049,0.16388,0.9204,15.083,-5.0875,-2.83625,0.306,-0.648625,0.16415,-0.809975,-4.99444444444444,-0.871111111111111,-1.24366666666667,152.585,0.822575,0.245525,0.537375,5.798,22.6316,0.7562,0.84825,0.42874,0.54766,0.28306,-57.0516666666667,-136.145333333333,-181.6635,703.120666666667,0,0,1,0
24-May-2018 12:39:42,1287,0.2049,0.16388,0.9204,15.083,-5.0875,-2.83625,0.306,-0.648625,0.16415,-0.809975,-4.99444444444444,-0.871111111111111,-1.24366666666667,152.585,0.822575,0.245525,0.537375,5.798,22.6316,0.7562,0.84825,0.42874,0.54766,0.28306,-57.0516666666667,-136.145333333333,-181.6635,703.120666666667,0,0,1,0
24-May-2018 12:39:42,1287,0.2049,0.16388,0.9204,15.083,-5.0875,-2.83625,0.306,-0.648625,0.16415,-0.809975,-4.99444444444444,-0.871111111111111,-1.24366666666667,152.585,0.822575,0.245525,0.537375,5.798,22.6316,0.7562,0.84825,0.42874,0.54766,0.28306,-57.0516666666667,-136.145333333333,-181.6635,703.120666666667,0,0,1,0
24-May-2018 12:39:42,1287,0.2049,0.16388,0.9204,15.083,-5.0875,-2.83625,0.306,-0.648625,0.16415,-0.809975,-4.99444444444444,-0.871111111111111,-1.24366666666667,152.585,0.822575,0.245525,0.537375,5.798,22.6316,0.7562,0.84825,0.42874,0.54766,0.28306,-57.0516666666667,-136.145333333333,-181.6635,703.120666666667,0,0,1,0
24-May-2018 12:39:43,1009.1,0.85824,0.16284,0.42988,14.349,-11.29275,4.25475,18.6985,-0.646175,0.180075,-0.814825,-2.097,1.18033333333333,-1.39111111111111,152.36975,0.771271428571429,0.136714285714286,0.675314285714286,5.8044,-3.9694,12.325,1.5105,0.580266666666667,0.549816666666667,0.580233333333333,-13.7703333333333,23.6178333333333,15.386,986.783,1,1,1,1
24-May-2018 12:39:43,1009.1,0.85824,0.16284,0.42988,14.349,-11.29275,4.25475,18.6985,-0.646175,0.180075,-0.814825,-2.097,1.18033333333333,-1.39111111111111,152.36975,0.771271428571429,0.136714285714286,0.675314285714286,5.8044,-3.9694,12.325,1.5105,0.580266666666667,0.549816666666667,0.580233333333333,-13.7703333333333,23.6178333333333,15.386,986.783,1,1,1,1
24-May-2018 12:39:43,1009.1,0.85824,0.16284,0.42988,14.349,-11.29275,4.25475,18.6985,-0.646175,0.180075,-0.814825,-2.097,1.18033333333333,-1.39111111111111,152.36975,0.771271428571429,0.136714285714286,0.675314285714286,5.8044,-3.9694,12.325,1.5105,0.580266666666667,0.549816666666667,0.580233333333333,-13.7703333333333,23.6178333333333,15.386,986.783,1,1,1,1
24-May-2018 12:39:43,1009.1,0.85824,0.16284,0.42988,14.349,-11.29275,4.25475,18.6985,-0.646175,0.180075,-0.814825,-2.097,1.18033333333333,-1.39111111111111,152.36975,0.771271428571429,0.136714285714286,0.675314285714286,5.8044,-3.9694,12.325,1.5105,0.580266666666667,0.549816666666667,0.580233333333333,-13.7703333333333,23.6178333333333,15.386,986.783,1,1,1,1
24-May-2018 12:39:44,120.545454545455,0.93094,0.20522,0.2148,11.218,-6.30833333333333,7.69216666666667,28.9925,-0.65065,0.174975,-0.810725,2.60457142857143,-0.0581428571428572,0.418571428571429,152.298,0.75942,0.03236,0.7052,2.1965,-0.505833333333333,2.20516666666667,1.629,0.5681,0.5883,0.6416,-28.4756,-3.5732,13.6828,1074.30966666667,1,1,1,1
24-May-2018 12:39:44,120.545454545455,0.93094,0.20522,0.2148,11.218,-6.30833333333333,7.69216666666667,28.9925,-0.65065,0.174975,-0.810725,2.60457142857143,-0.0581428571428572,0.418571428571429,152.298,0.75942,0.03236,0.7052,2.1965,-0.505833333333333,2.20516666666667,1.629,0.5681,0.5883,0.6416,-28.4756,-3.5732,13.6828,1074.30966666667,1,1,1,1
24-May-2018 12:39:44,120.545454545455,0.93094,0.20522,0.2148,11.218,-6.30833333333333,7.69216666666667,28.9925,-0.65065,0.174975,-0.810725,2.60457142857143,-0.0581428571428572,0.418571428571429,152.298,0.75942,0.03236,0.7052,2.1965,-0.505833333333333,2.20516666666667,1.629,0.5681,0.5883,0.6416,-28.4756,-3.5732,13.6828,1074.30966666667,1,1,1,1
24-May-2018 12:39:44,120.545454545455,0.93094,0.20522,0.2148,11.218,-6.30833333333333,7.69216666666667,28.9925,-0.65065,0.174975,-0.810725,2.60457142857143,-0.0581428571428572,0.418571428571429,152.298,0.75942,0.03236,0.7052,2.1965,-0.505833333333333,2.20516666666667,1.629,0.5681,0.5883,0.6416,-28.4756,-3.5732,13.6828,1074.30966666667,1,1,1,1
24-May-2018 12:39:45,71.3,0.94866,0.1217,0.16874,5.88425,2.49975,2.40875,28.9925,-0.649825,0.1662,-0.81115,3.247125,0.786125,1.3565,152.298,0.762725,0.065275,0.696275,-0.30125,-1.81125,-5.74,1.647,0.548125,-0.1349,0.8584,-28.4755,14.093,-8.39925,911.863,1,1,1,0
24-May-2018 12:39:45,71.3,0.94866,0.1217,0.16874,5.88425,2.49975,2.40875,28.9925,-0.649825,0.1662,-0.81115,3.247125,0.786125,1.3565,152.298,0.762725,0.065275,0.696275,-0.30125,-1.81125,-5.74,1.647,0.548125,-0.1349,0.8584,-28.4755,14.093,-8.39925,911.863,1,1,1,0
24-May-2018 12:39:45,71.3,0.94866,0.1217,0.16874,5.88425,2.49975,2.40875,28.9925,-0.649825,0.1662,-0.81115,3.247125,0.786125,1.3565,152.298,0.762725,0.065275,0.696275,-0.30125,-1.81125,-5.74,1.647,0.548125,-0.1349,0.8584,-28.4755,14.093,-8.39925,911.863,1,1,1,0
24-May-2018 12:39:45,71.3,0.94866,0.1217,0.16874,5.88425,2.49975,2.40875,28.9925,-0.649825,0.1662,-0.81115,3.247125,0.786125,1.3565,152.298,0.762725,0.065275,0.696275,-0.30125,-1.81125,-5.74,1.647,0.548125,-0.1349,0.8584,-28.4755,14.093,-8.39925,911.863,1,1,1,0
