TIME,HELMET_RAW,BELT_ACC_X,BELT_ACC_Y,BELT_ACC_Z,BELT_ANG_X,BELT_ANG_Y,BELT_ANG_Z,BELT_LUMINOSITY,NECK_ACC_X,NECK_ACC_Y,NECK_ACC_Z,NECK_ANG_X,NECK_ANG_Y,NECK_ANG_Z,NECK_LUMINOSITY,PCKT_ACC_X,PCKT_ACC_Y,PCKT_ACC_Z,PCKT_ANG_X,PCKT_ANG_Y,PCKT_ANG_Z,PCKT_LUMINOSITY,WRST_ACC_X,WRST_ACC_Y,WRST_ACC_Z,WRST_ANG_X,WRST_ANG_Y,WRST_ANG_Z,WRST_LUMINOSITY,IR_1,IR_2,IR_3,IR_4
24-May-2018 14:22:06,131.333333333333,-0.0161,-0.273514285714286,0.991914285714286,0.566428571428571,0.401285714285714,0.339857142857143,897.6285,0,0,0,0,0,0,0,-0.151416666666667,0.813483333333333,-0.487516666666667,-0.561428571428571,-0.832857142857143,-0.205714285714286,0.088,-0.012525,-0.6337875,0.7843375,0.496714285714286,0.444428571428571,-0.156857142857143,750.558,0,1,1,0
24-May-2018 14:22:06,131.333333333333,-0.0161,-0.273514285714286,0.991914285714286,0.566428571428571,0.401285714285714,0.339857142857143,897.6285,0,0,0,0,0,0,0,-0.151416666666667,0.813483333333333,-0.487516666666667,-0.561428571428571,-0.832857142857143,-0.205714285714286,0.088,-0.012525,-0.6337875,0.7843375,0.496714285714286,0.444428571428571,-0.156857142857143,750.558,0,1,1,0
24-May-2018 14:22:06,131.333333333333,-0.0161,-0.273514285714286,0.991914285714286,0.566428571428571,0.401285714285714,0.339857142857143,897.6285,0,0,0,0,0,0,0,-0.151416666666667,0.813483333333333,-0.487516666666667,-0.561428571428571,-0.832857142857143,-0.205714285714286,0.088,-0.012525,-0.6337875,0.7843375,0.496714285714286,0.444428571428571,-0.156857142857143,750.558,0,1,1,0
24-May-2018 14:22:06,131.333333333333,-0.0161,-0.273514285714286,0.991914285714286,0.566428571428571,0.401285714285714,0.339857142857143,897.6285,0,0,0,0,0,0,0,-0.151416666666667,0.813483333333333,-0.487516666666667,-0.561428571428571,-0.832857142857143,-0.205714285714286,0.088,-0.012525,-0.6337875,0.7843375,0.496714285714286,0.444428571428571,-0.156857142857143,750.558,0,1,1,0
24-May-2018 14:22:07,122.8,-0.0321428571428571,-0.279214285714286,0.990428571428571,0.210142857142857,1.06371428571429,0.392142857142857,894.79225,0,0,0,0,0,0,0,-0.151566666666667,0.811516666666667,-0.487033333333333,-0.397142857142857,-0.892857142857143,-0.111428571428571,0.088,-0.0137333333333333,-0.6338,0.783966666666667,0.53375,0.4575,-0.1525,750.2645,0,1,1,0
24-May-2018 14:22:07,122.8,-0.0321428571428571,-0.279214285714286,0.990428571428571,0.210142857142857,1.06371428571429,0.392142857142857,894.79225,0,0,0,0,0,0,0,-0.151566666666667,0.811516666666667,-0.487033333333333,-0.397142857142857,-0.892857142857143,-0.111428571428571,0.088,-0.0137333333333333,-0.6338,0.783966666666667,0.53375,0.4575,-0.1525,750.2645,0,1,1,0
24-May-2018 14:22:07,122.8,-0.0321428571428571,-0.279214285714286,0.990428571428571,0.210142857142857,1.06371428571429,0.392142857142857,894.79225,0,0,0,0,0,0,0,-0.151566666666667,0.811516666666667,-0.487033333333333,-0.397142857142857,-0.892857142857143,-0.111428571428571,0.088,-0.0137333333333333,-0.6338,0.783966666666667,0.53375,0.4575,-0.1525,750.2645,0,1,1,0
24-May-2018 14:22:07,122.8,-0.0321428571428571,-0.279214285714286,0.990428571428571,0.210142857142857,1.06371428571429,0.392142857142857,894.79225,0,0,0,0,0,0,0,-0.151566666666667,0.811516666666667,-0.487033333333333,-0.397142857142857,-0.892857142857143,-0.111428571428571,0.088,-0.0137333333333333,-0.6338,0.783966666666667,0.53375,0.4575,-0.1525,750.2645,0,1,1,0
24-May-2018 14:22:08,118,-0.0258,-0.278485714285714,0.991285714285714,1.15885714285714,-0.91,0.374714285714286,892.693,0,0,0,0,0,0,0,-0.150614285714286,0.812028571428571,-0.488271428571429,-0.472,-0.91,-0.156,0.088,-0.0137857142857143,-0.632185714285714,0.784414285714286,1.07733333333333,0.569333333333333,-0.254166666666667,751.1785,0,1,1,0
24-May-2018 14:22:08,118,-0.0258,-0.278485714285714,0.991285714285714,1.15885714285714,-0.91,0.374714285714286,892.693,0,0,0,0,0,0,0,-0.150614285714286,0.812028571428571,-0.488271428571429,-0.472,-0.91,-0.156,0.088,-0.0137857142857143,-0.632185714285714,0.784414285714286,1.07733333333333,0.569333333333333,-0.254166666666667,751.1785,0,1,1,0
24-May-2018 14:22:08,118,-0.0258,-0.278485714285714,0.991285714285714,1.15885714285714,-0.91,0.374714285714286,892.693,0,0,0,0,0,0,0,-0.150614285714286,0.812028571428571,-0.488271428571429,-0.472,-0.91,-0.156,0.088,-0.0137857142857143,-0.632185714285714,0.784414285714286,1.07733333333333,0.569333333333333,-0.254166666666667,751.1785,0,1,1,0
24-May-2018 14:22:08,118,-0.0258,-0.278485714285714,0.991285714285714,1.15885714285714,-0.91,0.374714285714286,892.693,0,0,0,0,0,0,0,-0.150614285714286,0.812028571428571,-0.488271428571429,-0.472,-0.91,-0.156,0.088,-0.0137857142857143,-0.632185714285714,0.784414285714286,1.07733333333333,0.569333333333333,-0.254166666666667,751.1785,0,1,1,0
24-May-2018 14:22:09,110.375,-0.01615,-0.273625,0.99235,0.725222222222222,-0.138666666666667,0.318555555555555,897.39,0,0,0,0,0,0,0,-0.1509,0.812033333333333,-0.487583333333333,-0.597142857142857,-0.832857142857143,-0.291428571428571,0.088,-0.0134,-0.63212,0.78626,0.632875,0.480375,-0.099125,751.727,0,1,1,0
24-May-2018 14:22:09,110.375,-0.01615,-0.273625,0.99235,0.725222222222222,-0.138666666666667,0.318555555555555,897.39,0,0,0,0,0,0,0,-0.1509,0.812033333333333,-0.487583333333333,-0.597142857142857,-0.832857142857143,-0.291428571428571,0.088,-0.0134,-0.63212,0.78626,0.632875,0.480375,-0.099125,751.727,0,1,1,0
24-May-2018 14:22:09,110.375,-0.01615,-0.273625,0.99235,0.725222222222222,-0.138666666666667,0.318555555555555,897.39,0,0,0,0,0,0,0,-0.1509,0.812033333333333,-0.487583333333333,-0.597142857142857,-0.832857142857143,-0.291428571428571,0.088,-0.0134,-0.63212,0.78626,0.632875,0.480375,-0.099125,751.727,0,1,1,0
24-May-2018 14:22:09,110.375,-0.01615,-0.273625,0.99235,0.725222222222222,-0.138666666666667,0.318555555555555,897.39,0,0,0,0,0,0,0,-0.1509,0.812033333333333,-0.487583333333333,-0.597142857142857,-0.832857142857143,-0.291428571428571,0.088,-0.0134,-0.63212,0.78626,0.632875,0.480375,-0.099125,751.727,0,1,1,0
24-May-2018 14:22:10,-0.9,-0.0264666666666667,-0.277311111111111,0.990833333333333,0.025,1.387125,0.305,897.39,0,0,0,0,0,0,0,-0.151083333333333,0.811833333333333,-0.486333333333333,-0.47,-0.922,-0.192,0.088,-0.0038125,-0.6420625,0.7781875,-0.992857142857143,-1.21071428571429,0.156857142857143,750.558,0,1,1,0
24-May-2018 14:22:10,-0.9,-0.0264666666666667,-0.277311111111111,0.990833333333333,0.025,1.387125,0.305,897.39,0,0,0,0,0,0,0,-0.151083333333333,0.811833333333333,-0.486333333333333,-0.47,-0.922,-0.192,0.088,-0.0038125,-0.6420625,0.7781875,-0.992857142857143,-1.21071428571429,0.156857142857143,750.558,0,1,1,0
24-May-2018 14:22:10,-0.9,-0.0264666666666667,-0.277311111111111,0.990833333333333,0.025,1.387125,0.305,897.39,0,0,0,0,0,0,0,-0.151083333333333,0.811833333333333,-0.486333333333333,-0.47,-0.922,-0.192,0.088,-0.0038125,-0.6420625,0.7781875,-0.992857142857143,-1.21071428571429,0.156857142857143,750.558,0,1,1,0
24-May-2018 14:22:10,-0.9,-0.0264666666666667,-0.277311111111111,0.990833333333333,0.025,1.387125,0.305,0,0,0,0,0,0,0,0,-0.151083333333333,0.811833333333333,-0.486333333333333,-0.47,-0.922,-0.192,0.088,-0.0038125,-0.6420625,0.7781875,-0.992857142857143,-1.21071428571429,0.156857142857143,750.558,0,1,1,0
24-May-2018 14:22:11,-12.8,-0.0378,-0.282471428571429,0.9884,0.945333333333333,-0.736833333333333,0.406666666666667,892.1665,0,0,0,0,0,0,0,-0.1517875,0.813325,-0.4885,-0.523333333333333,-0.91,-0.23,0.088,-0.000566666666666666,-0.6373,0.77785,2.26288888888889,1.77522222222222,0.413333333333333,737.007333333333,0,1,1,0
24-May-2018 14:22:11,-12.8,-0.0378,-0.282471428571429,0.9884,0.945333333333333,-0.736833333333333,0.406666666666667,892.1665,0,0,0,0,0,0,0,-0.1517875,0.813325,-0.4885,-0.523333333333333,-0.91,-0.23,0.088,-0.000566666666666666,-0.6373,0.77785,2.26288888888889,1.77522222222222,0.413333333333333,737.007333333333,0,1,1,0
24-May-2018 14:22:11,-12.8,-0.0378,-0.282471428571429,0.9884,0.945333333333333,-0.736833333333333,0.406666666666667,892.1665,0,0,0,0,0,0,0,-0.1517875,0.813325,-0.4885,-0.523333333333333,-0.91,-0.23,0.088,-0.000566666666666666,-0.6373,0.77785,2.26288888888889,1.77522222222222,0.413333333333333,737.007333333333,0,1,1,0
24-May-2018 14:22:11,-12.8,-0.0378,-0.282471428571429,0.9884,0.945333333333333,-0.736833333333333,0.406666666666667,892.1665,0,0,0,0,0,0,0,-0.1517875,0.813325,-0.4885,-0.523333333333333,-0.91,-0.23,0.088,-0.000566666666666666,-0.6373,0.77785,2.26288888888889,1.77522222222222,0.413333333333333,737.007333333333,0,1,1,0
24-May-2018 14:22:12,-38.5,-0.0199,-0.274633333333333,0.990966666666667,0.9636,-0.4238,0.3538,895.621333333333,0,0,0,0,0,0,0,-0.1513,0.814266666666667,-0.48755,-0.708333333333333,-0.88,-0.27,0.088,-0.0117875,-0.63045,0.7857625,0.888714285714286,0.592571428571429,-0.217857142857143,751.434,0,1,1,0
24-May-2018 14:22:12,-38.5,-0.0199,-0.274633333333333,0.990966666666667,0.9636,-0.4238,0.3538,895.621333333333,0,0,0,0,0,0,0,-0.1513,0.814266666666667,-0.48755,-0.708333333333333,-0.88,-0.27,0.088,-0.0117875,-0.63045,0.7857625,0.888714285714286,0.592571428571429,-0.217857142857143,751.434,0,1,1,0
24-May-2018 14:22:12,-38.5,-0.0199,-0.274633333333333,0.990966666666667,0.9636,-0.4238,0.3538,895.621333333333,0,0,0,0,0,0,0,-0.1513,0.814266666666667,-0.48755,-0.708333333333333,-0.88,-0.27,0.088,-0.0117875,-0.63045,0.7857625,0.888714285714286,0.592571428571429,-0.217857142857143,751.434,0,1,1,0
24-May-2018 14:22:12,-38.5,-0.0199,-0.274633333333333,0.990966666666667,0.9636,-0.4238,0.3538,895.621333333333,0,0,0,0,0,0,0,-0.1513,0.814266666666667,-0.48755,-0.708333333333333,-0.88,-0.27,0.088,-0.0117875,-0.63045,0.7857625,0.888714285714286,0.592571428571429,-0.217857142857143,751.434,0,1,1,0
24-May-2018 14:22:13,17.7,-0.016625,-0.274675,0.992775,0.345833333333333,0.6815,0.305,898.484,0,0,0,0,0,0,0,-0.151533333333333,0.812633333333333,-0.486233333333333,-0.63625,-0.8875,-0.225,0.088,-0.0115666666666667,-0.631183333333333,0.7869,0.663375,0.50325,-0.083875,751.877333333333,0,1,1,0
24-May-2018 14:22:13,17.7,-0.016625,-0.274675,0.992775,0.345833333333333,0.6815,0.305,898.484,0,0,0,0,0,0,0,-0.151533333333333,0.812633333333333,-0.486233333333333,-0.63625,-0.8875,-0.225,0.088,-0.0115666666666667,-0.631183333333333,0.7869,0.663375,0.50325,-0.083875,751.877333333333,0,1,1,0
24-May-2018 14:22:13,17.7,-0.016625,-0.274675,0.992775,0.345833333333333,0.6815,0.305,898.484,0,0,0,0,0,0,0,-0.151533333333333,0.812633333333333,-0.486233333333333,-0.63625,-0.8875,-0.225,0.088,-0.0115666666666667,-0.631183333333333,0.7869,0.663375,0.50325,-0.083875,751.877333333333,0,1,1,0
24-May-2018 14:22:13,17.7,-0.016625,-0.274675,0.992775,0.345833333333333,0.6815,0.305,898.484,0,0,0,0,0,0,0,-0.151533333333333,0.812633333333333,-0.486233333333333,-0.63625,-0.8875,-0.225,0.088,-0.0115666666666667,-0.631183333333333,0.7869,0.663375,0.50325,-0.083875,751.877333333333,0,1,1,0
24-May-2018 14:22:14,13.8571428571429,-0.0377428571428571,-0.2809,0.989442857142857,0.232,1.0126,0.3294,895.7115,0,0,0,0,0,0,0,-0.150566666666667,0.813633333333333,-0.487966666666667,-0.37,-0.944285714285714,-0.145571428571429,0.088,-0.01245,-0.632016666666667,0.7843,0.540285714285714,0.514142857142857,-0.174285714285714,749.738,1,1,1,0
24-May-2018 14:22:14,13.8571428571429,-0.0377428571428571,-0.2809,0.989442857142857,0.232,1.0126,0.3294,895.7115,0,0,0,0,0,0,0,-0.150566666666667,0.813633333333333,-0.487966666666667,-0.37,-0.944285714285714,-0.145571428571429,0.088,-0.01245,-0.632016666666667,0.7843,0.540285714285714,0.514142857142857,-0.174285714285714,749.738,1,1,1,0
24-May-2018 14:22:14,13.8571428571429,-0.0377428571428571,-0.2809,0.989442857142857,0.232,1.0126,0.3294,895.7115,0,0,0,0,0,0,0,-0.150566666666667,0.813633333333333,-0.487966666666667,-0.37,-0.944285714285714,-0.145571428571429,0.088,-0.01245,-0.632016666666667,0.7843,0.540285714285714,0.514142857142857,-0.174285714285714,749.738,1,1,1,0
24-May-2018 14:22:14,13.8571428571429,-0.0377428571428571,-0.2809,0.989442857142857,0.232,1.0126,0.3294,895.7115,0,0,0,0,0,0,0,-0.150566666666667,0.813633333333333,-0.487966666666667,-0.37,-0.944285714285714,-0.145571428571429,0.088,-0.01245,-0.632016666666667,0.7843,0.540285714285714,0.514142857142857,-0.174285714285714,749.738,1,1,1,0
24-May-2018 14:22:15,95,-0.03272,-0.27998,0.98874,1.05975,-0.864875,0.3965,891.6015,0,0,0,0,0,0,0,-0.150775,0.8117,-0.486925,-0.62,-0.838,-0.252,0.088,-0.0120714285714286,-0.632257142857143,0.786114285714286,0.7625,0.495625,-0.22875,749.557,1,1,1,0
24-May-2018 14:22:15,95,-0.03272,-0.27998,0.98874,1.05975,-0.864875,0.3965,891.6015,0,0,0,0,0,0,0,-0.150775,0.8117,-0.486925,-0.62,-0.838,-0.252,0.088,-0.0120714285714286,-0.632257142857143,0.786114285714286,0.7625,0.495625,-0.22875,749.557,1,1,1,0
24-May-2018 14:22:15,95,-0.03272,-0.27998,0.98874,1.05975,-0.864875,0.3965,891.6015,0,0,0,0,0,0,0,-0.150775,0.8117,-0.486925,-0.62,-0.838,-0.252,0.088,-0.0120714285714286,-0.632257142857143,0.786114285714286,0.7625,0.495625,-0.22875,749.557,1,1,1,0
24-May-2018 14:22:15,95,-0.03272,-0.27998,0.98874,1.05975,-0.864875,0.3965,891.6015,0,0,0,0,0,0,0,-0.150775,0.8117,-0.486925,-0.62,-0.838,-0.252,0.088,-0.0120714285714286,-0.632257142857143,0.786114285714286,0.7625,0.495625,-0.22875,749.557,1,1,1,0
24-May-2018 14:22:16,84.7777777777778,-0.0166125,-0.27445,0.993125,0.8845,-0.463333333333333,0.325333333333333,896.987666666667,0,0,0,0,0,0,0,-0.151185714285714,0.812228571428571,-0.486785714285714,-0.616666666666667,-0.9,-0.24,0.088,-0.0101555555555556,-0.630322222222222,0.786944444444444,0.522857142857143,0.470571428571429,-0.235285714285714,751.988,1,1,1,0
24-May-2018 14:22:16,84.7777777777778,-0.0166125,-0.27445,0.993125,0.8845,-0.463333333333333,0.325333333333333,896.987666666667,0,0,0,0,0,0,0,-0.151185714285714,0.812228571428571,-0.486785714285714,-0.616666666666667,-0.9,-0.24,0.088,-0.0101555555555556,-0.630322222222222,0.786944444444444,0.522857142857143,0.470571428571429,-0.235285714285714,751.988,1,1,1,0
24-May-2018 14:22:16,84.7777777777778,-0.0166125,-0.27445,0.993125,0.8845,-0.463333333333333,0.325333333333333,896.987666666667,0,0,0,0,0,0,0,-0.151185714285714,0.812228571428571,-0.486785714285714,-0.616666666666667,-0.9,-0.24,0.088,-0.0101555555555556,-0.630322222222222,0.786944444444444,0.522857142857143,0.470571428571429,-0.235285714285714,751.988,1,1,1,0
24-May-2018 14:22:16,84.7777777777778,-0.0166125,-0.27445,0.993125,0.8845,-0.463333333333333,0.325333333333333,896.987666666667,0,0,0,0,0,0,0,-0.151185714285714,0.812228571428571,-0.486785714285714,-0.616666666666667,-0.9,-0.24,0.088,-0.0101555555555556,-0.630322222222222,0.786944444444444,0.522857142857143,0.470571428571429,-0.235285714285714,751.988,1,1,1,0
24-May-2018 14:22:17,-36.2,-0.0191166666666667,-0.274233333333333,0.992433333333333,0.383714285714286,0.871,0.339857142857143,898.40675,0,0,0,0,0,0,0,-0.15116,0.812,-0.4879,-0.475714285714286,-0.858571428571429,-0.222857142857143,0.088,-0.0114428571428571,-0.631557142857143,0.785785714285714,0.322428571428571,0.461857142857143,-0.122,751.205,1,1,1,0
24-May-2018 14:22:17,-36.2,-0.0191166666666667,-0.274233333333333,0.992433333333333,0.383714285714286,0.871,0.339857142857143,898.40675,0,0,0,0,0,0,0,-0.15116,0.812,-0.4879,-0.475714285714286,-0.858571428571429,-0.222857142857143,0.088,-0.0114428571428571,-0.631557142857143,0.785785714285714,0.322428571428571,0.461857142857143,-0.122,751.205,1,1,1,0
24-May-2018 14:22:17,-36.2,-0.0191166666666667,-0.274233333333333,0.992433333333333,0.383714285714286,0.871,0.339857142857143,898.40675,0,0,0,0,0,0,0,-0.15116,0.812,-0.4879,-0.475714285714286,-0.858571428571429,-0.222857142857143,0.088,-0.0114428571428571,-0.631557142857143,0.785785714285714,0.322428571428571,0.461857142857143,-0.122,751.205,1,1,1,0
24-May-2018 14:22:17,-36.2,-0.0191166666666667,-0.274233333333333,0.992433333333333,0.383714285714286,0.871,0.339857142857143,898.40675,0,0,0,0,0,0,0,-0.15116,0.812,-0.4879,-0.475714285714286,-0.858571428571429,-0.222857142857143,0.088,-0.0114428571428571,-0.631557142857143,0.785785714285714,0.322428571428571,0.461857142857143,-0.122,751.205,1,1,1,0
24-May-2018 14:22:18,-17,-0.0369,-0.28175,0.989516666666667,0.367285714285714,0.385,0.348571428571429,893.272666666667,0,0,0,0,0,0,0,-0.15076,0.8116,-0.48838,-0.594285714285714,-0.927142857142857,-0.248571428571429,0.088,-0.011775,-0.6319125,0.7855375,0.583857142857143,0.488,-0.217857142857143,750.126,1,1,1,0
24-May-2018 14:22:18,-17,-0.0369,-0.28175,0.989516666666667,0.367285714285714,0.385,0.348571428571429,893.272666666667,0,0,0,0,0,0,0,-0.15076,0.8116,-0.48838,-0.594285714285714,-0.927142857142857,-0.248571428571429,0.088,-0.011775,-0.6319125,0.7855375,0.583857142857143,0.488,-0.217857142857143,750.126,1,1,1,0
24-May-2018 14:22:18,-17,-0.0369,-0.28175,0.989516666666667,0.367285714285714,0.385,0.348571428571429,893.272666666667,0,0,0,0,0,0,0,-0.15076,0.8116,-0.48838,-0.594285714285714,-0.927142857142857,-0.248571428571429,0.088,-0.011775,-0.6319125,0.7855375,0.583857142857143,0.488,-0.217857142857143,750.126,1,1,1,0
24-May-2018 14:22:18,-17,-0.0369,-0.28175,0.989516666666667,0.367285714285714,0.385,0.348571428571429,893.272666666667,0,0,0,0,0,0,0,-0.15076,0.8116,-0.48838,-0.594285714285714,-0.927142857142857,-0.248571428571429,0.088,-0.011775,-0.6319125,0.7855375,0.583857142857143,0.488,-0.217857142857143,750.126,1,1,1,0
24-May-2018 14:22:19,57.8,-0.02571,-0.27677,0.99097,1.02814285714286,-0.85,0.322428571428571,889.447,0,0,0,0,0,0,0,-0.151433333333333,0.81235,-0.48715,-0.556,-0.862,-0.264,0.088,-0.01228,-0.62832,0.78736,0.792875,0.495625,-0.28975,750.289,0,1,1,0
24-May-2018 14:22:19,57.8,-0.02571,-0.27677,0.99097,1.02814285714286,-0.85,0.322428571428571,889.447,0,0,0,0,0,0,0,-0.151433333333333,0.81235,-0.48715,-0.556,-0.862,-0.264,0.088,-0.01228,-0.62832,0.78736,0.792875,0.495625,-0.28975,750.289,0,1,1,0
24-May-2018 14:22:19,57.8,-0.02571,-0.27677,0.99097,1.02814285714286,-0.85,0.322428571428571,889.447,0,0,0,0,0,0,0,-0.151433333333333,0.81235,-0.48715,-0.556,-0.862,-0.264,0.088,-0.01228,-0.62832,0.78736,0.792875,0.495625,-0.28975,750.289,0,1,1,0
24-May-2018 14:22:19,57.8,-0.02571,-0.27677,0.99097,1.02814285714286,-0.85,0.322428571428571,889.447,0,0,0,0,0,0,0,-0.151433333333333,0.81235,-0.48715,-0.556,-0.862,-0.264,0.088,-0.01228,-0.62832,0.78736,0.792875,0.495625,-0.28975,750.289,0,1,1,0
24-May-2018 14:22:20,35.5,-0.0143444444444444,-0.273011111111111,0.992822222222222,0.711666666666667,0.0484444444444444,0.352444444444445,889.447,0,0,0,0,0,0,0,-0.150833333333333,0.812533333333333,-0.4873,-0.632857142857143,-0.944285714285714,-0.188571428571429,0.088,-0.0106428571428571,-0.631428571428571,0.785957142857143,0.3355,0.3965,-0.2745,750.289,0,1,1,0
24-May-2018 14:22:20,35.5,-0.0143444444444444,-0.273011111111111,0.992822222222222,0.711666666666667,0.0484444444444444,0.352444444444445,889.447,0,0,0,0,0,0,0,-0.150833333333333,0.812533333333333,-0.4873,-0.632857142857143,-0.944285714285714,-0.188571428571429,0.088,-0.0106428571428571,-0.631428571428571,0.785957142857143,0.3355,0.3965,-0.2745,750.289,0,1,1,0
24-May-2018 14:22:20,35.5,-0.0143444444444444,-0.273011111111111,0.992822222222222,0.711666666666667,0.0484444444444444,0.352444444444445,889.447,0,0,0,0,0,0,0,-0.150833333333333,0.812533333333333,-0.4873,-0.632857142857143,-0.944285714285714,-0.188571428571429,0.088,-0.0106428571428571,-0.631428571428571,0.785957142857143,0.3355,0.3965,-0.2745,750.289,0,1,1,0
24-May-2018 14:22:20,35.5,-0.0143444444444444,-0.273011111111111,0.992822222222222,0.711666666666667,0.0484444444444444,0.352444444444445,0,0,0,0,0,0,0,0,-0.150833333333333,0.812533333333333,-0.4873,-0.632857142857143,-0.944285714285714,-0.188571428571429,0.088,-0.0106428571428571,-0.631428571428571,0.785957142857143,0.3355,0.3965,-0.2745,0,0,1,1,0
24-May-2018 14:22:21,-77.9,-0.0259833333333333,-0.27735,0.990933333333333,0.105571428571429,1.324,0.331142857142857,897.456,0,0,0,0,0,0,0,-0.151066666666667,0.8121,-0.488433333333333,-0.474285714285714,-0.91,-0.154285714285714,0.088,-0.01145,-0.632275,0.78465,0.355833333333333,0.437166666666667,-0.244,751.1705,0,1,1,0
24-May-2018 14:22:21,-77.9,-0.0259833333333333,-0.27735,0.990933333333333,0.105571428571429,1.324,0.331142857142857,897.456,0,0,0,0,0,0,0,-0.151066666666667,0.8121,-0.488433333333333,-0.474285714285714,-0.91,-0.154285714285714,0.088,-0.01145,-0.632275,0.78465,0.355833333333333,0.437166666666667,-0.244,751.1705,0,1,1,0
24-May-2018 14:22:21,-77.9,-0.0259833333333333,-0.27735,0.990933333333333,0.105571428571429,1.324,0.331142857142857,897.456,0,0,0,0,0,0,0,-0.151066666666667,0.8121,-0.488433333333333,-0.474285714285714,-0.91,-0.154285714285714,0.088,-0.01145,-0.632275,0.78465,0.355833333333333,0.437166666666667,-0.244,751.1705,0,1,1,0
24-May-2018 14:22:21,-77.9,-0.0259833333333333,-0.27735,0.990933333333333,0.105571428571429,1.324,0.331142857142857,897.456,0,0,0,0,0,0,0,-0.151066666666667,0.8121,-0.488433333333333,-0.474285714285714,-0.91,-0.154285714285714,0.088,-0.01145,-0.632275,0.78465,0.355833333333333,0.437166666666667,-0.244,751.1705,0,1,1,0
24-May-2018 14:22:22,22.4,-0.03024,-0.28048,0.99148,1.122,-0.5694,0.4636,893.53725,0,0,0,0,0,0,0,-0.15116,0.8123,-0.48778,-0.646666666666667,-0.86,-0.32,0.088,-0.0112714285714286,-0.631285714285714,0.786114285714286,0.721833333333333,0.477833333333333,-0.111833333333333,751.016,0,1,1,0
24-May-2018 14:22:22,22.4,-0.03024,-0.28048,0.99148,1.122,-0.5694,0.4636,893.53725,0,0,0,0,0,0,0,-0.15116,0.8123,-0.48778,-0.646666666666667,-0.86,-0.32,0.088,-0.0112714285714286,-0.631285714285714,0.786114285714286,0.721833333333333,0.477833333333333,-0.111833333333333,751.016,0,1,1,0
24-May-2018 14:22:22,22.4,-0.03024,-0.28048,0.99148,1.122,-0.5694,0.4636,893.53725,0,0,0,0,0,0,0,-0.15116,0.8123,-0.48778,-0.646666666666667,-0.86,-0.32,0.088,-0.0112714285714286,-0.631285714285714,0.786114285714286,0.721833333333333,0.477833333333333,-0.111833333333333,751.016,0,1,1,0
24-May-2018 14:22:22,22.4,-0.03024,-0.28048,0.99148,1.122,-0.5694,0.4636,893.53725,0,0,0,0,0,0,0,-0.15116,0.8123,-0.48778,-0.646666666666667,-0.86,-0.32,0.088,-0.0112714285714286,-0.631285714285714,0.786114285714286,0.721833333333333,0.477833333333333,-0.111833333333333,751.016,0,1,1,0
24-May-2018 14:22:23,32.4444444444444,-0.0162333333333333,-0.274833333333333,0.993033333333333,0.854,-0.422,0.3172,897.323833333333,0,0,0,0,0,0,0,-0.15164,0.81172,-0.48668,-0.515,-0.84,-0.23,0.088,-0.01285,-0.627325,0.787775,0.813166666666667,0.488,-0.132166666666667,751.3672,0,1,1,0
24-May-2018 14:22:23,32.4444444444444,-0.0162333333333333,-0.274833333333333,0.993033333333333,0.854,-0.422,0.3172,897.323833333333,0,0,0,0,0,0,0,-0.15164,0.81172,-0.48668,-0.515,-0.84,-0.23,0.088,-0.01285,-0.627325,0.787775,0.813166666666667,0.488,-0.132166666666667,751.3672,0,1,1,0
24-May-2018 14:22:23,32.4444444444444,-0.0162333333333333,-0.274833333333333,0.993033333333333,0.854,-0.422,0.3172,897.323833333333,0,0,0,0,0,0,0,-0.15164,0.81172,-0.48668,-0.515,-0.84,-0.23,0.088,-0.01285,-0.627325,0.787775,0.813166666666667,0.488,-0.132166666666667,751.3672,0,1,1,0
24-May-2018 14:22:23,32.4444444444444,-0.0162333333333333,-0.274833333333333,0.993033333333333,0.854,-0.422,0.3172,897.323833333333,0,0,0,0,0,0,0,-0.15164,0.81172,-0.48668,-0.515,-0.84,-0.23,0.088,-0.01285,-0.627325,0.787775,0.813166666666667,0.488,-0.132166666666667,751.3672,0,1,1,0
24-May-2018 14:22:24,40,-0.01568,-0.2737,0.99232,0.418285714285714,0.810285714285714,0.348571428571429,899.498,0,0,0,0,0,0,0,-0.150975,0.811875,-0.487375,-0.424,-0.898,-0.132,0.088,-0.010125,-0.6323,0.785775,0.488,0.444428571428571,-0.0871428571428571,751.873333333333,0,1,1,0
24-May-2018 14:22:24,40,-0.01568,-0.2737,0.99232,0.418285714285714,0.810285714285714,0.348571428571429,899.498,0,0,0,0,0,0,0,-0.150975,0.811875,-0.487375,-0.424,-0.898,-0.132,0.088,-0.010125,-0.6323,0.785775,0.488,0.444428571428571,-0.0871428571428571,751.873333333333,0,1,1,0
24-May-2018 14:22:24,40,-0.01568,-0.2737,0.99232,0.418285714285714,0.810285714285714,0.348571428571429,899.498,0,0,0,0,0,0,0,-0.150975,0.811875,-0.487375,-0.424,-0.898,-0.132,0.088,-0.010125,-0.6323,0.785775,0.488,0.444428571428571,-0.0871428571428571,751.873333333333,0,1,1,0
24-May-2018 14:22:24,40,-0.01568,-0.2737,0.99232,0.418285714285714,0.810285714285714,0.348571428571429,899.498,0,0,0,0,0,0,0,-0.150975,0.811875,-0.487375,-0.424,-0.898,-0.132,0.088,-0.010125,-0.6323,0.785775,0.488,0.444428571428571,-0.0871428571428571,751.873333333333,0,1,1,0
24-May-2018 14:22:25,122.3,-0.0338375,-0.2791125,0.9898875,0.5246,0.5638,0.4392,896.62025,0,0,0,0,0,0,0,-0.151185714285714,0.811285714285714,-0.488871428571429,-0.555,-0.89,-0.22,0.088,-0.01124,-0.63196,0.78474,0.630333333333333,0.498166666666667,-0.0305,751.3395,0,1,1,0
24-May-2018 14:22:25,122.3,-0.0338375,-0.2791125,0.9898875,0.5246,0.5638,0.4392,896.62025,0,0,0,0,0,0,0,-0.151185714285714,0.811285714285714,-0.488871428571429,-0.555,-0.89,-0.22,0.088,-0.01124,-0.63196,0.78474,0.630333333333333,0.498166666666667,-0.0305,751.3395,0,1,1,0
24-May-2018 14:22:25,122.3,-0.0338375,-0.2791125,0.9898875,0.5246,0.5638,0.4392,896.62025,0,0,0,0,0,0,0,-0.151185714285714,0.811285714285714,-0.488871428571429,-0.555,-0.89,-0.22,0.088,-0.01124,-0.63196,0.78474,0.630333333333333,0.498166666666667,-0.0305,751.3395,0,1,1,0
24-May-2018 14:22:25,122.3,-0.0338375,-0.2791125,0.9898875,0.5246,0.5638,0.4392,896.62025,0,0,0,0,0,0,0,-0.151185714285714,0.811285714285714,-0.488871428571429,-0.555,-0.89,-0.22,0.088,-0.01124,-0.63196,0.78474,0.630333333333333,0.498166666666667,-0.0305,751.3395,0,1,1,0
24-May-2018 14:22:26,123.4,-0.0227285714285714,-0.275914285714286,0.992057142857143,1.013875,-0.5725,0.404125,895.868666666667,0,0,0,0,0,0,0,-0.15144,0.81122,-0.48732,-0.57,-0.85,-0.276,0.088,-0.012,-0.632075,0.784875,0.711666666666667,0.488,-0.254166666666667,750.88,0,1,1,0
24-May-2018 14:22:26,123.4,-0.0227285714285714,-0.275914285714286,0.992057142857143,1.013875,-0.5725,0.404125,895.868666666667,0,0,0,0,0,0,0,-0.15144,0.81122,-0.48732,-0.57,-0.85,-0.276,0.088,-0.012,-0.632075,0.784875,0.711666666666667,0.488,-0.254166666666667,750.88,0,1,1,0
24-May-2018 14:22:26,123.4,-0.0227285714285714,-0.275914285714286,0.992057142857143,1.013875,-0.5725,0.404125,895.868666666667,0,0,0,0,0,0,0,-0.15144,0.81122,-0.48732,-0.57,-0.85,-0.276,0.088,-0.012,-0.632075,0.784875,0.711666666666667,0.488,-0.254166666666667,750.88,0,1,1,0
24-May-2018 14:22:26,123.4,-0.0227285714285714,-0.275914285714286,0.992057142857143,1.013875,-0.5725,0.404125,895.868666666667,0,0,0,0,0,0,0,-0.15144,0.81122,-0.48732,-0.57,-0.85,-0.276,0.088,-0.012,-0.632075,0.784875,0.711666666666667,0.488,-0.254166666666667,750.88,0,1,1,0
24-May-2018 14:22:27,135.1,-0.0137833333333333,-0.272816666666667,0.9926,0.711666666666667,-0.00816666666666666,0.355833333333333,899.36225,0,0,0,0,0,0,0,-0.15014,0.81296,-0.4868,-0.46875,-0.9175,-0.1875,0.088,-0.01225,-0.631275,0.78745,0.444428571428571,0.453142857142857,-0.296285714285714,752.2516,0,1,1,0
24-May-2018 14:22:27,135.1,-0.0137833333333333,-0.272816666666667,0.9926,0.711666666666667,-0.00816666666666666,0.355833333333333,899.36225,0,0,0,0,0,0,0,-0.15014,0.81296,-0.4868,-0.46875,-0.9175,-0.1875,0.088,-0.01225,-0.631275,0.78745,0.444428571428571,0.453142857142857,-0.296285714285714,752.2516,0,1,1,0
24-May-2018 14:22:27,135.1,-0.0137833333333333,-0.272816666666667,0.9926,0.711666666666667,-0.00816666666666666,0.355833333333333,899.36225,0,0,0,0,0,0,0,-0.15014,0.81296,-0.4868,-0.46875,-0.9175,-0.1875,0.088,-0.01225,-0.631275,0.78745,0.444428571428571,0.453142857142857,-0.296285714285714,752.2516,0,1,1,0
24-May-2018 14:22:27,135.1,-0.0137833333333333,-0.272816666666667,0.9926,0.711666666666667,-0.00816666666666666,0.355833333333333,899.36225,0,0,0,0,0,0,0,-0.15014,0.81296,-0.4868,-0.46875,-0.9175,-0.1875,0.088,-0.01225,-0.631275,0.78745,0.444428571428571,0.453142857142857,-0.296285714285714,752.2516,0,1,1,0
24-May-2018 14:22:28,-37,-0.0233714285714286,-0.275314285714286,0.991657142857143,0.244833333333333,1.41233333333333,0.416833333333333,899.952666666667,0,0,0,0,0,0,0,-0.151316666666667,0.81015,-0.489316666666667,-0.6025,-0.835,-0.285,0.088,-0.0115833333333333,-0.63095,0.784666666666667,0.427,0.479285714285714,-0.165571428571429,751.814333333333,0,1,1,0
24-May-2018 14:22:28,-37,-0.0233714285714286,-0.275314285714286,0.991657142857143,0.244833333333333,1.41233333333333,0.416833333333333,899.952666666667,0,0,0,0,0,0,0,-0.151316666666667,0.81015,-0.489316666666667,-0.6025,-0.835,-0.285,0.088,-0.0115833333333333,-0.63095,0.784666666666667,0.427,0.479285714285714,-0.165571428571429,751.814333333333,0,1,1,0
24-May-2018 14:22:28,-37,-0.0233714285714286,-0.275314285714286,0.991657142857143,0.244833333333333,1.41233333333333,0.416833333333333,899.952666666667,0,0,0,0,0,0,0,-0.151316666666667,0.81015,-0.489316666666667,-0.6025,-0.835,-0.285,0.088,-0.0115833333333333,-0.63095,0.784666666666667,0.427,0.479285714285714,-0.165571428571429,751.814333333333,0,1,1,0
24-May-2018 14:22:28,-37,-0.0233714285714286,-0.275314285714286,0.991657142857143,0.244833333333333,1.41233333333333,0.416833333333333,899.952666666667,0,0,0,0,0,0,0,-0.151316666666667,0.81015,-0.489316666666667,-0.6025,-0.835,-0.285,0.088,-0.0115833333333333,-0.63095,0.784666666666667,0.427,0.479285714285714,-0.165571428571429,751.814333333333,0,1,1,0
24-May-2018 14:22:29,-68.7,-0.0336,-0.2798875,0.988725,0.702375,-0.357,0.32025,895.672,0,0,0,0,0,0,0,-0.15005,0.8123625,-0.4866625,-0.648571428571429,-0.927142857142857,-0.231285714285714,0.088,-0.01236,-0.63182,0.7846,0.714571428571429,0.496714285714286,-0.0435714285714285,751.05975,0,1,1,0
24-May-2018 14:22:29,-68.7,-0.0336,-0.2798875,0.988725,0.702375,-0.357,0.32025,895.672,0,0,0,0,0,0,0,-0.15005,0.8123625,-0.4866625,-0.648571428571429,-0.927142857142857,-0.231285714285714,0.088,-0.01236,-0.63182,0.7846,0.714571428571429,0.496714285714286,-0.0435714285714285,751.05975,0,1,1,0
24-May-2018 14:22:29,-68.7,-0.0336,-0.2798875,0.988725,0.702375,-0.357,0.32025,895.672,0,0,0,0,0,0,0,-0.15005,0.8123625,-0.4866625,-0.648571428571429,-0.927142857142857,-0.231285714285714,0.088,-0.01236,-0.63182,0.7846,0.714571428571429,0.496714285714286,-0.0435714285714285,751.05975,0,1,1,0
24-May-2018 14:22:29,-68.7,-0.0336,-0.2798875,0.988725,0.702375,-0.357,0.32025,895.672,0,0,0,0,0,0,0,-0.15005,0.8123625,-0.4866625,-0.648571428571429,-0.927142857142857,-0.231285714285714,0.088,-0.01236,-0.63182,0.7846,0.714571428571429,0.496714285714286,-0.0435714285714285,751.05975,0,1,1,0
24-May-2018 14:22:30,10.7272727272727,-0.0167666666666667,-0.273844444444444,0.992388888888889,0.962222222222222,-0.491111111111111,0.332111111111111,895.672,0,0,0,0,0,0,0,-0.15038,0.81126,-0.4872,-0.555,-0.87,-0.21,0.088,-0.0114,-0.632071428571429,0.785957142857143,0.8662,0.5124,-0.183,751.129,0,1,1,0
24-May-2018 14:22:30,10.7272727272727,-0.0167666666666667,-0.273844444444444,0.992388888888889,0.962222222222222,-0.491111111111111,0.332111111111111,895.672,0,0,0,0,0,0,0,-0.15038,0.81126,-0.4872,-0.555,-0.87,-0.21,0.088,-0.0114,-0.632071428571429,0.785957142857143,0.8662,0.5124,-0.183,751.129,0,1,1,0
24-May-2018 14:22:30,10.7272727272727,-0.0167666666666667,-0.273844444444444,0.992388888888889,0.962222222222222,-0.491111111111111,0.332111111111111,895.672,0,0,0,0,0,0,0,-0.15038,0.81126,-0.4872,-0.555,-0.87,-0.21,0.088,-0.0114,-0.632071428571429,0.785957142857143,0.8662,0.5124,-0.183,751.129,0,1,1,0
24-May-2018 14:22:30,10.7272727272727,-0.0167666666666667,-0.273844444444444,0.992388888888889,0.962222222222222,-0.491111111111111,0.332111111111111,0,0,0,0,0,0,0,0,-0.15038,0.81126,-0.4872,-0.555,-0.87,-0.21,0.088,-0.0114,-0.632071428571429,0.785957142857143,0.8662,0.5124,-0.183,751.129,0,1,1,0
24-May-2018 14:22:31,34.9,-0.0134333333333333,-0.271783333333333,0.991666666666667,0.5795,0.260625,0.3355,900.4925,0,0,0,0,0,0,0,-0.150283333333333,0.812533333333333,-0.488,-0.65,-1.0175,-0.135,0.088,-0.0121,-0.62864,0.78686,0.721833333333333,0.498166666666667,-0.142333333333333,751.693,0,1,1,0
24-May-2018 14:22:31,34.9,-0.0134333333333333,-0.271783333333333,0.991666666666667,0.5795,0.260625,0.3355,900.4925,0,0,0,0,0,0,0,-0.150283333333333,0.812533333333333,-0.488,-0.65,-1.0175,-0.135,0.088,-0.0121,-0.62864,0.78686,0.721833333333333,0.498166666666667,-0.142333333333333,751.693,0,1,1,0
24-May-2018 14:22:31,34.9,-0.0134333333333333,-0.271783333333333,0.991666666666667,0.5795,0.260625,0.3355,900.4925,0,0,0,0,0,0,0,-0.150283333333333,0.812533333333333,-0.488,-0.65,-1.0175,-0.135,0.088,-0.0121,-0.62864,0.78686,0.721833333333333,0.498166666666667,-0.142333333333333,751.693,0,1,1,0
24-May-2018 14:22:31,34.9,-0.0134333333333333,-0.271783333333333,0.991666666666667,0.5795,0.260625,0.3355,900.4925,0,0,0,0,0,0,0,-0.150283333333333,0.812533333333333,-0.488,-0.65,-1.0175,-0.135,0.088,-0.0121,-0.62864,0.78686,0.721833333333333,0.498166666666667,-0.142333333333333,751.693,0,1,1,0
24-May-2018 14:22:32,66.5,-0.034,-0.27756,0.99,0.1956,1.5008,0.4636,897.384666666667,0,0,0,0,0,0,0,-0.150771428571429,0.811571428571429,-0.486714285714286,-0.471666666666667,-0.92,-0.19,0.088,-0.0122,-0.63115,0.785083333333333,0.526125,0.488,-0.13725,751.633,0,1,1,0
24-May-2018 14:22:32,66.5,-0.034,-0.27756,0.99,0.1956,1.5008,0.4636,897.384666666667,0,0,0,0,0,0,0,-0.150771428571429,0.811571428571429,-0.486714285714286,-0.471666666666667,-0.92,-0.19,0.088,-0.0122,-0.63115,0.785083333333333,0.526125,0.488,-0.13725,751.633,0,1,1,0
24-May-2018 14:22:32,66.5,-0.034,-0.27756,0.99,0.1956,1.5008,0.4636,897.384666666667,0,0,0,0,0,0,0,-0.150771428571429,0.811571428571429,-0.486714285714286,-0.471666666666667,-0.92,-0.19,0.088,-0.0122,-0.63115,0.785083333333333,0.526125,0.488,-0.13725,751.633,0,1,1,0
24-May-2018 14:22:32,66.5,-0.034,-0.27756,0.99,0.1956,1.5008,0.4636,897.384666666667,0,0,0,0,0,0,0,-0.150771428571429,0.811571428571429,-0.486714285714286,-0.471666666666667,-0.92,-0.19,0.088,-0.0122,-0.63115,0.785083333333333,0.526125,0.488,-0.13725,751.633,0,1,1,0
24-May-2018 14:22:33,150.285714285714,-0.0309833333333333,-0.277916666666667,0.989983333333333,1.13257142857143,-0.973428571428571,0.374714285714286,893.5194,0,0,0,0,0,0,0,-0.14885,0.81265,-0.488866666666667,-0.542857142857143,-0.944285714285714,-0.197142857142857,0.088,-0.0135,-0.63034,0.78576,0.914857142857143,0.505428571428571,-0.156857142857143,750.122666666667,0,1,1,0
24-May-2018 14:22:33,150.285714285714,-0.0309833333333333,-0.277916666666667,0.989983333333333,1.13257142857143,-0.973428571428571,0.374714285714286,893.5194,0,0,0,0,0,0,0,-0.14885,0.81265,-0.488866666666667,-0.542857142857143,-0.944285714285714,-0.197142857142857,0.088,-0.0135,-0.63034,0.78576,0.914857142857143,0.505428571428571,-0.156857142857143,750.122666666667,0,1,1,0
24-May-2018 14:22:33,150.285714285714,-0.0309833333333333,-0.277916666666667,0.989983333333333,1.13257142857143,-0.973428571428571,0.374714285714286,893.5194,0,0,0,0,0,0,0,-0.14885,0.81265,-0.488866666666667,-0.542857142857143,-0.944285714285714,-0.197142857142857,0.088,-0.0135,-0.63034,0.78576,0.914857142857143,0.505428571428571,-0.156857142857143,750.122666666667,0,1,1,0
24-May-2018 14:22:33,150.285714285714,-0.0309833333333333,-0.277916666666667,0.989983333333333,1.13257142857143,-0.973428571428571,0.374714285714286,893.5194,0,0,0,0,0,0,0,-0.14885,0.81265,-0.488866666666667,-0.542857142857143,-0.944285714285714,-0.197142857142857,0.088,-0.0135,-0.63034,0.78576,0.914857142857143,0.505428571428571,-0.156857142857143,750.122666666667,0,1,1,0
24-May-2018 14:22:34,139.4,-0.0150875,-0.2725625,0.9923875,0.77775,-0.119375,0.35075,899.418,0,0,0,0,0,0,0,-0.150033333333333,0.812183333333333,-0.487116666666667,-0.616666666666667,-0.88,-0.28,0.088,-0.0117333333333333,-0.629516666666667,0.7865,0.7015,0.508333333333333,-0.101666666666667,750.481,0,1,1,0
24-May-2018 14:22:34,139.4,-0.0150875,-0.2725625,0.9923875,0.77775,-0.119375,0.35075,899.418,0,0,0,0,0,0,0,-0.150033333333333,0.812183333333333,-0.487116666666667,-0.616666666666667,-0.88,-0.28,0.088,-0.0117333333333333,-0.629516666666667,0.7865,0.7015,0.508333333333333,-0.101666666666667,750.481,0,1,1,0
24-May-2018 14:22:34,139.4,-0.0150875,-0.2725625,0.9923875,0.77775,-0.119375,0.35075,899.418,0,0,0,0,0,0,0,-0.150033333333333,0.812183333333333,-0.487116666666667,-0.616666666666667,-0.88,-0.28,0.088,-0.0117333333333333,-0.629516666666667,0.7865,0.7015,0.508333333333333,-0.101666666666667,750.481,0,1,1,0
24-May-2018 14:22:34,139.4,-0.0150875,-0.2725625,0.9923875,0.77775,-0.119375,0.35075,899.418,0,0,0,0,0,0,0,-0.150033333333333,0.812183333333333,-0.487116666666667,-0.616666666666667,-0.88,-0.28,0.088,-0.0117333333333333,-0.629516666666667,0.7865,0.7015,0.508333333333333,-0.101666666666667,750.481,0,1,1,0
24-May-2018 14:22:35,143.25,-0.0299833333333333,-0.277866666666667,0.991783333333333,0.00142857142857143,1.53285714285714,0.383428571428571,897.73,0,0,0,0,0,0,0,-0.15004,0.81306,-0.48812,-0.508,-0.838,-0.18,0.088,-0.0112666666666667,-0.630833333333333,0.785683333333333,0.627285714285714,0.470571428571429,0.0261428571428571,748.487333333333,0,1,1,0
24-May-2018 14:22:35,143.25,-0.0299833333333333,-0.277866666666667,0.991783333333333,0.00142857142857143,1.53285714285714,0.383428571428571,897.73,0,0,0,0,0,0,0,-0.15004,0.81306,-0.48812,-0.508,-0.838,-0.18,0.088,-0.0112666666666667,-0.630833333333333,0.785683333333333,0.627285714285714,0.470571428571429,0.0261428571428571,748.487333333333,0,1,1,0
24-May-2018 14:22:35,143.25,-0.0299833333333333,-0.277866666666667,0.991783333333333,0.00142857142857143,1.53285714285714,0.383428571428571,897.73,0,0,0,0,0,0,0,-0.15004,0.81306,-0.48812,-0.508,-0.838,-0.18,0.088,-0.0112666666666667,-0.630833333333333,0.785683333333333,0.627285714285714,0.470571428571429,0.0261428571428571,748.487333333333,0,1,1,0
24-May-2018 14:22:35,143.25,-0.0299833333333333,-0.277866666666667,0.991783333333333,0.00142857142857143,1.53285714285714,0.383428571428571,897.73,0,0,0,0,0,0,0,-0.15004,0.81306,-0.48812,-0.508,-0.838,-0.18,0.088,-0.0112666666666667,-0.630833333333333,0.785683333333333,0.627285714285714,0.470571428571429,0.0261428571428571,748.487333333333,0,1,1,0
24-May-2018 14:22:36,233.555555555556,-0.0351,-0.280466666666667,0.988933333333333,1.02785714285714,-1.00685714285714,0.374714285714286,889.81075,0,0,0,0,0,0,0,-0.149485714285714,0.811528571428571,-0.488257142857143,-0.496,-0.862,-0.096,0.088,-0.0128,-0.6321,0.78554,0.648125,0.4575,-0.205875,747.673,0,1,1,0
24-May-2018 14:22:36,233.555555555556,-0.0351,-0.280466666666667,0.988933333333333,1.02785714285714,-1.00685714285714,0.374714285714286,889.81075,0,0,0,0,0,0,0,-0.149485714285714,0.811528571428571,-0.488257142857143,-0.496,-0.862,-0.096,0.088,-0.0128,-0.6321,0.78554,0.648125,0.4575,-0.205875,747.673,0,1,1,0
24-May-2018 14:22:36,233.555555555556,-0.0351,-0.280466666666667,0.988933333333333,1.02785714285714,-1.00685714285714,0.374714285714286,889.81075,0,0,0,0,0,0,0,-0.149485714285714,0.811528571428571,-0.488257142857143,-0.496,-0.862,-0.096,0.088,-0.0128,-0.6321,0.78554,0.648125,0.4575,-0.205875,747.673,0,1,1,0
24-May-2018 14:22:36,233.555555555556,-0.0351,-0.280466666666667,0.988933333333333,1.02785714285714,-1.00685714285714,0.374714285714286,889.81075,0,0,0,0,0,0,0,-0.149485714285714,0.811528571428571,-0.488257142857143,-0.496,-0.862,-0.096,0.088,-0.0128,-0.6321,0.78554,0.648125,0.4575,-0.205875,747.673,0,1,1,0
24-May-2018 14:22:37,207.6,-0.017725,-0.2735875,0.9923875,0.9555,-0.423333333333333,0.366,892.484333333333,0,0,0,0,0,0,0,-0.15068,0.81152,-0.48662,-0.6125,-0.8875,-0.2775,0.088,-0.0116333333333333,-0.6308,0.784483333333333,0.9028,0.5002,-0.2318,747.80625,0,1,1,0
24-May-2018 14:22:37,207.6,-0.017725,-0.2735875,0.9923875,0.9555,-0.423333333333333,0.366,892.484333333333,0,0,0,0,0,0,0,-0.15068,0.81152,-0.48662,-0.6125,-0.8875,-0.2775,0.088,-0.0116333333333333,-0.6308,0.784483333333333,0.9028,0.5002,-0.2318,747.80625,0,1,1,0
24-May-2018 14:22:37,207.6,-0.017725,-0.2735875,0.9923875,0.9555,-0.423333333333333,0.366,892.484333333333,0,0,0,0,0,0,0,-0.15068,0.81152,-0.48662,-0.6125,-0.8875,-0.2775,0.088,-0.0116333333333333,-0.6308,0.784483333333333,0.9028,0.5002,-0.2318,747.80625,0,1,1,0
24-May-2018 14:22:37,207.6,-0.017725,-0.2735875,0.9923875,0.9555,-0.423333333333333,0.366,892.484333333333,0,0,0,0,0,0,0,-0.15068,0.81152,-0.48662,-0.6125,-0.8875,-0.2775,0.088,-0.0116333333333333,-0.6308,0.784483333333333,0.9028,0.5002,-0.2318,747.80625,0,1,1,0
24-May-2018 14:22:38,135.857142857143,-0.01825,-0.2738,0.99255,0.313714285714286,0.932,0.366,892.765333333333,0,0,0,0,0,0,0,-0.1504,0.811685714285714,-0.487328571428571,-0.421666666666667,-0.85,-0.09,0.088,-0.0128333333333333,-0.630033333333333,0.7879,0.579333333333333,0.437166666666667,-0.0406666666666667,748.233,0,1,1,0
24-May-2018 14:22:38,135.857142857143,-0.01825,-0.2738,0.99255,0.313714285714286,0.932,0.366,892.765333333333,0,0,0,0,0,0,0,-0.1504,0.811685714285714,-0.487328571428571,-0.421666666666667,-0.85,-0.09,0.088,-0.0128333333333333,-0.630033333333333,0.7879,0.579333333333333,0.437166666666667,-0.0406666666666667,748.233,0,1,1,0
24-May-2018 14:22:38,135.857142857143,-0.01825,-0.2738,0.99255,0.313714285714286,0.932,0.366,892.765333333333,0,0,0,0,0,0,0,-0.1504,0.811685714285714,-0.487328571428571,-0.421666666666667,-0.85,-0.09,0.088,-0.0128333333333333,-0.630033333333333,0.7879,0.579333333333333,0.437166666666667,-0.0406666666666667,748.233,0,1,1,0
24-May-2018 14:22:38,135.857142857143,-0.01825,-0.2738,0.99255,0.313714285714286,0.932,0.366,892.765333333333,0,0,0,0,0,0,0,-0.1504,0.811685714285714,-0.487328571428571,-0.421666666666667,-0.85,-0.09,0.088,-0.0128333333333333,-0.630033333333333,0.7879,0.579333333333333,0.437166666666667,-0.0406666666666667,748.233,0,1,1,0
24-May-2018 14:22:39,204.666666666667,-0.0349375,-0.280425,0.9901,0.481,0.422125,0.38125,891.632,0,0,0,0,0,0,0,-0.14985,0.811575,-0.4886,-0.562857142857143,-0.91,-0.205571428571429,0.088,-0.0122,-0.6325625,0.7858,0.540285714285714,0.505428571428571,-0.139428571428571,747.805,0,1,1,0
24-May-2018 14:22:39,204.666666666667,-0.0349375,-0.280425,0.9901,0.481,0.422125,0.38125,891.632,0,0,0,0,0,0,0,-0.14985,0.811575,-0.4886,-0.562857142857143,-0.91,-0.205571428571429,0.088,-0.0122,-0.6325625,0.7858,0.540285714285714,0.505428571428571,-0.139428571428571,747.805,0,1,1,0
24-May-2018 14:22:39,204.666666666667,-0.0349375,-0.280425,0.9901,0.481,0.422125,0.38125,891.632,0,0,0,0,0,0,0,-0.14985,0.811575,-0.4886,-0.562857142857143,-0.91,-0.205571428571429,0.088,-0.0122,-0.6325625,0.7858,0.540285714285714,0.505428571428571,-0.139428571428571,747.805,0,1,1,0
24-May-2018 14:22:39,204.666666666667,-0.0349375,-0.280425,0.9901,0.481,0.422125,0.38125,891.632,0,0,0,0,0,0,0,-0.14985,0.811575,-0.4886,-0.562857142857143,-0.91,-0.205571428571429,0.088,-0.0122,-0.6325625,0.7858,0.540285714285714,0.505428571428571,-0.139428571428571,747.805,0,1,1,0
24-May-2018 14:22:40,110.3,-0.0287666666666667,-0.277533333333333,0.990411111111111,0.86925,-0.33225,0.3965,891.632,0,0,0,0,0,0,0,-0.150566666666667,0.81255,-0.487483333333333,-0.506666666666667,-0.86,-0.22,0.088,-0.01148,-0.63196,0.78566,0.732,0.508333333333333,-0.122,747.7172,0,1,1,0
24-May-2018 14:22:40,110.3,-0.0287666666666667,-0.277533333333333,0.990411111111111,0.86925,-0.33225,0.3965,891.632,0,0,0,0,0,0,0,-0.150566666666667,0.81255,-0.487483333333333,-0.506666666666667,-0.86,-0.22,0.088,-0.01148,-0.63196,0.78566,0.732,0.508333333333333,-0.122,747.7172,0,1,1,0
24-May-2018 14:22:40,110.3,-0.0287666666666667,-0.277533333333333,0.990411111111111,0.86925,-0.33225,0.3965,891.632,0,0,0,0,0,0,0,-0.150566666666667,0.81255,-0.487483333333333,-0.506666666666667,-0.86,-0.22,0.088,-0.01148,-0.63196,0.78566,0.732,0.508333333333333,-0.122,747.7172,0,1,1,0
24-May-2018 14:22:40,110.3,-0.0287666666666667,-0.277533333333333,0.990411111111111,0.86925,-0.33225,0.3965,891.632,0,0,0,0,0,0,0,-0.150566666666667,0.81255,-0.487483333333333,-0.506666666666667,-0.86,-0.22,0.088,-0.01148,-0.63196,0.78566,0.732,0.508333333333333,-0.122,747.7172,0,1,1,0
24-May-2018 14:22:41,30.6,-0.02208,-0.27666,0.99208,0.8784,-0.3112,0.3294,891.632,0,0,0,0,0,0,0,-0.151,0.815075,-0.48725,-0.485,-0.97,-0.195,0.088,-0.01075,-0.62795,0.7883,0.8538,0.4392,-0.3902,748.255,0,1,1,0
24-May-2018 14:22:41,30.6,-0.02208,-0.27666,0.99208,0.8784,-0.3112,0.3294,891.632,0,0,0,0,0,0,0,-0.151,0.815075,-0.48725,-0.485,-0.97,-0.195,0.088,-0.01075,-0.62795,0.7883,0.8538,0.4392,-0.3902,748.255,0,1,1,0
24-May-2018 14:22:41,30.6,-0.02208,-0.27666,0.99208,0.8784,-0.3112,0.3294,0,0,0,0,0,0,0,0,-0.151,0.815075,-0.48725,-0.485,-0.97,-0.195,0.088,-0.01075,-0.62795,0.7883,0.8538,0.4392,-0.3902,748.255,0,1,1,0
24-May-2018 14:22:41,30.6,-0.02208,-0.27666,0.99208,0.8784,-0.3112,0.3294,0,0,0,0,0,0,0,0,-0.151,0.815075,-0.48725,-0.485,-0.97,-0.195,0.088,-0.01075,-0.62795,0.7883,0.8538,0.4392,-0.3902,748.255,0,1,1,0
24-May-2018 14:22:42,25,-0.02195,-0.27515,0.99415,0.122,1.28,0.244,887.689,0,0,0,0,0,0,0,-0.1487,0.8132,-0.48715,-0.4375,-0.88,-0.135,0.088,-0.00925,-0.63395,0.784525,0.894333333333333,0.508333333333333,0.101666666666667,748.189,0,1,1,1
24-May-2018 14:22:42,25,-0.02195,-0.27515,0.99415,0.122,1.28,0.244,887.689,0,0,0,0,0,0,0,-0.1487,0.8132,-0.48715,-0.4375,-0.88,-0.135,0.088,-0.00925,-0.63395,0.784525,0.894333333333333,0.508333333333333,0.101666666666667,748.189,0,1,1,1
24-May-2018 14:22:42,25,-0.02195,-0.27515,0.99415,0.122,1.28,0.244,887.689,0,0,0,0,0,0,0,-0.1487,0.8132,-0.48715,-0.4375,-0.88,-0.135,0.088,-0.00925,-0.63395,0.784525,0.894333333333333,0.508333333333333,0.101666666666667,748.189,0,1,1,1
24-May-2018 14:22:42,25,-0.02195,-0.27515,0.99415,0.122,1.28,0.244,887.689,0,0,0,0,0,0,0,-0.1487,0.8132,-0.48715,-0.4375,-0.88,-0.135,0.088,-0.00925,-0.63395,0.784525,0.894333333333333,0.508333333333333,0.101666666666667,748.189,0,1,1,1
24-May-2018 14:22:43,134,-0.0378,-0.28366,0.98938,0.1372,1.683,0.488,885.114,0,0,0,0,0,0,0,-0.148775,0.812775,-0.48775,-0.587142857142857,-0.815714285714286,-0.265714285714286,0.088,-0.01195,-0.63325,0.783333333333333,0.823333333333333,0.4575,-0.0101666666666667,747.807,0,1,1,0
24-May-2018 14:22:43,134,-0.0378,-0.28366,0.98938,0.1372,1.683,0.488,885.114,0,0,0,0,0,0,0,-0.148775,0.812775,-0.48775,-0.587142857142857,-0.815714285714286,-0.265714285714286,0.088,-0.01195,-0.63325,0.783333333333333,0.823333333333333,0.4575,-0.0101666666666667,747.807,0,1,1,0
24-May-2018 14:22:43,134,-0.0378,-0.28366,0.98938,0.1372,1.683,0.488,885.114,0,0,0,0,0,0,0,-0.148775,0.812775,-0.48775,-0.587142857142857,-0.815714285714286,-0.265714285714286,0.088,-0.01195,-0.63325,0.783333333333333,0.823333333333333,0.4575,-0.0101666666666667,747.807,0,1,1,0
24-May-2018 14:22:43,134,-0.0378,-0.28366,0.98938,0.1372,1.683,0.488,885.114,0,0,0,0,0,0,0,-0.148775,0.812775,-0.48775,-0.587142857142857,-0.815714285714286,-0.265714285714286,0.088,-0.01195,-0.63325,0.783333333333333,0.823333333333333,0.4575,-0.0101666666666667,747.807,0,1,1,0
24-May-2018 14:22:44,168.222222222222,-0.03856,-0.28082,0.98876,0.8186,-0.3886,0.3294,881.687333333333,0,0,0,0,0,0,0,-0.150466666666667,0.811633333333333,-0.487466666666667,-0.507142857142857,-0.85,-0.188571428571429,0.088,-0.0126875,-0.63055,0.7855625,0.853833333333333,0.488,-0.172833333333333,747.231666666667,0,1,1,0
24-May-2018 14:22:44,168.222222222222,-0.03856,-0.28082,0.98876,0.8186,-0.3886,0.3294,881.687333333333,0,0,0,0,0,0,0,-0.150466666666667,0.811633333333333,-0.487466666666667,-0.507142857142857,-0.85,-0.188571428571429,0.088,-0.0126875,-0.63055,0.7855625,0.853833333333333,0.488,-0.172833333333333,747.231666666667,0,1,1,0
24-May-2018 14:22:44,168.222222222222,-0.03856,-0.28082,0.98876,0.8186,-0.3886,0.3294,881.687333333333,0,0,0,0,0,0,0,-0.150466666666667,0.811633333333333,-0.487466666666667,-0.507142857142857,-0.85,-0.188571428571429,0.088,-0.0126875,-0.63055,0.7855625,0.853833333333333,0.488,-0.172833333333333,747.231666666667,0,1,1,0
24-May-2018 14:22:44,168.222222222222,-0.03856,-0.28082,0.98876,0.8186,-0.3886,0.3294,881.687333333333,0,0,0,0,0,0,0,-0.150466666666667,0.811633333333333,-0.487466666666667,-0.507142857142857,-0.85,-0.188571428571429,0.088,-0.0126875,-0.63055,0.7855625,0.853833333333333,0.488,-0.172833333333333,747.231666666667,0,1,1,0
24-May-2018 14:22:45,65.9,-0.0246833333333333,-0.27705,0.99165,1.09785714285714,-0.833857142857143,0.331142857142857,885.4304,0,0,0,0,0,0,0,-0.149671428571429,0.810928571428572,-0.488942857142857,-0.484285714285714,-0.858571428571429,-0.248571428571429,0.088,-0.013425,-0.636725,0.783975,0.508333333333333,0.5185,-0.223666666666667,746.7195,0,1,1,0
24-May-2018 14:22:45,65.9,-0.0246833333333333,-0.27705,0.99165,1.09785714285714,-0.833857142857143,0.331142857142857,885.4304,0,0,0,0,0,0,0,-0.149671428571429,0.810928571428572,-0.488942857142857,-0.484285714285714,-0.858571428571429,-0.248571428571429,0.088,-0.013425,-0.636725,0.783975,0.508333333333333,0.5185,-0.223666666666667,746.7195,0,1,1,0
24-May-2018 14:22:45,65.9,-0.0246833333333333,-0.27705,0.99165,1.09785714285714,-0.833857142857143,0.331142857142857,885.4304,0,0,0,0,0,0,0,-0.149671428571429,0.810928571428572,-0.488942857142857,-0.484285714285714,-0.858571428571429,-0.248571428571429,0.088,-0.013425,-0.636725,0.783975,0.508333333333333,0.5185,-0.223666666666667,746.7195,0,1,1,0
24-May-2018 14:22:45,65.9,-0.0246833333333333,-0.27705,0.99165,1.09785714285714,-0.833857142857143,0.331142857142857,885.4304,0,0,0,0,0,0,0,-0.149671428571429,0.810928571428572,-0.488942857142857,-0.484285714285714,-0.858571428571429,-0.248571428571429,0.088,-0.013425,-0.636725,0.783975,0.508333333333333,0.5185,-0.223666666666667,746.7195,0,1,1,0
24-May-2018 14:22:46,-28.3333333333333,-0.02825,-0.2792125,0.989425,0.416833333333333,0.458166666666667,0.427,885.269,0,0,0,0,0,0,0,-0.149633333333333,0.811333333333333,-0.488266666666667,-0.604,-0.826,-0.312,0.088,-0.0111875,-0.63425,0.7832875,0.758142857142857,0.488,-0.296285714285714,747.0745,0,1,1,0
24-May-2018 14:22:46,-28.3333333333333,-0.02825,-0.2792125,0.989425,0.416833333333333,0.458166666666667,0.427,885.269,0,0,0,0,0,0,0,-0.149633333333333,0.811333333333333,-0.488266666666667,-0.604,-0.826,-0.312,0.088,-0.0111875,-0.63425,0.7832875,0.758142857142857,0.488,-0.296285714285714,747.0745,0,1,1,0
24-May-2018 14:22:46,-28.3333333333333,-0.02825,-0.2792125,0.989425,0.416833333333333,0.458166666666667,0.427,885.269,0,0,0,0,0,0,0,-0.149633333333333,0.811333333333333,-0.488266666666667,-0.604,-0.826,-0.312,0.088,-0.0111875,-0.63425,0.7832875,0.758142857142857,0.488,-0.296285714285714,747.0745,0,1,1,0
24-May-2018 14:22:46,-28.3333333333333,-0.02825,-0.2792125,0.989425,0.416833333333333,0.458166666666667,0.427,885.269,0,0,0,0,0,0,0,-0.149633333333333,0.811333333333333,-0.488266666666667,-0.604,-0.826,-0.312,0.088,-0.0111875,-0.63425,0.7832875,0.758142857142857,0.488,-0.296285714285714,747.0745,0,1,1,0
24-May-2018 14:22:47,-34.8571428571429,-0.0219,-0.275485714285714,0.992042857142857,0.714428571428571,0.271142857142857,0.331142857142857,885.774666666667,0,0,0,0,0,0,0,-0.149542857142857,0.812785714285714,-0.488028571428571,-0.56,-0.865,-0.24,0.088,-0.01076,-0.63078,0.78526,0.636142857142857,0.453142857142857,-0.200428571428571,748.5472,0,1,1,0
24-May-2018 14:22:47,-34.8571428571429,-0.0219,-0.275485714285714,0.992042857142857,0.714428571428571,0.271142857142857,0.331142857142857,885.774666666667,0,0,0,0,0,0,0,-0.149542857142857,0.812785714285714,-0.488028571428571,-0.56,-0.865,-0.24,0.088,-0.01076,-0.63078,0.78526,0.636142857142857,0.453142857142857,-0.200428571428571,748.5472,0,1,1,0
24-May-2018 14:22:47,-34.8571428571429,-0.0219,-0.275485714285714,0.992042857142857,0.714428571428571,0.271142857142857,0.331142857142857,885.774666666667,0,0,0,0,0,0,0,-0.149542857142857,0.812785714285714,-0.488028571428571,-0.56,-0.865,-0.24,0.088,-0.01076,-0.63078,0.78526,0.636142857142857,0.453142857142857,-0.200428571428571,748.5472,0,1,1,0
24-May-2018 14:22:47,-34.8571428571429,-0.0219,-0.275485714285714,0.992042857142857,0.714428571428571,0.271142857142857,0.331142857142857,885.774666666667,0,0,0,0,0,0,0,-0.149542857142857,0.812785714285714,-0.488028571428571,-0.56,-0.865,-0.24,0.088,-0.01076,-0.63078,0.78526,0.636142857142857,0.453142857142857,-0.200428571428571,748.5472,0,1,1,0
24-May-2018 14:22:48,4.625,-0.0401833333333333,-0.281783333333333,0.989266666666667,0.123833333333333,0.853666666666667,0.294833333333333,889.944,0,0,0,0,0,0,0,-0.149683333333333,0.810783333333333,-0.48825,-0.372,-0.874,-0.108,0.088,-0.01225,-0.6336,0.78435,0.80825,0.47275,-0.0305,747.955,0,1,1,0
24-May-2018 14:22:48,4.625,-0.0401833333333333,-0.281783333333333,0.989266666666667,0.123833333333333,0.853666666666667,0.294833333333333,889.944,0,0,0,0,0,0,0,-0.149683333333333,0.810783333333333,-0.48825,-0.372,-0.874,-0.108,0.088,-0.01225,-0.6336,0.78435,0.80825,0.47275,-0.0305,747.955,0,1,1,0
24-May-2018 14:22:48,4.625,-0.0401833333333333,-0.281783333333333,0.989266666666667,0.123833333333333,0.853666666666667,0.294833333333333,889.944,0,0,0,0,0,0,0,-0.149683333333333,0.810783333333333,-0.48825,-0.372,-0.874,-0.108,0.088,-0.01225,-0.6336,0.78435,0.80825,0.47275,-0.0305,747.955,0,1,1,0
24-May-2018 14:22:48,4.625,-0.0401833333333333,-0.281783333333333,0.989266666666667,0.123833333333333,0.853666666666667,0.294833333333333,889.944,0,0,0,0,0,0,0,-0.149683333333333,0.810783333333333,-0.48825,-0.372,-0.874,-0.108,0.088,-0.01225,-0.6336,0.78435,0.80825,0.47275,-0.0305,747.955,0,1,1,0
24-May-2018 14:22:49,22.5,-0.0272625,-0.277975,0.9907375,1.28042857142857,-1.25142857142857,0.348571428571428,887.762,0,0,0,0,0,0,0,-0.151033333333333,0.813316666666667,-0.488133333333333,-0.581125,-0.81125,-0.32475,0.088,-0.011825,-0.632125,0.784525,0.538833333333333,0.477833333333333,-0.437166666666667,747.039,0,1,1,0
24-May-2018 14:22:49,22.5,-0.0272625,-0.277975,0.9907375,1.28042857142857,-1.25142857142857,0.348571428571428,887.762,0,0,0,0,0,0,0,-0.151033333333333,0.813316666666667,-0.488133333333333,-0.581125,-0.81125,-0.32475,0.088,-0.011825,-0.632125,0.784525,0.538833333333333,0.477833333333333,-0.437166666666667,747.039,0,1,1,0
24-May-2018 14:22:49,22.5,-0.0272625,-0.277975,0.9907375,1.28042857142857,-1.25142857142857,0.348571428571428,887.762,0,0,0,0,0,0,0,-0.151033333333333,0.813316666666667,-0.488133333333333,-0.581125,-0.81125,-0.32475,0.088,-0.011825,-0.632125,0.784525,0.538833333333333,0.477833333333333,-0.437166666666667,747.039,0,1,1,0
24-May-2018 14:22:49,22.5,-0.0272625,-0.277975,0.9907375,1.28042857142857,-1.25142857142857,0.348571428571428,887.762,0,0,0,0,0,0,0,-0.151033333333333,0.813316666666667,-0.488133333333333,-0.581125,-0.81125,-0.32475,0.088,-0.011825,-0.632125,0.784525,0.538833333333333,0.477833333333333,-0.437166666666667,747.039,0,1,1,0
24-May-2018 14:22:50,5.2,-0.0175857142857143,-0.273142857142857,0.992014285714286,0.508555555555555,0.414555555555556,0.311777777777778,892.515,0,0,0,0,0,0,0,-0.1485625,0.8127875,-0.4889,-0.963333333333333,-0.9,-0.26,0.088,-0.010975,-0.633075,0.7854375,0.440555555555556,0.447333333333333,-0.196555555555556,747.467,0,1,1,0
24-May-2018 14:22:50,5.2,-0.0175857142857143,-0.273142857142857,0.992014285714286,0.508555555555555,0.414555555555556,0.311777777777778,892.515,0,0,0,0,0,0,0,-0.1485625,0.8127875,-0.4889,-0.963333333333333,-0.9,-0.26,0.088,-0.010975,-0.633075,0.7854375,0.440555555555556,0.447333333333333,-0.196555555555556,747.467,0,1,1,0
24-May-2018 14:22:50,5.2,-0.0175857142857143,-0.273142857142857,0.992014285714286,0.508555555555555,0.414555555555556,0.311777777777778,892.515,0,0,0,0,0,0,0,-0.1485625,0.8127875,-0.4889,-0.963333333333333,-0.9,-0.26,0.088,-0.010975,-0.633075,0.7854375,0.440555555555556,0.447333333333333,-0.196555555555556,747.467,0,1,1,0
24-May-2018 14:22:50,5.2,-0.0175857142857143,-0.273142857142857,0.992014285714286,0.508555555555555,0.414555555555556,0.311777777777778,892.515,0,0,0,0,0,0,0,-0.1485625,0.8127875,-0.4889,-0.963333333333333,-0.9,-0.26,0.088,-0.010975,-0.633075,0.7854375,0.440555555555556,0.447333333333333,-0.196555555555556,747.467,0,1,1,0
24-May-2018 14:22:51,-82.2,-0.0393555555555556,-0.281522222222222,0.989077777777778,-0.035125,1.60125,0.38125,892.515,0,0,0,0,0,0,0,-0.150016666666667,0.812766666666667,-0.4844,-0.608333333333333,-0.758333333333333,-0.35,0.088,-0.011825,-0.633575,0.7828,1.0122,0.5124,0.0488,746.0202,0,1,1,0
24-May-2018 14:22:51,-82.2,-0.0393555555555556,-0.281522222222222,0.989077777777778,-0.035125,1.60125,0.38125,892.515,0,0,0,0,0,0,0,-0.150016666666667,0.812766666666667,-0.4844,-0.608333333333333,-0.758333333333333,-0.35,0.088,-0.011825,-0.633575,0.7828,1.0122,0.5124,0.0488,746.0202,0,1,1,0
24-May-2018 14:22:51,-82.2,-0.0393555555555556,-0.281522222222222,0.989077777777778,-0.035125,1.60125,0.38125,892.515,0,0,0,0,0,0,0,-0.150016666666667,0.812766666666667,-0.4844,-0.608333333333333,-0.758333333333333,-0.35,0.088,-0.011825,-0.633575,0.7828,1.0122,0.5124,0.0488,746.0202,0,1,1,0
24-May-2018 14:22:51,-82.2,-0.0393555555555556,-0.281522222222222,0.989077777777778,-0.035125,1.60125,0.38125,0,0,0,0,0,0,0,0,-0.150016666666667,0.812766666666667,-0.4844,-0.608333333333333,-0.758333333333333,-0.35,0.088,-0.011825,-0.633575,0.7828,1.0122,0.5124,0.0488,746.0202,0,1,1,0
24-May-2018 14:22:52,-70,-0.0332666666666667,-0.280216666666667,0.990733333333333,1.4405,-1.7175,0.32025,885.287666666667,0,0,0,0,0,0,0,-0.150883333333333,0.8128,-0.48435,-0.282,-1.15333333333333,-0.151,0.088,-0.012425,-0.63195,0.785225,0.709125,0.50325,-0.297375,745.9055,0,1,1,0
24-May-2018 14:22:52,-70,-0.0332666666666667,-0.280216666666667,0.990733333333333,1.4405,-1.7175,0.32025,885.287666666667,0,0,0,0,0,0,0,-0.150883333333333,0.8128,-0.48435,-0.282,-1.15333333333333,-0.151,0.088,-0.012425,-0.63195,0.785225,0.709125,0.50325,-0.297375,745.9055,0,1,1,0
24-May-2018 14:22:52,-70,-0.0332666666666667,-0.280216666666667,0.990733333333333,1.4405,-1.7175,0.32025,885.287666666667,0,0,0,0,0,0,0,-0.150883333333333,0.8128,-0.48435,-0.282,-1.15333333333333,-0.151,0.088,-0.012425,-0.63195,0.785225,0.709125,0.50325,-0.297375,745.9055,0,1,1,0
24-May-2018 14:22:52,-70,-0.0332666666666667,-0.280216666666667,0.990733333333333,1.4405,-1.7175,0.32025,885.287666666667,0,0,0,0,0,0,0,-0.150883333333333,0.8128,-0.48435,-0.282,-1.15333333333333,-0.151,0.088,-0.012425,-0.63195,0.785225,0.709125,0.50325,-0.297375,745.9055,0,1,1,0
24-May-2018 14:22:53,-21.6,-0.02148,-0.27372,0.99188,0.2452,1.0622,0.3172,889.215,0,0,0,0,0,0,0,-0.14896,0.81368,-0.48308,-0.581,-0.9818,0.00319999999999999,0.088,-0.011625,-0.63165,0.786075,0.5185,0.477833333333333,-0.0406666666666667,746.932,0,1,1,0
24-May-2018 14:22:53,-21.6,-0.02148,-0.27372,0.99188,0.2452,1.0622,0.3172,889.215,0,0,0,0,0,0,0,-0.14896,0.81368,-0.48308,-0.581,-0.9818,0.00319999999999999,0.088,-0.011625,-0.63165,0.786075,0.5185,0.477833333333333,-0.0406666666666667,746.932,0,1,1,0
24-May-2018 14:22:53,-21.6,-0.02148,-0.27372,0.99188,0.2452,1.0622,0.3172,889.215,0,0,0,0,0,0,0,-0.14896,0.81368,-0.48308,-0.581,-0.9818,0.00319999999999999,0.088,-0.011625,-0.63165,0.786075,0.5185,0.477833333333333,-0.0406666666666667,746.932,0,1,1,0
24-May-2018 14:22:53,-21.6,-0.02148,-0.27372,0.99188,0.2452,1.0622,0.3172,889.215,0,0,0,0,0,0,0,-0.14896,0.81368,-0.48308,-0.581,-0.9818,0.00319999999999999,0.088,-0.011625,-0.63165,0.786075,0.5185,0.477833333333333,-0.0406666666666667,746.932,0,1,1,0
24-May-2018 14:22:54,-38.4,-0.04184,-0.28398,0.98712,0.4685,0.478833333333333,0.3965,884.802285714286,0,0,0,0,0,0,0,-0.148266666666667,0.813466666666667,-0.486233333333333,-0.788857142857143,-0.955,-0.300857142857143,0.088,-0.0108428571428571,-0.634842857142857,0.783571428571429,0.453142857142857,0.461857142857143,-0.104571428571429,746.736,0,1,1,0
24-May-2018 14:22:54,-38.4,-0.04184,-0.28398,0.98712,0.4685,0.478833333333333,0.3965,884.802285714286,0,0,0,0,0,0,0,-0.148266666666667,0.813466666666667,-0.486233333333333,-0.788857142857143,-0.955,-0.300857142857143,0.088,-0.0108428571428571,-0.634842857142857,0.783571428571429,0.453142857142857,0.461857142857143,-0.104571428571429,746.736,0,1,1,0
24-May-2018 14:22:54,-38.4,-0.04184,-0.28398,0.98712,0.4685,0.478833333333333,0.3965,884.802285714286,0,0,0,0,0,0,0,-0.148266666666667,0.813466666666667,-0.486233333333333,-0.788857142857143,-0.955,-0.300857142857143,0.088,-0.0108428571428571,-0.634842857142857,0.783571428571429,0.453142857142857,0.461857142857143,-0.104571428571429,746.736,0,1,1,0
24-May-2018 14:22:54,-38.4,-0.04184,-0.28398,0.98712,0.4685,0.478833333333333,0.3965,884.802285714286,0,0,0,0,0,0,0,-0.148266666666667,0.813466666666667,-0.486233333333333,-0.788857142857143,-0.955,-0.300857142857143,0.088,-0.0108428571428571,-0.634842857142857,0.783571428571429,0.453142857142857,0.461857142857143,-0.104571428571429,746.736,0,1,1,0
24-May-2018 14:22:55,-5.11111111111111,-0.0207,-0.2752,0.9920875,1.1586,-1.068,0.3172,887.199,0,0,0,0,0,0,0,-0.1491,0.81346,-0.48878,-0.735714285714286,-1.02428571428571,-0.344285714285714,0.088,-0.01046,-0.63204,0.78464,0.701333333333333,0.477833333333333,-0.366,747.4035,0,1,1,0
24-May-2018 14:22:55,-5.11111111111111,-0.0207,-0.2752,0.9920875,1.1586,-1.068,0.3172,887.199,0,0,0,0,0,0,0,-0.1491,0.81346,-0.48878,-0.735714285714286,-1.02428571428571,-0.344285714285714,0.088,-0.01046,-0.63204,0.78464,0.701333333333333,0.477833333333333,-0.366,747.4035,0,1,1,0
24-May-2018 14:22:55,-5.11111111111111,-0.0207,-0.2752,0.9920875,1.1586,-1.068,0.3172,887.199,0,0,0,0,0,0,0,-0.1491,0.81346,-0.48878,-0.735714285714286,-1.02428571428571,-0.344285714285714,0.088,-0.01046,-0.63204,0.78464,0.701333333333333,0.477833333333333,-0.366,747.4035,0,1,1,0
24-May-2018 14:22:55,-5.11111111111111,-0.0207,-0.2752,0.9920875,1.1586,-1.068,0.3172,887.199,0,0,0,0,0,0,0,-0.1491,0.81346,-0.48878,-0.735714285714286,-1.02428571428571,-0.344285714285714,0.088,-0.01046,-0.63204,0.78464,0.701333333333333,0.477833333333333,-0.366,747.4035,0,1,1,0
24-May-2018 14:22:56,60.1,-0.0313333333333333,-0.2793,0.990266666666667,0.0302222222222222,1.32155555555556,0.305,891.383666666667,0,0,0,0,0,0,0,-0.149133333333333,0.811966666666667,-0.48605,-0.806666666666667,-0.91,-0.22,0.088,-0.0108666666666667,-0.633466666666667,0.784033333333333,0.400857142857143,0.435714285714286,-0.061,747.525666666667,0,1,1,0
24-May-2018 14:22:56,60.1,-0.0313333333333333,-0.2793,0.990266666666667,0.0302222222222222,1.32155555555556,0.305,891.383666666667,0,0,0,0,0,0,0,-0.149133333333333,0.811966666666667,-0.48605,-0.806666666666667,-0.91,-0.22,0.088,-0.0108666666666667,-0.633466666666667,0.784033333333333,0.400857142857143,0.435714285714286,-0.061,747.525666666667,0,1,1,0
24-May-2018 14:22:56,60.1,-0.0313333333333333,-0.2793,0.990266666666667,0.0302222222222222,1.32155555555556,0.305,891.383666666667,0,0,0,0,0,0,0,-0.149133333333333,0.811966666666667,-0.48605,-0.806666666666667,-0.91,-0.22,0.088,-0.0108666666666667,-0.633466666666667,0.784033333333333,0.400857142857143,0.435714285714286,-0.061,747.525666666667,0,1,1,0
24-May-2018 14:22:56,60.1,-0.0313333333333333,-0.2793,0.990266666666667,0.0302222222222222,1.32155555555556,0.305,891.383666666667,0,0,0,0,0,0,0,-0.149133333333333,0.811966666666667,-0.48605,-0.806666666666667,-0.91,-0.22,0.088,-0.0108666666666667,-0.633466666666667,0.784033333333333,0.400857142857143,0.435714285714286,-0.061,747.525666666667,0,1,1,0
24-May-2018 14:22:57,-10.5,-0.0370571428571429,-0.2802,0.988885714285714,1.35885714285714,-1.53571428571429,0.374714285714286,884.82525,0,0,0,0,0,0,0,-0.14908,0.81308,-0.48538,-0.518571428571428,-0.858571428571429,-0.24,0.088,-0.012425,-0.6342,0.784575,0.775571428571428,0.505428571428571,-0.217857142857143,747.400666666667,0,1,1,0
24-May-2018 14:22:57,-10.5,-0.0370571428571429,-0.2802,0.988885714285714,1.35885714285714,-1.53571428571429,0.374714285714286,884.82525,0,0,0,0,0,0,0,-0.14908,0.81308,-0.48538,-0.518571428571428,-0.858571428571429,-0.24,0.088,-0.012425,-0.6342,0.784575,0.775571428571428,0.505428571428571,-0.217857142857143,747.400666666667,0,1,1,0
24-May-2018 14:22:57,-10.5,-0.0370571428571429,-0.2802,0.988885714285714,1.35885714285714,-1.53571428571429,0.374714285714286,884.82525,0,0,0,0,0,0,0,-0.14908,0.81308,-0.48538,-0.518571428571428,-0.858571428571429,-0.24,0.088,-0.012425,-0.6342,0.784575,0.775571428571428,0.505428571428571,-0.217857142857143,747.400666666667,0,1,1,0
24-May-2018 14:22:57,-10.5,-0.0370571428571429,-0.2802,0.988885714285714,1.35885714285714,-1.53571428571429,0.374714285714286,884.82525,0,0,0,0,0,0,0,-0.14908,0.81308,-0.48538,-0.518571428571428,-0.858571428571429,-0.24,0.088,-0.012425,-0.6342,0.784575,0.775571428571428,0.505428571428571,-0.217857142857143,747.400666666667,0,1,1,0
24-May-2018 14:22:58,17.8,-0.0192857142857143,-0.274242857142857,0.992614285714286,0.509,0.640833333333333,0.315166666666667,894.088,0,0,0,0,0,0,0,-0.148171428571429,0.814314285714286,-0.485742857142857,-0.523333333333333,-0.98,-0.14,0.088,-0.01065,-0.6319375,0.7847,0.3355,0.4575,-0.172833333333333,748.3095,0,1,1,0
24-May-2018 14:22:58,17.8,-0.0192857142857143,-0.274242857142857,0.992614285714286,0.509,0.640833333333333,0.315166666666667,894.088,0,0,0,0,0,0,0,-0.148171428571429,0.814314285714286,-0.485742857142857,-0.523333333333333,-0.98,-0.14,0.088,-0.01065,-0.6319375,0.7847,0.3355,0.4575,-0.172833333333333,748.3095,0,1,1,0
24-May-2018 14:22:58,17.8,-0.0192857142857143,-0.274242857142857,0.992614285714286,0.509,0.640833333333333,0.315166666666667,894.088,0,0,0,0,0,0,0,-0.148171428571429,0.814314285714286,-0.485742857142857,-0.523333333333333,-0.98,-0.14,0.088,-0.01065,-0.6319375,0.7847,0.3355,0.4575,-0.172833333333333,748.3095,0,1,1,0
24-May-2018 14:22:58,17.8,-0.0192857142857143,-0.274242857142857,0.992614285714286,0.509,0.640833333333333,0.315166666666667,894.088,0,0,0,0,0,0,0,-0.148171428571429,0.814314285714286,-0.485742857142857,-0.523333333333333,-0.98,-0.14,0.088,-0.01065,-0.6319375,0.7847,0.3355,0.4575,-0.172833333333333,748.3095,0,1,1,0
24-May-2018 14:22:59,118.8,-0.0476833333333333,-0.285916666666667,0.987266666666667,-0.0324285714285714,1.29871428571429,0.348571428571429,888.8645,0,0,0,0,0,0,0,-0.1491,0.815733333333333,-0.484666666666667,-0.658571428571428,-0.892857142857143,-0.274285714285714,0.088,-0.01208,-0.63376,0.78302,0.388875,0.44225,-0.175375,748.479,0,1,1,0
24-May-2018 14:22:59,118.8,-0.0476833333333333,-0.285916666666667,0.987266666666667,-0.0324285714285714,1.29871428571429,0.348571428571429,888.8645,0,0,0,0,0,0,0,-0.1491,0.815733333333333,-0.484666666666667,-0.658571428571428,-0.892857142857143,-0.274285714285714,0.088,-0.01208,-0.63376,0.78302,0.388875,0.44225,-0.175375,748.479,0,1,1,0
24-May-2018 14:22:59,118.8,-0.0476833333333333,-0.285916666666667,0.987266666666667,-0.0324285714285714,1.29871428571429,0.348571428571429,888.8645,0,0,0,0,0,0,0,-0.1491,0.815733333333333,-0.484666666666667,-0.658571428571428,-0.892857142857143,-0.274285714285714,0.088,-0.01208,-0.63376,0.78302,0.388875,0.44225,-0.175375,748.479,0,1,1,0
24-May-2018 14:22:59,118.8,-0.0476833333333333,-0.285916666666667,0.987266666666667,-0.0324285714285714,1.29871428571429,0.348571428571429,888.8645,0,0,0,0,0,0,0,-0.1491,0.815733333333333,-0.484666666666667,-0.658571428571428,-0.892857142857143,-0.274285714285714,0.088,-0.01208,-0.63376,0.78302,0.388875,0.44225,-0.175375,748.479,0,1,1,0
24-May-2018 14:23:00,180.5,-0.0370333333333333,-0.281655555555556,0.989622222222222,1.19933333333333,-1.10666666666667,0.359222222222222,888.8645,0,0,0,0,0,0,0,-0.1486125,0.8148125,-0.484825,-0.582,-0.874,-0.228,0.088,-0.012125,-0.63205,0.783825,0.496714285714286,0.427,-0.244,747.792333333333,0,1,1,0
24-May-2018 14:23:00,180.5,-0.0370333333333333,-0.281655555555556,0.989622222222222,1.19933333333333,-1.10666666666667,0.359222222222222,888.8645,0,0,0,0,0,0,0,-0.1486125,0.8148125,-0.484825,-0.582,-0.874,-0.228,0.088,-0.012125,-0.63205,0.783825,0.496714285714286,0.427,-0.244,747.792333333333,0,1,1,0
24-May-2018 14:23:00,180.5,-0.0370333333333333,-0.281655555555556,0.989622222222222,1.19933333333333,-1.10666666666667,0.359222222222222,888.8645,0,0,0,0,0,0,0,-0.1486125,0.8148125,-0.484825,-0.582,-0.874,-0.228,0.088,-0.012125,-0.63205,0.783825,0.496714285714286,0.427,-0.244,747.792333333333,0,1,1,0
24-May-2018 14:23:00,180.5,-0.0370333333333333,-0.281655555555556,0.989622222222222,1.19933333333333,-1.10666666666667,0.359222222222222,888.8645,0,0,0,0,0,0,0,-0.1486125,0.8148125,-0.484825,-0.582,-0.874,-0.228,0.088,-0.012125,-0.63205,0.783825,0.496714285714286,0.427,-0.244,747.792333333333,0,1,1,0
24-May-2018 14:23:01,167.666666666667,-0.0180375,-0.274,0.992875,0.840333333333333,-0.0723333333333333,0.352444444444444,888.8645,0,0,0,0,0,0,0,-0.148716666666667,0.813283333333333,-0.485083333333333,-0.545714285714286,-0.91,-0.154285714285714,0.088,-0.0108166666666667,-0.63275,0.7859,0.740714285714286,0.470571428571429,-0.209142857142857,748.139666666667,0,1,1,0
24-May-2018 14:23:01,167.666666666667,-0.0180375,-0.274,0.992875,0.840333333333333,-0.0723333333333333,0.352444444444444,888.8645,0,0,0,0,0,0,0,-0.148716666666667,0.813283333333333,-0.485083333333333,-0.545714285714286,-0.91,-0.154285714285714,0.088,-0.0108166666666667,-0.63275,0.7859,0.740714285714286,0.470571428571429,-0.209142857142857,748.139666666667,0,1,1,0
24-May-2018 14:23:01,167.666666666667,-0.0180375,-0.274,0.992875,0.840333333333333,-0.0723333333333333,0.352444444444444,0,0,0,0,0,0,0,0,-0.148716666666667,0.813283333333333,-0.485083333333333,-0.545714285714286,-0.91,-0.154285714285714,0.088,-0.0108166666666667,-0.63275,0.7859,0.740714285714286,0.470571428571429,-0.209142857142857,748.139666666667,0,1,1,0
24-May-2018 14:23:01,167.666666666667,-0.0180375,-0.274,0.992875,0.840333333333333,-0.0723333333333333,0.352444444444444,0,0,0,0,0,0,0,0,-0.148716666666667,0.813283333333333,-0.485083333333333,-0.545714285714286,-0.91,-0.154285714285714,0.088,-0.0108166666666667,-0.63275,0.7859,0.740714285714286,0.470571428571429,-0.209142857142857,748.139666666667,0,1,1,0
24-May-2018 14:23:02,119,-0.0396571428571428,-0.2844,0.984742857142857,-0.7175,1.46366666666667,0.2455,892.072,0,0,0,0,0,0,0,-0.1483,0.814033333333333,-0.485583333333333,-0.516666666666667,-0.91,-0.21,0.088,-0.0131,-0.62874,0.78606,0.4955,0.449875,-0.312375,748.864,0,1,1,1
24-May-2018 14:23:02,119,-0.0396571428571428,-0.2844,0.984742857142857,-0.7175,1.46366666666667,0.2455,892.072,0,0,0,0,0,0,0,-0.1483,0.814033333333333,-0.485583333333333,-0.516666666666667,-0.91,-0.21,0.088,-0.0131,-0.62874,0.78606,0.4955,0.449875,-0.312375,748.864,0,1,1,1
24-May-2018 14:23:02,119,-0.0396571428571428,-0.2844,0.984742857142857,-0.7175,1.46366666666667,0.2455,892.072,0,0,0,0,0,0,0,-0.1483,0.814033333333333,-0.485583333333333,-0.516666666666667,-0.91,-0.21,0.088,-0.0131,-0.62874,0.78606,0.4955,0.449875,-0.312375,748.864,0,1,1,1
24-May-2018 14:23:02,119,-0.0396571428571428,-0.2844,0.984742857142857,-0.7175,1.46366666666667,0.2455,892.072,0,0,0,0,0,0,0,-0.1483,0.814033333333333,-0.485583333333333,-0.516666666666667,-0.91,-0.21,0.088,-0.0131,-0.62874,0.78606,0.4955,0.449875,-0.312375,748.864,0,1,1,1
24-May-2018 14:23:03,35.6,-0.05962,-0.29556,0.98204,0.4435,-0.18025,0.22975,880.653125,0,0,0,0,0,0,0,-0.149266666666667,0.814133333333333,-0.486066666666667,-0.604,-0.934,-0.18,0.088,-0.01185,-0.6338,0.7835,0.1708,0.4392,-0.183,748.448,0,1,1,0
24-May-2018 14:23:03,35.6,-0.05962,-0.29556,0.98204,0.4435,-0.18025,0.22975,880.653125,0,0,0,0,0,0,0,-0.149266666666667,0.814133333333333,-0.486066666666667,-0.604,-0.934,-0.18,0.088,-0.01185,-0.6338,0.7835,0.1708,0.4392,-0.183,748.448,0,1,1,0
24-May-2018 14:23:03,35.6,-0.05962,-0.29556,0.98204,0.4435,-0.18025,0.22975,880.653125,0,0,0,0,0,0,0,-0.149266666666667,0.814133333333333,-0.486066666666667,-0.604,-0.934,-0.18,0.088,-0.01185,-0.6338,0.7835,0.1708,0.4392,-0.183,748.448,0,1,1,0
24-May-2018 14:23:03,35.6,-0.05962,-0.29556,0.98204,0.4435,-0.18025,0.22975,880.653125,0,0,0,0,0,0,0,-0.149266666666667,0.814133333333333,-0.486066666666667,-0.604,-0.934,-0.18,0.088,-0.01185,-0.6338,0.7835,0.1708,0.4392,-0.183,748.448,0,1,1,0
24-May-2018 14:23:04,67.875,-0.0487166666666667,-0.293383333333333,0.974283333333333,1.35266666666667,-1.228,0.275166666666667,880.608333333333,0,0,0,0,0,0,0,-0.148483333333333,0.814,-0.484483333333333,-0.571428571428571,-0.91,-0.282857142857143,0.088,-0.0115333333333333,-0.632183333333333,0.786266666666667,0.435714285714286,0.479285714285714,-0.113285714285714,747.783,0,1,1,0
24-May-2018 14:23:04,0,0,0,0,0,0,0,0,0,0,0,0,0,0,0,0,0,0,0,0,0,0,0,0,0,0,0,0,0,0,1,1,0
24-May-2018 14:23:04,0,0,0,0,0,0,0,0,0,0,0,0,0,0,0,0,0,0,0,0,0,0,0,0,0,0,0,0,0,0,1,1,0
24-May-2018 14:23:04,0,0,0,0,0,0,0,0,0,0,0,0,0,0,0,0,0,0,0,0,0,0,0,0,0,0,0,0,0,0,1,1,0
24-May-2018 14:23:05,15.9,-0.0406375,-0.292175,0.986125,1.65633333333333,-1.64166666666667,0.2445,881.4775,0,0,0,0,0,0,0,-0.14895,0.814083333333333,-0.484616666666667,-0.511428571428571,-0.901428571428571,-0.162857142857143,0,-0.0116125,-0.6367875,0.7821375,0.678625,0.3965,-0.38125,747.2455,0,1,1,0
24-May-2018 14:23:05,0,0,0,0,0,0,0,0,0,0,0,0,0,0,0,0,0,0,0,0,0,0,0,0,0,0,0,0,0,0,1,1,0
24-May-2018 14:23:05,0,0,0,0,0,0,0,0,0,0,0,0,0,0,0,0,0,0,0,0,0,0,0,0,0,0,0,0,0,0,1,1,0
24-May-2018 14:23:05,0,0,0,0,0,0,0,0,0,0,0,0,0,0,0,0,0,0,0,0,0,0,0,0,0,0,0,0,0,0,1,1,0
