TIME,HELMET_RAW,BELT_ACC_X,BELT_ACC_Y,BELT_ACC_Z,BELT_ANG_X,BELT_ANG_Y,BELT_ANG_Z,BELT_LUMINOSITY,NECK_ACC_X,NECK_ACC_Y,NECK_ACC_Z,NECK_ANG_X,NECK_ANG_Y,NECK_ANG_Z,NECK_LUMINOSITY,PCKT_ACC_X,PCKT_ACC_Y,PCKT_ACC_Z,PCKT_ANG_X,PCKT_ANG_Y,PCKT_ANG_Z,PCKT_LUMINOSITY,WRST_ACC_X,WRST_ACC_Y,WRST_ACC_Z,WRST_ANG_X,WRST_ANG_Y,WRST_ANG_Z,WRST_LUMINOSITY,IR_1,IR_2,IR_3,IR_4
24-May-2018 14:21:06,-70.7,-0.0315,-0.2829,0.989366666666667,1.2045,-1.28875,0.327875,886.566333333333,0,0,0,0,0,0,0,-0.15278,0.81248,-0.4865,-0.69,-0.826,-0.3,0.088,-0.01412,-0.63148,0.78592,0.630333333333333,0.5185,-0.172833333333333,749.694,0,1,1,0
24-May-2018 14:21:06,-70.7,-0.0315,-0.2829,0.989366666666667,1.2045,-1.28875,0.327875,886.566333333333,0,0,0,0,0,0,0,-0.15278,0.81248,-0.4865,-0.69,-0.826,-0.3,0.088,-0.01412,-0.63148,0.78592,0.630333333333333,0.5185,-0.172833333333333,749.694,0,1,1,0
24-May-2018 14:21:06,-70.7,-0.0315,-0.2829,0.989366666666667,1.2045,-1.28875,0.327875,886.566333333333,0,0,0,0,0,0,0,-0.15278,0.81248,-0.4865,-0.69,-0.826,-0.3,0.088,-0.01412,-0.63148,0.78592,0.630333333333333,0.5185,-0.172833333333333,749.694,0,1,1,0
24-May-2018 14:21:06,-70.7,-0.0315,-0.2829,0.989366666666667,1.2045,-1.28875,0.327875,886.566333333333,0,0,0,0,0,0,0,-0.15278,0.81248,-0.4865,-0.69,-0.826,-0.3,0.088,-0.01412,-0.63148,0.78592,0.630333333333333,0.5185,-0.172833333333333,749.694,0,1,1,0
24-May-2018 14:21:07,-68.4444444444444,-0.0192375,-0.2769625,0.99035,0.671,0.198111111111111,0.366,886.566333333333,0,0,0,0,0,0,0,-0.153171428571429,0.812914285714286,-0.485742857142857,-0.575,-0.91,-0.255,0.088,-0.01264,-0.62798,0.78752,0.784142857142857,0.505428571428571,-0.322428571428571,750.0604,0,1,1,0
24-May-2018 14:21:07,-68.4444444444444,-0.0192375,-0.2769625,0.99035,0.671,0.198111111111111,0.366,886.566333333333,0,0,0,0,0,0,0,-0.153171428571429,0.812914285714286,-0.485742857142857,-0.575,-0.91,-0.255,0.088,-0.01264,-0.62798,0.78752,0.784142857142857,0.505428571428571,-0.322428571428571,750.0604,0,1,1,0
24-May-2018 14:21:07,-68.4444444444444,-0.0192375,-0.2769625,0.99035,0.671,0.198111111111111,0.366,0,0,0,0,0,0,0,0,-0.153171428571429,0.812914285714286,-0.485742857142857,-0.575,-0.91,-0.255,0.088,-0.01264,-0.62798,0.78752,0.784142857142857,0.505428571428571,-0.322428571428571,750.0604,0,1,1,0
24-May-2018 14:21:07,-68.4444444444444,-0.0192375,-0.2769625,0.99035,0.671,0.198111111111111,0.366,0,0,0,0,0,0,0,0,-0.153171428571429,0.812914285714286,-0.485742857142857,-0.575,-0.91,-0.255,0.088,-0.01264,-0.62798,0.78752,0.784142857142857,0.505428571428571,-0.322428571428571,750.0604,0,1,1,0
24-May-2018 14:21:08,105.1,-0.0342714285714286,-0.281757142857143,0.989185714285714,-0.169666666666667,2.1035,0.437166666666667,887.652333333333,0,0,0,0,0,0,0,-0.15304,0.81256,-0.48556,-0.423333333333333,-0.97,-0.16,0.088,-0.0121285714285714,-0.630928571428571,0.787242857142857,0.488,0.444428571428571,0.0348571428571429,750.529333333333,0,1,1,0
24-May-2018 14:21:08,105.1,-0.0342714285714286,-0.281757142857143,0.989185714285714,-0.169666666666667,2.1035,0.437166666666667,887.652333333333,0,0,0,0,0,0,0,-0.15304,0.81256,-0.48556,-0.423333333333333,-0.97,-0.16,0.088,-0.0121285714285714,-0.630928571428571,0.787242857142857,0.488,0.444428571428571,0.0348571428571429,750.529333333333,0,1,1,0
24-May-2018 14:21:08,105.1,-0.0342714285714286,-0.281757142857143,0.989185714285714,-0.169666666666667,2.1035,0.437166666666667,887.652333333333,0,0,0,0,0,0,0,-0.15304,0.81256,-0.48556,-0.423333333333333,-0.97,-0.16,0.088,-0.0121285714285714,-0.630928571428571,0.787242857142857,0.488,0.444428571428571,0.0348571428571429,750.529333333333,0,1,1,0
24-May-2018 14:21:08,105.1,-0.0342714285714286,-0.281757142857143,0.989185714285714,-0.169666666666667,2.1035,0.437166666666667,887.652333333333,0,0,0,0,0,0,0,-0.15304,0.81256,-0.48556,-0.423333333333333,-0.97,-0.16,0.088,-0.0121285714285714,-0.630928571428571,0.787242857142857,0.488,0.444428571428571,0.0348571428571429,750.529333333333,0,1,1,0
24-May-2018 14:21:09,138.888888888889,-0.0393,-0.28504,0.98764,1.21933333333333,-1.03233333333333,0.3965,884.912,0,0,0,0,0,0,0,-0.153457142857143,0.811242857142857,-0.486714285714286,-0.7,-0.93,-0.28,0.088,-0.01216,-0.63232,0.78536,0.383428571428571,0.453142857142857,-0.0697142857142857,748.7594,0,1,1,0
24-May-2018 14:21:09,138.888888888889,-0.0393,-0.28504,0.98764,1.21933333333333,-1.03233333333333,0.3965,884.912,0,0,0,0,0,0,0,-0.153457142857143,0.811242857142857,-0.486714285714286,-0.7,-0.93,-0.28,0.088,-0.01216,-0.63232,0.78536,0.383428571428571,0.453142857142857,-0.0697142857142857,748.7594,0,1,1,0
24-May-2018 14:21:09,138.888888888889,-0.0393,-0.28504,0.98764,1.21933333333333,-1.03233333333333,0.3965,884.912,0,0,0,0,0,0,0,-0.153457142857143,0.811242857142857,-0.486714285714286,-0.7,-0.93,-0.28,0.088,-0.01216,-0.63232,0.78536,0.383428571428571,0.453142857142857,-0.0697142857142857,748.7594,0,1,1,0
24-May-2018 14:21:09,138.888888888889,-0.0393,-0.28504,0.98764,1.21933333333333,-1.03233333333333,0.3965,884.912,0,0,0,0,0,0,0,-0.153457142857143,0.811242857142857,-0.486714285714286,-0.7,-0.93,-0.28,0.088,-0.01216,-0.63232,0.78536,0.383428571428571,0.453142857142857,-0.0697142857142857,748.7594,0,1,1,0
24-May-2018 14:21:10,135.5,-0.01806,-0.27742,0.99218,0.9028,-0.544,0.3172,890.667857142857,0,0,0,0,0,0,0,-0.1539,0.813,-0.4858,-0.638333333333333,-0.94,-0.26,0.088,-0.0127571428571429,-0.629757142857143,0.787557142857143,0.5976,0.5124,-0.5612,748.265333333333,0,1,1,0
24-May-2018 14:21:10,135.5,-0.01806,-0.27742,0.99218,0.9028,-0.544,0.3172,890.667857142857,0,0,0,0,0,0,0,-0.1539,0.813,-0.4858,-0.638333333333333,-0.94,-0.26,0.088,-0.0127571428571429,-0.629757142857143,0.787557142857143,0.5976,0.5124,-0.5612,748.265333333333,0,1,1,0
24-May-2018 14:21:10,135.5,-0.01806,-0.27742,0.99218,0.9028,-0.544,0.3172,890.667857142857,0,0,0,0,0,0,0,-0.1539,0.813,-0.4858,-0.638333333333333,-0.94,-0.26,0.088,-0.0127571428571429,-0.629757142857143,0.787557142857143,0.5976,0.5124,-0.5612,748.265333333333,0,1,1,0
24-May-2018 14:21:10,135.5,-0.01806,-0.27742,0.99218,0.9028,-0.544,0.3172,890.667857142857,0,0,0,0,0,0,0,-0.1539,0.813,-0.4858,-0.638333333333333,-0.94,-0.26,0.088,-0.0127571428571429,-0.629757142857143,0.787557142857143,0.5976,0.5124,-0.5612,748.265333333333,0,1,1,0
24-May-2018 14:21:11,85,-0.0208,-0.2777,0.99132,0.2345,1.28033333333333,0.376166666666667,892.384,0,0,0,0,0,0,0,-0.153166666666667,0.811566666666667,-0.4863,-0.4525,-0.865,-0.18,0.088,-0.0117833333333333,-0.630766666666667,0.787783333333333,0.366,0.427,-0.148142857142857,752.1875,0,1,1,0
24-May-2018 14:21:11,85,-0.0208,-0.2777,0.99132,0.2345,1.28033333333333,0.376166666666667,892.384,0,0,0,0,0,0,0,-0.153166666666667,0.811566666666667,-0.4863,-0.4525,-0.865,-0.18,0.088,-0.0117833333333333,-0.630766666666667,0.787783333333333,0.366,0.427,-0.148142857142857,752.1875,0,1,1,0
24-May-2018 14:21:11,85,-0.0208,-0.2777,0.99132,0.2345,1.28033333333333,0.376166666666667,892.384,0,0,0,0,0,0,0,-0.153166666666667,0.811566666666667,-0.4863,-0.4525,-0.865,-0.18,0.088,-0.0117833333333333,-0.630766666666667,0.787783333333333,0.366,0.427,-0.148142857142857,752.1875,0,1,1,0
24-May-2018 14:21:11,85,-0.0208,-0.2777,0.99132,0.2345,1.28033333333333,0.376166666666667,892.384,0,0,0,0,0,0,0,-0.153166666666667,0.811566666666667,-0.4863,-0.4525,-0.865,-0.18,0.088,-0.0117833333333333,-0.630766666666667,0.787783333333333,0.366,0.427,-0.148142857142857,752.1875,0,1,1,0
24-May-2018 14:21:12,84.6,-0.0411571428571429,-0.286142857142857,0.988585714285714,0.577571428571429,0.177142857142857,0.427,888.073333333333,0,0,0,0,0,0,0,-0.152616666666667,0.811866666666667,-0.487283333333333,-0.404285714285714,-0.952857142857143,-0.145428571428571,0.088,-0.0132166666666667,-0.632916666666667,0.78565,0.427,0.4514,0.0122,751.193,0,1,1,0
24-May-2018 14:21:12,84.6,-0.0411571428571429,-0.286142857142857,0.988585714285714,0.577571428571429,0.177142857142857,0.427,888.073333333333,0,0,0,0,0,0,0,-0.152616666666667,0.811866666666667,-0.487283333333333,-0.404285714285714,-0.952857142857143,-0.145428571428571,0.088,-0.0132166666666667,-0.632916666666667,0.78565,0.427,0.4514,0.0122,751.193,0,1,1,0
24-May-2018 14:21:12,84.6,-0.0411571428571429,-0.286142857142857,0.988585714285714,0.577571428571429,0.177142857142857,0.427,888.073333333333,0,0,0,0,0,0,0,-0.152616666666667,0.811866666666667,-0.487283333333333,-0.404285714285714,-0.952857142857143,-0.145428571428571,0.088,-0.0132166666666667,-0.632916666666667,0.78565,0.427,0.4514,0.0122,751.193,0,1,1,0
24-May-2018 14:21:12,84.6,-0.0411571428571429,-0.286142857142857,0.988585714285714,0.577571428571429,0.177142857142857,0.427,888.073333333333,0,0,0,0,0,0,0,-0.152616666666667,0.811866666666667,-0.487283333333333,-0.404285714285714,-0.952857142857143,-0.145428571428571,0.088,-0.0132166666666667,-0.632916666666667,0.78565,0.427,0.4514,0.0122,751.193,0,1,1,0
24-May-2018 14:21:13,-20.5555555555556,-0.0232833333333333,-0.279066666666667,0.990416666666667,1.12371428571429,-1.02285714285714,0.322428571428571,889.676,0,0,0,0,0,0,0,-0.153357142857143,0.813,-0.486,-0.57,-0.91,-0.248571428571429,0.088,-0.01204,-0.6341,0.78376,0.762375,0.53375,-0.373625,749.32275,0,1,1,0
24-May-2018 14:21:13,-20.5555555555556,-0.0232833333333333,-0.279066666666667,0.990416666666667,1.12371428571429,-1.02285714285714,0.322428571428571,889.676,0,0,0,0,0,0,0,-0.153357142857143,0.813,-0.486,-0.57,-0.91,-0.248571428571429,0.088,-0.01204,-0.6341,0.78376,0.762375,0.53375,-0.373625,749.32275,0,1,1,0
24-May-2018 14:21:13,-20.5555555555556,-0.0232833333333333,-0.279066666666667,0.990416666666667,1.12371428571429,-1.02285714285714,0.322428571428571,889.676,0,0,0,0,0,0,0,-0.153357142857143,0.813,-0.486,-0.57,-0.91,-0.248571428571429,0.088,-0.01204,-0.6341,0.78376,0.762375,0.53375,-0.373625,749.32275,0,1,1,0
24-May-2018 14:21:13,-20.5555555555556,-0.0232833333333333,-0.279066666666667,0.990416666666667,1.12371428571429,-1.02285714285714,0.322428571428571,889.676,0,0,0,0,0,0,0,-0.153357142857143,0.813,-0.486,-0.57,-0.91,-0.248571428571429,0.088,-0.01204,-0.6341,0.78376,0.762375,0.53375,-0.373625,749.32275,0,1,1,0
24-May-2018 14:21:14,-93.6666666666667,-0.0154285714285714,-0.276071428571429,0.991214285714286,0.477833333333333,0.326166666666667,0.2745,896.37125,0,0,0,0,0,0,0,-0.153533333333333,0.81375,-0.485866666666667,-0.457142857142857,-0.91,-0.231428571428571,0.088,-0.0131833333333333,-0.628883333333333,0.78835,0.366,0.4636,-0.1586,750.6085,0,1,1,0
24-May-2018 14:21:14,-93.6666666666667,-0.0154285714285714,-0.276071428571429,0.991214285714286,0.477833333333333,0.326166666666667,0.2745,896.37125,0,0,0,0,0,0,0,-0.153533333333333,0.81375,-0.485866666666667,-0.457142857142857,-0.91,-0.231428571428571,0.088,-0.0131833333333333,-0.628883333333333,0.78835,0.366,0.4636,-0.1586,750.6085,0,1,1,0
24-May-2018 14:21:14,-93.6666666666667,-0.0154285714285714,-0.276071428571429,0.991214285714286,0.477833333333333,0.326166666666667,0.2745,896.37125,0,0,0,0,0,0,0,-0.153533333333333,0.81375,-0.485866666666667,-0.457142857142857,-0.91,-0.231428571428571,0.088,-0.0131833333333333,-0.628883333333333,0.78835,0.366,0.4636,-0.1586,750.6085,0,1,1,0
24-May-2018 14:21:14,-93.6666666666667,-0.0154285714285714,-0.276071428571429,0.991214285714286,0.477833333333333,0.326166666666667,0.2745,896.37125,0,0,0,0,0,0,0,-0.153533333333333,0.81375,-0.485866666666667,-0.457142857142857,-0.91,-0.231428571428571,0.088,-0.0131833333333333,-0.628883333333333,0.78835,0.366,0.4636,-0.1586,750.6085,0,1,1,0
24-May-2018 14:21:15,-122.333333333333,-0.0388875,-0.283325,0.988725,-0.0411428571428571,1.67242857142857,0.383428571428571,892.504666666667,0,0,0,0,0,0,0,-0.152616666666667,0.811266666666667,-0.48705,-0.414,-0.927142857142857,-0.102571428571429,0.088,-0.0126142857142857,-0.630514285714286,0.7867,0.57175,0.449875,-0.061,751.367666666667,0,1,1,0
24-May-2018 14:21:15,-122.333333333333,-0.0388875,-0.283325,0.988725,-0.0411428571428571,1.67242857142857,0.383428571428571,892.504666666667,0,0,0,0,0,0,0,-0.152616666666667,0.811266666666667,-0.48705,-0.414,-0.927142857142857,-0.102571428571429,0.088,-0.0126142857142857,-0.630514285714286,0.7867,0.57175,0.449875,-0.061,751.367666666667,0,1,1,0
24-May-2018 14:21:15,-122.333333333333,-0.0388875,-0.283325,0.988725,-0.0411428571428571,1.67242857142857,0.383428571428571,892.504666666667,0,0,0,0,0,0,0,-0.152616666666667,0.811266666666667,-0.48705,-0.414,-0.927142857142857,-0.102571428571429,0.088,-0.0126142857142857,-0.630514285714286,0.7867,0.57175,0.449875,-0.061,751.367666666667,0,1,1,0
24-May-2018 14:21:15,-122.333333333333,-0.0388875,-0.283325,0.988725,-0.0411428571428571,1.67242857142857,0.383428571428571,892.504666666667,0,0,0,0,0,0,0,-0.152616666666667,0.811266666666667,-0.48705,-0.414,-0.927142857142857,-0.102571428571429,0.088,-0.0126142857142857,-0.630514285714286,0.7867,0.57175,0.449875,-0.061,751.367666666667,0,1,1,0
24-May-2018 14:21:16,-50.2,-0.0329375,-0.2821625,0.98865,1.22633333333333,-1.43222222222222,0.332111111111111,888.328,0,0,0,0,0,0,0,-0.152316666666667,0.812433333333333,-0.48665,-0.57,-0.807142857142857,-0.3,0.088,-0.01415,-0.631316666666667,0.785883333333333,0.569333333333333,0.498166666666667,-0.172833333333333,750.428,0,1,1,0
24-May-2018 14:21:16,-50.2,-0.0329375,-0.2821625,0.98865,1.22633333333333,-1.43222222222222,0.332111111111111,888.328,0,0,0,0,0,0,0,-0.152316666666667,0.812433333333333,-0.48665,-0.57,-0.807142857142857,-0.3,0.088,-0.01415,-0.631316666666667,0.785883333333333,0.569333333333333,0.498166666666667,-0.172833333333333,750.428,0,1,1,0
24-May-2018 14:21:16,-50.2,-0.0329375,-0.2821625,0.98865,1.22633333333333,-1.43222222222222,0.332111111111111,888.328,0,0,0,0,0,0,0,-0.152316666666667,0.812433333333333,-0.48665,-0.57,-0.807142857142857,-0.3,0.088,-0.01415,-0.631316666666667,0.785883333333333,0.569333333333333,0.498166666666667,-0.172833333333333,750.428,0,1,1,0
24-May-2018 14:21:16,-50.2,-0.0329375,-0.2821625,0.98865,1.22633333333333,-1.43222222222222,0.332111111111111,888.328,0,0,0,0,0,0,0,-0.152316666666667,0.812433333333333,-0.48665,-0.57,-0.807142857142857,-0.3,0.088,-0.01415,-0.631316666666667,0.785883333333333,0.569333333333333,0.498166666666667,-0.172833333333333,750.428,0,1,1,0
24-May-2018 14:21:17,-39.4,-0.0176571428571429,-0.275471428571429,0.991642857142857,0.808125,-0.241125,0.38125,888.328,0,0,0,0,0,0,0,-0.152885714285714,0.812485714285714,-0.486514285714286,-0.5525,-0.8575,-0.134875,0.088,-0.0133166666666667,-0.628833333333333,0.78705,1.052,0.56425,-0.16775,750.631666666667,0,1,1,0
24-May-2018 14:21:17,-39.4,-0.0176571428571429,-0.275471428571429,0.991642857142857,0.808125,-0.241125,0.38125,888.328,0,0,0,0,0,0,0,-0.152885714285714,0.812485714285714,-0.486514285714286,-0.5525,-0.8575,-0.134875,0.088,-0.0133166666666667,-0.628833333333333,0.78705,1.052,0.56425,-0.16775,750.631666666667,0,1,1,0
24-May-2018 14:21:17,-39.4,-0.0176571428571429,-0.275471428571429,0.991642857142857,0.808125,-0.241125,0.38125,888.328,0,0,0,0,0,0,0,-0.152885714285714,0.812485714285714,-0.486514285714286,-0.5525,-0.8575,-0.134875,0.088,-0.0133166666666667,-0.628833333333333,0.78705,1.052,0.56425,-0.16775,750.631666666667,0,1,1,0
24-May-2018 14:21:17,-39.4,-0.0176571428571429,-0.275471428571429,0.991642857142857,0.808125,-0.241125,0.38125,0,0,0,0,0,0,0,0,-0.152885714285714,0.812485714285714,-0.486514285714286,-0.5525,-0.8575,-0.134875,0.088,-0.0133166666666667,-0.628833333333333,0.78705,1.052,0.56425,-0.16775,750.631666666667,0,1,1,0
24-May-2018 14:21:18,-73.1111111111111,-0.0204,-0.277175,0.991775,0.260125,1.280375,0.3965,895.141,0,0,0,0,0,0,0,-0.1522,0.812833333333333,-0.4873,-0.503333333333333,-0.99,-0.14,0.088,-0.0133,-0.6295,0.78685,0.566285714285714,0.461857142857143,0.061,752.3024,0,1,1,0
24-May-2018 14:21:18,-73.1111111111111,-0.0204,-0.277175,0.991775,0.260125,1.280375,0.3965,895.141,0,0,0,0,0,0,0,-0.1522,0.812833333333333,-0.4873,-0.503333333333333,-0.99,-0.14,0.088,-0.0133,-0.6295,0.78685,0.566285714285714,0.461857142857143,0.061,752.3024,0,1,1,0
24-May-2018 14:21:18,-73.1111111111111,-0.0204,-0.277175,0.991775,0.260125,1.280375,0.3965,895.141,0,0,0,0,0,0,0,-0.1522,0.812833333333333,-0.4873,-0.503333333333333,-0.99,-0.14,0.088,-0.0133,-0.6295,0.78685,0.566285714285714,0.461857142857143,0.061,752.3024,0,1,1,0
24-May-2018 14:21:18,-73.1111111111111,-0.0204,-0.277175,0.991775,0.260125,1.280375,0.3965,895.141,0,0,0,0,0,0,0,-0.1522,0.812833333333333,-0.4873,-0.503333333333333,-0.99,-0.14,0.088,-0.0133,-0.6295,0.78685,0.566285714285714,0.461857142857143,0.061,752.3024,0,1,1,0
24-May-2018 14:21:19,-62.4444444444444,-0.04182,-0.28564,0.98828,0.5795,0.00425000000000003,0.41175,890.805833333333,0,0,0,0,0,0,0,-0.15348,0.8137,-0.48692,-0.641428571428571,-0.901428571428571,-0.257142857142857,0.088,-0.01345,-0.632283333333333,0.78625,0.589666666666667,0.488,-0.122,750.628666666667,0,1,1,0
24-May-2018 14:21:19,-62.4444444444444,-0.04182,-0.28564,0.98828,0.5795,0.00425000000000003,0.41175,890.805833333333,0,0,0,0,0,0,0,-0.15348,0.8137,-0.48692,-0.641428571428571,-0.901428571428571,-0.257142857142857,0.088,-0.01345,-0.632283333333333,0.78625,0.589666666666667,0.488,-0.122,750.628666666667,0,1,1,0
24-May-2018 14:21:19,-62.4444444444444,-0.04182,-0.28564,0.98828,0.5795,0.00425000000000003,0.41175,890.805833333333,0,0,0,0,0,0,0,-0.15348,0.8137,-0.48692,-0.641428571428571,-0.901428571428571,-0.257142857142857,0.088,-0.01345,-0.632283333333333,0.78625,0.589666666666667,0.488,-0.122,750.628666666667,0,1,1,0
24-May-2018 14:21:19,-62.4444444444444,-0.04182,-0.28564,0.98828,0.5795,0.00425000000000003,0.41175,890.805833333333,0,0,0,0,0,0,0,-0.15348,0.8137,-0.48692,-0.641428571428571,-0.901428571428571,-0.257142857142857,0.088,-0.01345,-0.632283333333333,0.78625,0.589666666666667,0.488,-0.122,750.628666666667,0,1,1,0
24-May-2018 14:21:20,-92.8,-0.0224,-0.27774,0.99178,1.1584,-0.9374,0.4148,891.42025,0,0,0,0,0,0,0,-0.1524,0.812814285714286,-0.486942857142857,-0.471666666666667,-0.86,-0.2,0.088,-0.0117333333333333,-0.630383333333333,0.787716666666667,0.803,0.467666666666667,-0.132166666666667,751.06,0,1,1,0
24-May-2018 14:21:20,-92.8,-0.0224,-0.27774,0.99178,1.1584,-0.9374,0.4148,891.42025,0,0,0,0,0,0,0,-0.1524,0.812814285714286,-0.486942857142857,-0.471666666666667,-0.86,-0.2,0.088,-0.0117333333333333,-0.630383333333333,0.787716666666667,0.803,0.467666666666667,-0.132166666666667,751.06,0,1,1,0
24-May-2018 14:21:20,-92.8,-0.0224,-0.27774,0.99178,1.1584,-0.9374,0.4148,891.42025,0,0,0,0,0,0,0,-0.1524,0.812814285714286,-0.486942857142857,-0.471666666666667,-0.86,-0.2,0.088,-0.0117333333333333,-0.630383333333333,0.787716666666667,0.803,0.467666666666667,-0.132166666666667,751.06,0,1,1,0
24-May-2018 14:21:20,-92.8,-0.0224,-0.27774,0.99178,1.1584,-0.9374,0.4148,891.42025,0,0,0,0,0,0,0,-0.1524,0.812814285714286,-0.486942857142857,-0.471666666666667,-0.86,-0.2,0.088,-0.0117333333333333,-0.630383333333333,0.787716666666667,0.803,0.467666666666667,-0.132166666666667,751.06,0,1,1,0
24-May-2018 14:21:21,-27.5,-0.01964,-0.27578,0.9922,0.279571428571429,1.34171428571429,0.418285714285714,896.4772,0,0,0,0,0,0,0,-0.152266666666667,0.8132,-0.48785,-0.433333333333333,-0.981666666666667,-0.12,0.088,-0.01388,-0.62936,0.78666,0.3538,0.4148,-0.0976,752.82425,0,1,1,0
24-May-2018 14:21:21,-27.5,-0.01964,-0.27578,0.9922,0.279571428571429,1.34171428571429,0.418285714285714,896.4772,0,0,0,0,0,0,0,-0.152266666666667,0.8132,-0.48785,-0.433333333333333,-0.981666666666667,-0.12,0.088,-0.01388,-0.62936,0.78666,0.3538,0.4148,-0.0976,752.82425,0,1,1,0
24-May-2018 14:21:21,-27.5,-0.01964,-0.27578,0.9922,0.279571428571429,1.34171428571429,0.418285714285714,896.4772,0,0,0,0,0,0,0,-0.152266666666667,0.8132,-0.48785,-0.433333333333333,-0.981666666666667,-0.12,0.088,-0.01388,-0.62936,0.78666,0.3538,0.4148,-0.0976,752.82425,0,1,1,0
24-May-2018 14:21:21,-27.5,-0.01964,-0.27578,0.9922,0.279571428571429,1.34171428571429,0.418285714285714,896.4772,0,0,0,0,0,0,0,-0.152266666666667,0.8132,-0.48785,-0.433333333333333,-0.981666666666667,-0.12,0.088,-0.01388,-0.62936,0.78666,0.3538,0.4148,-0.0976,752.82425,0,1,1,0
24-May-2018 14:21:22,34.2,-0.0406857142857143,-0.2855,0.987714285714286,0.5376,0.2952,0.366,892.164666666667,0,0,0,0,0,0,0,-0.152333333333333,0.8132,-0.487133333333333,-0.685,-0.88,-0.36,0.088,-0.0136166666666667,-0.63055,0.78725,0.477833333333333,0.498166666666667,-0.0406666666666667,752.7355,0,1,1,0
24-May-2018 14:21:22,34.2,-0.0406857142857143,-0.2855,0.987714285714286,0.5376,0.2952,0.366,892.164666666667,0,0,0,0,0,0,0,-0.152333333333333,0.8132,-0.487133333333333,-0.685,-0.88,-0.36,0.088,-0.0136166666666667,-0.63055,0.78725,0.477833333333333,0.498166666666667,-0.0406666666666667,752.7355,0,1,1,0
24-May-2018 14:21:22,34.2,-0.0406857142857143,-0.2855,0.987714285714286,0.5376,0.2952,0.366,892.164666666667,0,0,0,0,0,0,0,-0.152333333333333,0.8132,-0.487133333333333,-0.685,-0.88,-0.36,0.088,-0.0136166666666667,-0.63055,0.78725,0.477833333333333,0.498166666666667,-0.0406666666666667,752.7355,0,1,1,0
24-May-2018 14:21:22,34.2,-0.0406857142857143,-0.2855,0.987714285714286,0.5376,0.2952,0.366,892.164666666667,0,0,0,0,0,0,0,-0.152333333333333,0.8132,-0.487133333333333,-0.685,-0.88,-0.36,0.088,-0.0136166666666667,-0.63055,0.78725,0.477833333333333,0.498166666666667,-0.0406666666666667,752.7355,0,1,1,0
24-May-2018 14:21:23,138.142857142857,-0.0287,-0.281666666666667,0.9911,1.54466666666667,-1.76333333333333,0.345666666666667,888.8765,0,0,0,0,0,0,0,-0.1524,0.809733333333333,-0.484666666666667,-0.485,-0.85,-0.15,0.088,-0.01365,-0.633175,0.783975,0.772333333333333,0.528666666666667,-0.284666666666667,751.057,0,1,1,0
24-May-2018 14:21:23,138.142857142857,-0.0287,-0.281666666666667,0.9911,1.54466666666667,-1.76333333333333,0.345666666666667,888.8765,0,0,0,0,0,0,0,-0.1524,0.809733333333333,-0.484666666666667,-0.485,-0.85,-0.15,0.088,-0.01365,-0.633175,0.783975,0.772333333333333,0.528666666666667,-0.284666666666667,751.057,0,1,1,0
24-May-2018 14:21:23,138.142857142857,-0.0287,-0.281666666666667,0.9911,1.54466666666667,-1.76333333333333,0.345666666666667,888.8765,0,0,0,0,0,0,0,-0.1524,0.809733333333333,-0.484666666666667,-0.485,-0.85,-0.15,0.088,-0.01365,-0.633175,0.783975,0.772333333333333,0.528666666666667,-0.284666666666667,751.057,0,1,1,0
24-May-2018 14:21:23,138.142857142857,-0.0287,-0.281666666666667,0.9911,1.54466666666667,-1.76333333333333,0.345666666666667,888.8765,0,0,0,0,0,0,0,-0.1524,0.809733333333333,-0.484666666666667,-0.485,-0.85,-0.15,0.088,-0.01365,-0.633175,0.783975,0.772333333333333,0.528666666666667,-0.284666666666667,751.057,0,1,1,0
24-May-2018 14:21:24,187.714285714286,-0.018975,-0.27655,0.99175,0.9455,-0.76,0.28975,892.8925,0,0,0,0,0,0,0,-0.153975,0.812925,-0.486475,-0.544,-0.91,-0.192,0.088,-0.0118666666666667,-0.628333333333333,0.7854,0.8995,0.549,-0.51825,751.437666666667,0,1,1,0
24-May-2018 14:21:24,187.714285714286,-0.018975,-0.27655,0.99175,0.9455,-0.76,0.28975,892.8925,0,0,0,0,0,0,0,-0.153975,0.812925,-0.486475,-0.544,-0.91,-0.192,0.088,-0.0118666666666667,-0.628333333333333,0.7854,0.8995,0.549,-0.51825,751.437666666667,0,1,1,0
24-May-2018 14:21:24,187.714285714286,-0.018975,-0.27655,0.99175,0.9455,-0.76,0.28975,892.8925,0,0,0,0,0,0,0,-0.153975,0.812925,-0.486475,-0.544,-0.91,-0.192,0.088,-0.0118666666666667,-0.628333333333333,0.7854,0.8995,0.549,-0.51825,751.437666666667,0,1,1,0
24-May-2018 14:21:24,187.714285714286,-0.018975,-0.27655,0.99175,0.9455,-0.76,0.28975,892.8925,0,0,0,0,0,0,0,-0.153975,0.812925,-0.486475,-0.544,-0.91,-0.192,0.088,-0.0118666666666667,-0.628333333333333,0.7854,0.8995,0.549,-0.51825,751.437666666667,0,1,1,0
24-May-2018 14:21:25,226.4,-0.0148142857142857,-0.275214285714286,0.992585714285714,0.662285714285714,0.201714285714286,0.348571428571429,897.623,0,0,0,0,0,0,0,-0.15305,0.812616666666667,-0.487116666666667,-0.39875,-0.9175,-0.097375,0.088,-0.0119571428571429,-0.630642857142857,0.787614285714286,0.348571428571429,0.427,-0.305,752.5305,0,1,1,0
24-May-2018 14:21:25,226.4,-0.0148142857142857,-0.275214285714286,0.992585714285714,0.662285714285714,0.201714285714286,0.348571428571429,897.623,0,0,0,0,0,0,0,-0.15305,0.812616666666667,-0.487116666666667,-0.39875,-0.9175,-0.097375,0.088,-0.0119571428571429,-0.630642857142857,0.787614285714286,0.348571428571429,0.427,-0.305,752.5305,0,1,1,0
24-May-2018 14:21:25,226.4,-0.0148142857142857,-0.275214285714286,0.992585714285714,0.662285714285714,0.201714285714286,0.348571428571429,897.623,0,0,0,0,0,0,0,-0.15305,0.812616666666667,-0.487116666666667,-0.39875,-0.9175,-0.097375,0.088,-0.0119571428571429,-0.630642857142857,0.787614285714286,0.348571428571429,0.427,-0.305,752.5305,0,1,1,0
24-May-2018 14:21:25,226.4,-0.0148142857142857,-0.275214285714286,0.992585714285714,0.662285714285714,0.201714285714286,0.348571428571429,897.623,0,0,0,0,0,0,0,-0.15305,0.812616666666667,-0.487116666666667,-0.39875,-0.9175,-0.097375,0.088,-0.0119571428571429,-0.630642857142857,0.787614285714286,0.348571428571429,0.427,-0.305,752.5305,0,1,1,0
24-May-2018 14:21:26,193.222222222222,-0.0333428571428571,-0.281042857142857,0.990114285714286,-0.12775,1.4485,0.3355,895.001333333333,0,0,0,0,0,0,0,-0.152033333333333,0.811683333333333,-0.487,-0.558,-0.838,-0.24,0.088,-0.012,-0.632385714285714,0.785585714285714,0.61,0.427,0.0854,752.106,0,1,1,0
24-May-2018 14:21:26,193.222222222222,-0.0333428571428571,-0.281042857142857,0.990114285714286,-0.12775,1.4485,0.3355,895.001333333333,0,0,0,0,0,0,0,-0.152033333333333,0.811683333333333,-0.487,-0.558,-0.838,-0.24,0.088,-0.012,-0.632385714285714,0.785585714285714,0.61,0.427,0.0854,752.106,0,1,1,0
24-May-2018 14:21:26,193.222222222222,-0.0333428571428571,-0.281042857142857,0.990114285714286,-0.12775,1.4485,0.3355,895.001333333333,0,0,0,0,0,0,0,-0.152033333333333,0.811683333333333,-0.487,-0.558,-0.838,-0.24,0.088,-0.012,-0.632385714285714,0.785585714285714,0.61,0.427,0.0854,752.106,0,1,1,0
24-May-2018 14:21:26,193.222222222222,-0.0333428571428571,-0.281042857142857,0.990114285714286,-0.12775,1.4485,0.3355,895.001333333333,0,0,0,0,0,0,0,-0.152033333333333,0.811683333333333,-0.487,-0.558,-0.838,-0.24,0.088,-0.012,-0.632385714285714,0.785585714285714,0.61,0.427,0.0854,752.106,0,1,1,0
24-May-2018 14:21:27,194.7,-0.0360142857142857,-0.282185714285714,0.988214285714286,1.31542857142857,-1.45,0.392142857142857,888.15,0,0,0,0,0,0,0,-0.153166666666667,0.811933333333333,-0.48565,-0.575,-0.82,-0.225,0.088,-0.01302,-0.63146,0.78488,0.711666666666667,0.498166666666667,-0.172833333333333,751.0106,0,1,1,0
24-May-2018 14:21:27,194.7,-0.0360142857142857,-0.282185714285714,0.988214285714286,1.31542857142857,-1.45,0.392142857142857,888.15,0,0,0,0,0,0,0,-0.153166666666667,0.811933333333333,-0.48565,-0.575,-0.82,-0.225,0.088,-0.01302,-0.63146,0.78488,0.711666666666667,0.498166666666667,-0.172833333333333,751.0106,0,1,1,0
24-May-2018 14:21:27,194.7,-0.0360142857142857,-0.282185714285714,0.988214285714286,1.31542857142857,-1.45,0.392142857142857,888.15,0,0,0,0,0,0,0,-0.153166666666667,0.811933333333333,-0.48565,-0.575,-0.82,-0.225,0.088,-0.01302,-0.63146,0.78488,0.711666666666667,0.498166666666667,-0.172833333333333,751.0106,0,1,1,0
24-May-2018 14:21:27,194.7,-0.0360142857142857,-0.282185714285714,0.988214285714286,1.31542857142857,-1.45,0.392142857142857,888.15,0,0,0,0,0,0,0,-0.153166666666667,0.811933333333333,-0.48565,-0.575,-0.82,-0.225,0.088,-0.01302,-0.63146,0.78488,0.711666666666667,0.498166666666667,-0.172833333333333,751.0106,0,1,1,0
24-May-2018 14:21:28,171.2,-0.0162555555555556,-0.275777777777778,0.991955555555556,0.83875,-0.40125,0.305,888.15,0,0,0,0,0,0,0,-0.153442857142857,0.813457142857143,-0.487057142857143,-0.383333333333333,-0.94,-0.18,0.088,-0.0122285714285714,-0.629371428571429,0.787628571428572,0.792833333333333,0.4575,-0.101666666666667,752.959,0,1,1,0
24-May-2018 14:21:28,171.2,-0.0162555555555556,-0.275777777777778,0.991955555555556,0.83875,-0.40125,0.305,888.15,0,0,0,0,0,0,0,-0.153442857142857,0.813457142857143,-0.487057142857143,-0.383333333333333,-0.94,-0.18,0.088,-0.0122285714285714,-0.629371428571429,0.787628571428572,0.792833333333333,0.4575,-0.101666666666667,752.959,0,1,1,0
24-May-2018 14:21:28,171.2,-0.0162555555555556,-0.275777777777778,0.991955555555556,0.83875,-0.40125,0.305,888.15,0,0,0,0,0,0,0,-0.153442857142857,0.813457142857143,-0.487057142857143,-0.383333333333333,-0.94,-0.18,0.088,-0.0122285714285714,-0.629371428571429,0.787628571428572,0.792833333333333,0.4575,-0.101666666666667,752.959,0,1,1,0
24-May-2018 14:21:28,171.2,-0.0162555555555556,-0.275777777777778,0.991955555555556,0.83875,-0.40125,0.305,0,0,0,0,0,0,0,0,-0.153442857142857,0.813457142857143,-0.487057142857143,-0.383333333333333,-0.94,-0.18,0.088,-0.0122285714285714,-0.629371428571429,0.787628571428572,0.792833333333333,0.4575,-0.101666666666667,752.959,0,1,1,0
24-May-2018 14:21:29,211.4,-0.0281222222222222,-0.279377777777778,0.9902,-0.013875,1.70725,0.343125,891.253,0,0,0,0,0,0,0,-0.151971428571429,0.812685714285714,-0.487742857142857,-0.595,-0.96,-0.17,0.088,-0.01186,-0.63126,0.7847,0.129625,0.388875,-0.114375,752.75225,0,1,1,0
24-May-2018 14:21:29,211.4,-0.0281222222222222,-0.279377777777778,0.9902,-0.013875,1.70725,0.343125,891.253,0,0,0,0,0,0,0,-0.151971428571429,0.812685714285714,-0.487742857142857,-0.595,-0.96,-0.17,0.088,-0.01186,-0.63126,0.7847,0.129625,0.388875,-0.114375,752.75225,0,1,1,0
24-May-2018 14:21:29,211.4,-0.0281222222222222,-0.279377777777778,0.9902,-0.013875,1.70725,0.343125,891.253,0,0,0,0,0,0,0,-0.151971428571429,0.812685714285714,-0.487742857142857,-0.595,-0.96,-0.17,0.088,-0.01186,-0.63126,0.7847,0.129625,0.388875,-0.114375,752.75225,0,1,1,0
24-May-2018 14:21:29,211.4,-0.0281222222222222,-0.279377777777778,0.9902,-0.013875,1.70725,0.343125,891.253,0,0,0,0,0,0,0,-0.151971428571429,0.812685714285714,-0.487742857142857,-0.595,-0.96,-0.17,0.088,-0.01186,-0.63126,0.7847,0.129625,0.388875,-0.114375,752.75225,0,1,1,0
24-May-2018 14:21:30,307.5,-0.03302,-0.28184,0.9896,1.378,-1.216,0.4392,891.531571428572,0,0,0,0,0,0,0,-0.152216666666667,0.812966666666667,-0.4877,-0.544,-0.958,-0.24,0.088,-0.0144166666666667,-0.632916666666667,0.7843,0.538666666666667,0.447333333333333,-0.325333333333333,749.804666666667,0,1,1,0
24-May-2018 14:21:30,307.5,-0.03302,-0.28184,0.9896,1.378,-1.216,0.4392,891.531571428572,0,0,0,0,0,0,0,-0.152216666666667,0.812966666666667,-0.4877,-0.544,-0.958,-0.24,0.088,-0.0144166666666667,-0.632916666666667,0.7843,0.538666666666667,0.447333333333333,-0.325333333333333,749.804666666667,0,1,1,0
24-May-2018 14:21:30,307.5,-0.03302,-0.28184,0.9896,1.378,-1.216,0.4392,891.531571428572,0,0,0,0,0,0,0,-0.152216666666667,0.812966666666667,-0.4877,-0.544,-0.958,-0.24,0.088,-0.0144166666666667,-0.632916666666667,0.7843,0.538666666666667,0.447333333333333,-0.325333333333333,749.804666666667,0,1,1,0
24-May-2018 14:21:30,307.5,-0.03302,-0.28184,0.9896,1.378,-1.216,0.4392,891.531571428572,0,0,0,0,0,0,0,-0.152216666666667,0.812966666666667,-0.4877,-0.544,-0.958,-0.24,0.088,-0.0144166666666667,-0.632916666666667,0.7843,0.538666666666667,0.447333333333333,-0.325333333333333,749.804666666667,0,1,1,0
24-May-2018 14:21:31,227.5,-0.01734,-0.27514,0.99156,0.732,-0.160333333333333,0.366,896.622333333333,0,0,0,0,0,0,0,-0.1525,0.8125,-0.48585,-0.492857142857143,-0.875714285714286,-0.137,0.088,-0.0121833333333333,-0.629683333333333,0.787616666666667,0.949571428571429,0.496714285714286,-0.235285714285714,750.87125,0,1,1,0
24-May-2018 14:21:31,227.5,-0.01734,-0.27514,0.99156,0.732,-0.160333333333333,0.366,896.622333333333,0,0,0,0,0,0,0,-0.1525,0.8125,-0.48585,-0.492857142857143,-0.875714285714286,-0.137,0.088,-0.0121833333333333,-0.629683333333333,0.787616666666667,0.949571428571429,0.496714285714286,-0.235285714285714,750.87125,0,1,1,0
24-May-2018 14:21:31,227.5,-0.01734,-0.27514,0.99156,0.732,-0.160333333333333,0.366,896.622333333333,0,0,0,0,0,0,0,-0.1525,0.8125,-0.48585,-0.492857142857143,-0.875714285714286,-0.137,0.088,-0.0121833333333333,-0.629683333333333,0.787616666666667,0.949571428571429,0.496714285714286,-0.235285714285714,750.87125,0,1,1,0
24-May-2018 14:21:31,227.5,-0.01734,-0.27514,0.99156,0.732,-0.160333333333333,0.366,896.622333333333,0,0,0,0,0,0,0,-0.1525,0.8125,-0.48585,-0.492857142857143,-0.875714285714286,-0.137,0.088,-0.0121833333333333,-0.629683333333333,0.787616666666667,0.949571428571429,0.496714285714286,-0.235285714285714,750.87125,0,1,1,0
24-May-2018 14:21:32,178.714285714286,-0.02382,-0.27764,0.98976,0.0731666666666666,1.61583333333333,0.345666666666667,897.330833333333,0,0,0,0,0,0,0,-0.1518,0.812514285714286,-0.487657142857143,-0.597142857142857,-0.884285714285714,-0.24,0.088,-0.0115714285714286,-0.632728571428571,0.785871428571428,0.113285714285714,0.400857142857143,-0.0697142857142857,752.792333333333,0,1,1,0
24-May-2018 14:21:32,178.714285714286,-0.02382,-0.27764,0.98976,0.0731666666666666,1.61583333333333,0.345666666666667,897.330833333333,0,0,0,0,0,0,0,-0.1518,0.812514285714286,-0.487657142857143,-0.597142857142857,-0.884285714285714,-0.24,0.088,-0.0115714285714286,-0.632728571428571,0.785871428571428,0.113285714285714,0.400857142857143,-0.0697142857142857,752.792333333333,0,1,1,0
24-May-2018 14:21:32,178.714285714286,-0.02382,-0.27764,0.98976,0.0731666666666666,1.61583333333333,0.345666666666667,897.330833333333,0,0,0,0,0,0,0,-0.1518,0.812514285714286,-0.487657142857143,-0.597142857142857,-0.884285714285714,-0.24,0.088,-0.0115714285714286,-0.632728571428571,0.785871428571428,0.113285714285714,0.400857142857143,-0.0697142857142857,752.792333333333,0,1,1,0
24-May-2018 14:21:32,178.714285714286,-0.02382,-0.27764,0.98976,0.0731666666666666,1.61583333333333,0.345666666666667,897.330833333333,0,0,0,0,0,0,0,-0.1518,0.812514285714286,-0.487657142857143,-0.597142857142857,-0.884285714285714,-0.24,0.088,-0.0115714285714286,-0.632728571428571,0.785871428571428,0.113285714285714,0.400857142857143,-0.0697142857142857,752.792333333333,0,1,1,0
24-May-2018 14:21:33,147.8,-0.0388714285714286,-0.283542857142857,0.989314285714286,1.01914285714286,-0.920285714285714,0.392142857142857,891.574,0,0,0,0,0,0,0,-0.15222,0.81112,-0.48752,-0.614285714285714,-0.892857142857143,-0.231428571428571,0.088,-0.01295,-0.6347,0.782816666666667,0.418285714285714,0.453142857142857,-0.061,750.43075,0,1,1,0
24-May-2018 14:21:33,147.8,-0.0388714285714286,-0.283542857142857,0.989314285714286,1.01914285714286,-0.920285714285714,0.392142857142857,891.574,0,0,0,0,0,0,0,-0.15222,0.81112,-0.48752,-0.614285714285714,-0.892857142857143,-0.231428571428571,0.088,-0.01295,-0.6347,0.782816666666667,0.418285714285714,0.453142857142857,-0.061,750.43075,0,1,1,0
24-May-2018 14:21:33,147.8,-0.0388714285714286,-0.283542857142857,0.989314285714286,1.01914285714286,-0.920285714285714,0.392142857142857,891.574,0,0,0,0,0,0,0,-0.15222,0.81112,-0.48752,-0.614285714285714,-0.892857142857143,-0.231428571428571,0.088,-0.01295,-0.6347,0.782816666666667,0.418285714285714,0.453142857142857,-0.061,750.43075,0,1,1,0
24-May-2018 14:21:33,147.8,-0.0388714285714286,-0.283542857142857,0.989314285714286,1.01914285714286,-0.920285714285714,0.392142857142857,891.574,0,0,0,0,0,0,0,-0.15222,0.81112,-0.48752,-0.614285714285714,-0.892857142857143,-0.231428571428571,0.088,-0.01295,-0.6347,0.782816666666667,0.418285714285714,0.453142857142857,-0.061,750.43075,0,1,1,0
24-May-2018 14:21:34,73.3,-0.0200571428571429,-0.275885714285714,0.990885714285714,0.897285714285714,-0.407142857142857,0.374714285714286,894.6095,0,0,0,0,0,0,0,-0.152257142857143,0.813028571428571,-0.4874,-0.501666666666667,-0.97,-0.18,0.088,-0.0134875,-0.6311375,0.7852,0.897571428571429,0.531571428571429,-0.427,750.879333333333,0,1,1,0
24-May-2018 14:21:34,73.3,-0.0200571428571429,-0.275885714285714,0.990885714285714,0.897285714285714,-0.407142857142857,0.374714285714286,894.6095,0,0,0,0,0,0,0,-0.152257142857143,0.813028571428571,-0.4874,-0.501666666666667,-0.97,-0.18,0.088,-0.0134875,-0.6311375,0.7852,0.897571428571429,0.531571428571429,-0.427,750.879333333333,0,1,1,0
24-May-2018 14:21:34,73.3,-0.0200571428571429,-0.275885714285714,0.990885714285714,0.897285714285714,-0.407142857142857,0.374714285714286,894.6095,0,0,0,0,0,0,0,-0.152257142857143,0.813028571428571,-0.4874,-0.501666666666667,-0.97,-0.18,0.088,-0.0134875,-0.6311375,0.7852,0.897571428571429,0.531571428571429,-0.427,750.879333333333,0,1,1,0
24-May-2018 14:21:34,73.3,-0.0200571428571429,-0.275885714285714,0.990885714285714,0.897285714285714,-0.407142857142857,0.374714285714286,894.6095,0,0,0,0,0,0,0,-0.152257142857143,0.813028571428571,-0.4874,-0.501666666666667,-0.97,-0.18,0.088,-0.0134875,-0.6311375,0.7852,0.897571428571429,0.531571428571429,-0.427,750.879333333333,0,1,1,0
24-May-2018 14:21:35,59.5454545454545,-0.02025,-0.276483333333333,0.992016666666667,0.26,1.105125,0.3355,898.885666666667,0,0,0,0,0,0,0,-0.152516666666667,0.8108,-0.487883333333333,-0.494285714285714,-0.945714285714286,-0.154142857142857,0.088,-0.0111142857142857,-0.631657142857143,0.785757142857143,0.496714285714286,0.444428571428571,-0.174285714285714,752.781333333333,0,1,1,0
24-May-2018 14:21:35,59.5454545454545,-0.02025,-0.276483333333333,0.992016666666667,0.26,1.105125,0.3355,898.885666666667,0,0,0,0,0,0,0,-0.152516666666667,0.8108,-0.487883333333333,-0.494285714285714,-0.945714285714286,-0.154142857142857,0.088,-0.0111142857142857,-0.631657142857143,0.785757142857143,0.496714285714286,0.444428571428571,-0.174285714285714,752.781333333333,0,1,1,0
24-May-2018 14:21:35,59.5454545454545,-0.02025,-0.276483333333333,0.992016666666667,0.26,1.105125,0.3355,898.885666666667,0,0,0,0,0,0,0,-0.152516666666667,0.8108,-0.487883333333333,-0.494285714285714,-0.945714285714286,-0.154142857142857,0.088,-0.0111142857142857,-0.631657142857143,0.785757142857143,0.496714285714286,0.444428571428571,-0.174285714285714,752.781333333333,0,1,1,0
24-May-2018 14:21:35,59.5454545454545,-0.02025,-0.276483333333333,0.992016666666667,0.26,1.105125,0.3355,898.885666666667,0,0,0,0,0,0,0,-0.152516666666667,0.8108,-0.487883333333333,-0.494285714285714,-0.945714285714286,-0.154142857142857,0.088,-0.0111142857142857,-0.631657142857143,0.785757142857143,0.496714285714286,0.444428571428571,-0.174285714285714,752.781333333333,0,1,1,0
24-May-2018 14:21:36,-33.375,-0.0389166666666667,-0.2847,0.9886,0.06375,0.88425,0.28975,894.233,0,0,0,0,0,0,0,-0.151871428571429,0.813771428571428,-0.487414285714286,-0.62,-0.838,-0.204,0.088,-0.013475,-0.63385,0.7835,0.461857142857143,0.470571428571429,0.0871428571428571,751.422,0,1,1,0
24-May-2018 14:21:36,-33.375,-0.0389166666666667,-0.2847,0.9886,0.06375,0.88425,0.28975,894.233,0,0,0,0,0,0,0,-0.151871428571429,0.813771428571428,-0.487414285714286,-0.62,-0.838,-0.204,0.088,-0.013475,-0.63385,0.7835,0.461857142857143,0.470571428571429,0.0871428571428571,751.422,0,1,1,0
24-May-2018 14:21:36,-33.375,-0.0389166666666667,-0.2847,0.9886,0.06375,0.88425,0.28975,894.233,0,0,0,0,0,0,0,-0.151871428571429,0.813771428571428,-0.487414285714286,-0.62,-0.838,-0.204,0.088,-0.013475,-0.63385,0.7835,0.461857142857143,0.470571428571429,0.0871428571428571,751.422,0,1,1,0
24-May-2018 14:21:36,-33.375,-0.0389166666666667,-0.2847,0.9886,0.06375,0.88425,0.28975,894.233,0,0,0,0,0,0,0,-0.151871428571429,0.813771428571428,-0.487414285714286,-0.62,-0.838,-0.204,0.088,-0.013475,-0.63385,0.7835,0.461857142857143,0.470571428571429,0.0871428571428571,751.422,0,1,1,0
24-May-2018 14:21:37,-41,-0.0257125,-0.2790625,0.99,1.181625,-1.185,0.373625,890.5885,0,0,0,0,0,0,0,-0.151866666666667,0.811833333333333,-0.4878,-0.444,-0.934,-0.12,0.088,-0.01354,-0.63394,0.7816,0.681166666666667,0.4575,-0.193166666666667,749.426,0,1,1,0
24-May-2018 14:21:37,-41,-0.0257125,-0.2790625,0.99,1.181625,-1.185,0.373625,890.5885,0,0,0,0,0,0,0,-0.151866666666667,0.811833333333333,-0.4878,-0.444,-0.934,-0.12,0.088,-0.01354,-0.63394,0.7816,0.681166666666667,0.4575,-0.193166666666667,749.426,0,1,1,0
24-May-2018 14:21:37,-41,-0.0257125,-0.2790625,0.99,1.181625,-1.185,0.373625,890.5885,0,0,0,0,0,0,0,-0.151866666666667,0.811833333333333,-0.4878,-0.444,-0.934,-0.12,0.088,-0.01354,-0.63394,0.7816,0.681166666666667,0.4575,-0.193166666666667,749.426,0,1,1,0
24-May-2018 14:21:37,-41,-0.0257125,-0.2790625,0.99,1.181625,-1.185,0.373625,890.5885,0,0,0,0,0,0,0,-0.151866666666667,0.811833333333333,-0.4878,-0.444,-0.934,-0.12,0.088,-0.01354,-0.63394,0.7816,0.681166666666667,0.4575,-0.193166666666667,749.426,0,1,1,0
24-May-2018 14:21:38,-11.6363636363636,-0.0163142857142857,-0.275457142857143,0.991185714285714,0.660833333333333,0.0113333333333333,0.366,890.5885,0,0,0,0,0,0,0,-0.15236,0.81112,-0.4872,-0.632857142857143,-0.927142857142857,-0.231428571428571,0.088,-0.0116857142857143,-0.6326,0.7849,0.662,0.479285714285714,-0.366,751.2675,0,1,1,0
24-May-2018 14:21:38,-11.6363636363636,-0.0163142857142857,-0.275457142857143,0.991185714285714,0.660833333333333,0.0113333333333333,0.366,890.5885,0,0,0,0,0,0,0,-0.15236,0.81112,-0.4872,-0.632857142857143,-0.927142857142857,-0.231428571428571,0.088,-0.0116857142857143,-0.6326,0.7849,0.662,0.479285714285714,-0.366,751.2675,0,1,1,0
24-May-2018 14:21:38,-11.6363636363636,-0.0163142857142857,-0.275457142857143,0.991185714285714,0.660833333333333,0.0113333333333333,0.366,890.5885,0,0,0,0,0,0,0,-0.15236,0.81112,-0.4872,-0.632857142857143,-0.927142857142857,-0.231428571428571,0.088,-0.0116857142857143,-0.6326,0.7849,0.662,0.479285714285714,-0.366,751.2675,0,1,1,0
24-May-2018 14:21:38,-11.6363636363636,-0.0163142857142857,-0.275457142857143,0.991185714285714,0.660833333333333,0.0113333333333333,0.366,890.5885,0,0,0,0,0,0,0,-0.15236,0.81112,-0.4872,-0.632857142857143,-0.927142857142857,-0.231428571428571,0.088,-0.0116857142857143,-0.6326,0.7849,0.662,0.479285714285714,-0.366,751.2675,0,1,1,0
24-May-2018 14:21:39,-10.2,-0.022275,-0.27715,0.9915625,0.28975,1.02125,0.282125,890.5885,0,0,0,0,0,0,0,-0.15246,0.81334,-0.48714,-0.551428571428571,-0.867142857142857,-0.231428571428571,0.088,-0.0134,-0.6321,0.785228571428571,0.418285714285714,0.427,-0.0435714285714286,752.312,0,1,1,0
24-May-2018 14:21:39,-10.2,-0.022275,-0.27715,0.9915625,0.28975,1.02125,0.282125,890.5885,0,0,0,0,0,0,0,-0.15246,0.81334,-0.48714,-0.551428571428571,-0.867142857142857,-0.231428571428571,0.088,-0.0134,-0.6321,0.785228571428571,0.418285714285714,0.427,-0.0435714285714286,752.312,0,1,1,0
24-May-2018 14:21:39,-10.2,-0.022275,-0.27715,0.9915625,0.28975,1.02125,0.282125,0,0,0,0,0,0,0,0,-0.15246,0.81334,-0.48714,-0.551428571428571,-0.867142857142857,-0.231428571428571,0.088,-0.0134,-0.6321,0.785228571428571,0.418285714285714,0.427,-0.0435714285714286,752.312,0,1,1,0
24-May-2018 14:21:39,-10.2,-0.022275,-0.27715,0.9915625,0.28975,1.02125,0.282125,0,0,0,0,0,0,0,0,-0.15246,0.81334,-0.48714,-0.551428571428571,-0.867142857142857,-0.231428571428571,0.088,-0.0134,-0.6321,0.785228571428571,0.418285714285714,0.427,-0.0435714285714286,752.312,0,1,1,0
24-May-2018 14:21:40,67.0909090909091,-0.0405666666666667,-0.284516666666667,0.988616666666667,0.5136,0.2836,0.366,891.986,0,0,0,0,0,0,0,-0.1516,0.8118625,-0.4878625,-0.378571428571429,-0.935714285714286,-0.06,0.088,-0.0139714285714286,-0.633142857142857,0.784128571428571,0.701375,0.510875,-0.25925,750.708,0,1,1,0
24-May-2018 14:21:40,67.0909090909091,-0.0405666666666667,-0.284516666666667,0.988616666666667,0.5136,0.2836,0.366,891.986,0,0,0,0,0,0,0,-0.1516,0.8118625,-0.4878625,-0.378571428571429,-0.935714285714286,-0.06,0.088,-0.0139714285714286,-0.633142857142857,0.784128571428571,0.701375,0.510875,-0.25925,750.708,0,1,1,0
24-May-2018 14:21:40,67.0909090909091,-0.0405666666666667,-0.284516666666667,0.988616666666667,0.5136,0.2836,0.366,891.986,0,0,0,0,0,0,0,-0.1516,0.8118625,-0.4878625,-0.378571428571429,-0.935714285714286,-0.06,0.088,-0.0139714285714286,-0.633142857142857,0.784128571428571,0.701375,0.510875,-0.25925,750.708,0,1,1,0
24-May-2018 14:21:40,67.0909090909091,-0.0405666666666667,-0.284516666666667,0.988616666666667,0.5136,0.2836,0.366,891.986,0,0,0,0,0,0,0,-0.1516,0.8118625,-0.4878625,-0.378571428571429,-0.935714285714286,-0.06,0.088,-0.0139714285714286,-0.633142857142857,0.784128571428571,0.701375,0.510875,-0.25925,750.708,0,1,1,0
24-May-2018 14:21:41,39.9,-0.0218,-0.277416666666667,0.9913,1.122,-1.058,0.3294,892.693,0,0,0,0,0,0,0,-0.152433333333333,0.811783333333333,-0.48665,-0.566666666666667,-0.87,-0.26,0.088,-0.01468,-0.63036,0.78688,0.906142857142857,0.549,-0.200428571428571,751.373,0,1,1,0
24-May-2018 14:21:41,39.9,-0.0218,-0.277416666666667,0.9913,1.122,-1.058,0.3294,892.693,0,0,0,0,0,0,0,-0.152433333333333,0.811783333333333,-0.48665,-0.566666666666667,-0.87,-0.26,0.088,-0.01468,-0.63036,0.78688,0.906142857142857,0.549,-0.200428571428571,751.373,0,1,1,0
24-May-2018 14:21:41,39.9,-0.0218,-0.277416666666667,0.9913,1.122,-1.058,0.3294,892.693,0,0,0,0,0,0,0,-0.152433333333333,0.811783333333333,-0.48665,-0.566666666666667,-0.87,-0.26,0.088,-0.01468,-0.63036,0.78688,0.906142857142857,0.549,-0.200428571428571,751.373,0,1,1,0
24-May-2018 14:21:41,39.9,-0.0218,-0.277416666666667,0.9913,1.122,-1.058,0.3294,892.693,0,0,0,0,0,0,0,-0.152433333333333,0.811783333333333,-0.48665,-0.566666666666667,-0.87,-0.26,0.088,-0.01468,-0.63036,0.78688,0.906142857142857,0.549,-0.200428571428571,751.373,0,1,1,0
24-May-2018 14:21:42,24.3636363636364,-0.016525,-0.275175,0.9945,0.488,0.8435,0.3355,898.503142857143,0,0,0,0,0,0,0,-0.151833333333333,0.813833333333333,-0.487366666666667,-0.493333333333333,-0.89,-0.19,0.088,-0.0119857142857143,-0.632042857142857,0.784557142857143,0.235285714285714,0.418285714285714,-0.0697142857142857,751.256,0,1,1,0
24-May-2018 14:21:42,24.3636363636364,-0.016525,-0.275175,0.9945,0.488,0.8435,0.3355,898.503142857143,0,0,0,0,0,0,0,-0.151833333333333,0.813833333333333,-0.487366666666667,-0.493333333333333,-0.89,-0.19,0.088,-0.0119857142857143,-0.632042857142857,0.784557142857143,0.235285714285714,0.418285714285714,-0.0697142857142857,751.256,0,1,1,0
24-May-2018 14:21:42,24.3636363636364,-0.016525,-0.275175,0.9945,0.488,0.8435,0.3355,898.503142857143,0,0,0,0,0,0,0,-0.151833333333333,0.813833333333333,-0.487366666666667,-0.493333333333333,-0.89,-0.19,0.088,-0.0119857142857143,-0.632042857142857,0.784557142857143,0.235285714285714,0.418285714285714,-0.0697142857142857,751.256,0,1,1,0
24-May-2018 14:21:42,24.3636363636364,-0.016525,-0.275175,0.9945,0.488,0.8435,0.3355,898.503142857143,0,0,0,0,0,0,0,-0.151833333333333,0.813833333333333,-0.487366666666667,-0.493333333333333,-0.89,-0.19,0.088,-0.0119857142857143,-0.632042857142857,0.784557142857143,0.235285714285714,0.418285714285714,-0.0697142857142857,751.256,0,1,1,0
24-May-2018 14:21:43,37.1,-0.0375666666666667,-0.281755555555556,0.988544444444444,0.0635,1.04766666666667,0.355833333333333,893.871333333333,0,0,0,0,0,0,0,-0.1514125,0.812425,-0.487625,-0.472,-0.948,-0.168,0.088,-0.0127166666666667,-0.6328,0.78305,0.528666666666667,0.508333333333333,-0.122,750.3315,0,1,1,0
24-May-2018 14:21:43,37.1,-0.0375666666666667,-0.281755555555556,0.988544444444444,0.0635,1.04766666666667,0.355833333333333,893.871333333333,0,0,0,0,0,0,0,-0.1514125,0.812425,-0.487625,-0.472,-0.948,-0.168,0.088,-0.0127166666666667,-0.6328,0.78305,0.528666666666667,0.508333333333333,-0.122,750.3315,0,1,1,0
24-May-2018 14:21:43,37.1,-0.0375666666666667,-0.281755555555556,0.988544444444444,0.0635,1.04766666666667,0.355833333333333,893.871333333333,0,0,0,0,0,0,0,-0.1514125,0.812425,-0.487625,-0.472,-0.948,-0.168,0.088,-0.0127166666666667,-0.6328,0.78305,0.528666666666667,0.508333333333333,-0.122,750.3315,0,1,1,0
24-May-2018 14:21:43,37.1,-0.0375666666666667,-0.281755555555556,0.988544444444444,0.0635,1.04766666666667,0.355833333333333,893.871333333333,0,0,0,0,0,0,0,-0.1514125,0.812425,-0.487625,-0.472,-0.948,-0.168,0.088,-0.0127166666666667,-0.6328,0.78305,0.528666666666667,0.508333333333333,-0.122,750.3315,0,1,1,0
24-May-2018 14:21:44,45,-0.0236333333333333,-0.276333333333333,0.990283333333334,1.19342857142857,-0.928571428571429,0.409571428571429,892.519,0,0,0,0,0,0,0,-0.152816666666667,0.8099,-0.487266666666667,-0.597142857142857,-0.875714285714286,-0.282857142857143,0.088,-0.0120714285714286,-0.634314285714286,0.785142857142857,0.663375,0.510875,-0.32025,751.578,0,1,1,0
24-May-2018 14:21:44,45,-0.0236333333333333,-0.276333333333333,0.990283333333334,1.19342857142857,-0.928571428571429,0.409571428571429,892.519,0,0,0,0,0,0,0,-0.152816666666667,0.8099,-0.487266666666667,-0.597142857142857,-0.875714285714286,-0.282857142857143,0.088,-0.0120714285714286,-0.634314285714286,0.785142857142857,0.663375,0.510875,-0.32025,751.578,0,1,1,0
24-May-2018 14:21:44,45,-0.0236333333333333,-0.276333333333333,0.990283333333334,1.19342857142857,-0.928571428571429,0.409571428571429,892.519,0,0,0,0,0,0,0,-0.152816666666667,0.8099,-0.487266666666667,-0.597142857142857,-0.875714285714286,-0.282857142857143,0.088,-0.0120714285714286,-0.634314285714286,0.785142857142857,0.663375,0.510875,-0.32025,751.578,0,1,1,0
24-May-2018 14:21:44,45,-0.0236333333333333,-0.276333333333333,0.990283333333334,1.19342857142857,-0.928571428571429,0.409571428571429,892.519,0,0,0,0,0,0,0,-0.152816666666667,0.8099,-0.487266666666667,-0.597142857142857,-0.875714285714286,-0.282857142857143,0.088,-0.0120714285714286,-0.634314285714286,0.785142857142857,0.663375,0.510875,-0.32025,751.578,0,1,1,0
24-May-2018 14:21:45,23.25,-0.0156666666666667,-0.274216666666667,0.992133333333333,0.539,0.418,0.325333333333333,898.321,0,0,0,0,0,0,0,-0.151833333333333,0.812416666666667,-0.48695,-0.576666666666667,-0.92,-0.22,0.088,-0.01272,-0.63016,0.78606,0.305,0.3965,-0.264333333333333,752.157666666667,0,1,1,0
24-May-2018 14:21:45,23.25,-0.0156666666666667,-0.274216666666667,0.992133333333333,0.539,0.418,0.325333333333333,898.321,0,0,0,0,0,0,0,-0.151833333333333,0.812416666666667,-0.48695,-0.576666666666667,-0.92,-0.22,0.088,-0.01272,-0.63016,0.78606,0.305,0.3965,-0.264333333333333,752.157666666667,0,1,1,0
24-May-2018 14:21:45,23.25,-0.0156666666666667,-0.274216666666667,0.992133333333333,0.539,0.418,0.325333333333333,898.321,0,0,0,0,0,0,0,-0.151833333333333,0.812416666666667,-0.48695,-0.576666666666667,-0.92,-0.22,0.088,-0.01272,-0.63016,0.78606,0.305,0.3965,-0.264333333333333,752.157666666667,0,1,1,0
24-May-2018 14:21:45,23.25,-0.0156666666666667,-0.274216666666667,0.992133333333333,0.539,0.418,0.325333333333333,898.321,0,0,0,0,0,0,0,-0.151833333333333,0.812416666666667,-0.48695,-0.576666666666667,-0.92,-0.22,0.088,-0.01272,-0.63016,0.78606,0.305,0.3965,-0.264333333333333,752.157666666667,0,1,1,0
24-May-2018 14:21:46,12,-0.0275,-0.2779,0.99115,-0.0895,1.7985,0.366,898.487,0,0,0,0,0,0,0,-0.1532,0.8125,-0.48795,-0.54,-1.09,-0.36,0.088,-0.0137,-0.6338,0.7827,0.549,0.4575,-0.0915,751.811,1,1,1,1
24-May-2018 14:21:46,12,-0.0275,-0.2779,0.99115,-0.0895,1.7985,0.366,898.487,0,0,0,0,0,0,0,-0.1532,0.8125,-0.48795,-0.54,-1.09,-0.36,0.088,-0.0137,-0.6338,0.7827,0.549,0.4575,-0.0915,751.811,1,1,1,1
24-May-2018 14:21:46,12,-0.0275,-0.2779,0.99115,-0.0895,1.7985,0.366,898.487,0,0,0,0,0,0,0,-0.1532,0.8125,-0.48795,-0.54,-1.09,-0.36,0.088,-0.0137,-0.6338,0.7827,0.549,0.4575,-0.0915,751.811,1,1,1,1
24-May-2018 14:21:46,12,-0.0275,-0.2779,0.99115,-0.0895,1.7985,0.366,898.487,0,0,0,0,0,0,0,-0.1532,0.8125,-0.48795,-0.54,-1.09,-0.36,0.088,-0.0137,-0.6338,0.7827,0.549,0.4575,-0.0915,751.811,1,1,1,1
24-May-2018 14:21:47,-16.1818181818182,-0.0407666666666667,-0.284283333333333,0.988166666666667,0.453857142857143,0.194571428571429,0.313714285714286,893.499,0,0,0,0,0,0,0,-0.151116666666667,0.812066666666667,-0.48795,-0.474285714285714,-0.927142857142857,-0.111428571428571,0.088,-0.014375,-0.6328,0.7836125,0.749285714285714,0.496714285714286,-0.0784285714285714,749.849,0,1,1,0
24-May-2018 14:21:47,-16.1818181818182,-0.0407666666666667,-0.284283333333333,0.988166666666667,0.453857142857143,0.194571428571429,0.313714285714286,893.499,0,0,0,0,0,0,0,-0.151116666666667,0.812066666666667,-0.48795,-0.474285714285714,-0.927142857142857,-0.111428571428571,0.088,-0.014375,-0.6328,0.7836125,0.749285714285714,0.496714285714286,-0.0784285714285714,749.849,0,1,1,0
24-May-2018 14:21:47,-16.1818181818182,-0.0407666666666667,-0.284283333333333,0.988166666666667,0.453857142857143,0.194571428571429,0.313714285714286,893.499,0,0,0,0,0,0,0,-0.151116666666667,0.812066666666667,-0.48795,-0.474285714285714,-0.927142857142857,-0.111428571428571,0.088,-0.014375,-0.6328,0.7836125,0.749285714285714,0.496714285714286,-0.0784285714285714,749.849,0,1,1,0
24-May-2018 14:21:47,-16.1818181818182,-0.0407666666666667,-0.284283333333333,0.988166666666667,0.453857142857143,0.194571428571429,0.313714285714286,893.499,0,0,0,0,0,0,0,-0.151116666666667,0.812066666666667,-0.48795,-0.474285714285714,-0.927142857142857,-0.111428571428571,0.088,-0.014375,-0.6328,0.7836125,0.749285714285714,0.496714285714286,-0.0784285714285714,749.849,0,1,1,0
24-May-2018 14:21:48,9.4,-0.0243375,-0.2775875,0.9910125,1.06716666666667,-1.105,0.305,889.713,0,0,0,0,0,0,0,-0.151557142857143,0.810428571428571,-0.4873,-0.492857142857143,-0.91,-0.231428571428571,0.088,-0.0118142857142857,-0.6333,0.785614285714286,0.601285714285714,0.505428571428571,-0.261428571428571,750.92175,0,1,1,0
24-May-2018 14:21:48,9.4,-0.0243375,-0.2775875,0.9910125,1.06716666666667,-1.105,0.305,889.713,0,0,0,0,0,0,0,-0.151557142857143,0.810428571428571,-0.4873,-0.492857142857143,-0.91,-0.231428571428571,0.088,-0.0118142857142857,-0.6333,0.785614285714286,0.601285714285714,0.505428571428571,-0.261428571428571,750.92175,0,1,1,0
24-May-2018 14:21:48,9.4,-0.0243375,-0.2775875,0.9910125,1.06716666666667,-1.105,0.305,889.713,0,0,0,0,0,0,0,-0.151557142857143,0.810428571428571,-0.4873,-0.492857142857143,-0.91,-0.231428571428571,0.088,-0.0118142857142857,-0.6333,0.785614285714286,0.601285714285714,0.505428571428571,-0.261428571428571,750.92175,0,1,1,0
24-May-2018 14:21:48,9.4,-0.0243375,-0.2775875,0.9910125,1.06716666666667,-1.105,0.305,889.713,0,0,0,0,0,0,0,-0.151557142857143,0.810428571428571,-0.4873,-0.492857142857143,-0.91,-0.231428571428571,0.088,-0.0118142857142857,-0.6333,0.785614285714286,0.601285714285714,0.505428571428571,-0.261428571428571,750.92175,0,1,1,0
24-May-2018 14:21:49,25.1,-0.0180375,-0.27535,0.9929375,0.510875,0.626625,0.3355,889.713,0,0,0,0,0,0,0,-0.151166666666667,0.813183333333333,-0.48715,-0.575,-0.88,-0.225,0.088,-0.0135,-0.630828571428571,0.786271428571429,0.522857142857143,0.444428571428571,-0.00871428571428571,751.899,0,1,1,0
24-May-2018 14:21:49,25.1,-0.0180375,-0.27535,0.9929375,0.510875,0.626625,0.3355,889.713,0,0,0,0,0,0,0,-0.151166666666667,0.813183333333333,-0.48715,-0.575,-0.88,-0.225,0.088,-0.0135,-0.630828571428571,0.786271428571429,0.522857142857143,0.444428571428571,-0.00871428571428571,751.899,0,1,1,0
24-May-2018 14:21:49,25.1,-0.0180375,-0.27535,0.9929375,0.510875,0.626625,0.3355,889.713,0,0,0,0,0,0,0,-0.151166666666667,0.813183333333333,-0.48715,-0.575,-0.88,-0.225,0.088,-0.0135,-0.630828571428571,0.786271428571429,0.522857142857143,0.444428571428571,-0.00871428571428571,751.899,0,1,1,0
24-May-2018 14:21:49,25.1,-0.0180375,-0.27535,0.9929375,0.510875,0.626625,0.3355,889.713,0,0,0,0,0,0,0,-0.151166666666667,0.813183333333333,-0.48715,-0.575,-0.88,-0.225,0.088,-0.0135,-0.630828571428571,0.786271428571429,0.522857142857143,0.444428571428571,-0.00871428571428571,751.899,0,1,1,0
24-May-2018 14:21:50,-53.7777777777778,-0.0408,-0.2824625,0.9880875,0.1325,1.167375,0.404125,889.713,0,0,0,0,0,0,0,-0.152216666666667,0.812183333333333,-0.487483333333333,-0.49125,-0.91875,-0.1875,0.088,-0.0135,-0.633685714285714,0.7842,0.488,0.467666666666667,-0.0305,749.8912,0,1,1,0
24-May-2018 14:21:50,-53.7777777777778,-0.0408,-0.2824625,0.9880875,0.1325,1.167375,0.404125,889.713,0,0,0,0,0,0,0,-0.152216666666667,0.812183333333333,-0.487483333333333,-0.49125,-0.91875,-0.1875,0.088,-0.0135,-0.633685714285714,0.7842,0.488,0.467666666666667,-0.0305,749.8912,0,1,1,0
24-May-2018 14:21:50,-53.7777777777778,-0.0408,-0.2824625,0.9880875,0.1325,1.167375,0.404125,0,0,0,0,0,0,0,0,-0.152216666666667,0.812183333333333,-0.487483333333333,-0.49125,-0.91875,-0.1875,0.088,-0.0135,-0.633685714285714,0.7842,0.488,0.467666666666667,-0.0305,749.8912,0,1,1,0
24-May-2018 14:21:50,-53.7777777777778,-0.0408,-0.2824625,0.9880875,0.1325,1.167375,0.404125,0,0,0,0,0,0,0,0,-0.152216666666667,0.812183333333333,-0.487483333333333,-0.49125,-0.91875,-0.1875,0.088,-0.0135,-0.633685714285714,0.7842,0.488,0.467666666666667,-0.0305,749.8912,0,1,1,0
24-May-2018 14:21:51,32.3636363636364,-0.02458,-0.27856,0.99132,1.19933333333333,-1.34666666666667,0.305,891.092,0,0,0,0,0,0,0,-0.151583333333333,0.8113,-0.488266666666667,-0.527142857142857,-0.901428571428571,-0.18,0.088,-0.0124714285714286,-0.632228571428571,0.785942857142857,0.94525,0.571875,-0.244,750.88,0,1,1,0
24-May-2018 14:21:51,32.3636363636364,-0.02458,-0.27856,0.99132,1.19933333333333,-1.34666666666667,0.305,891.092,0,0,0,0,0,0,0,-0.151583333333333,0.8113,-0.488266666666667,-0.527142857142857,-0.901428571428571,-0.18,0.088,-0.0124714285714286,-0.632228571428571,0.785942857142857,0.94525,0.571875,-0.244,750.88,0,1,1,0
24-May-2018 14:21:51,32.3636363636364,-0.02458,-0.27856,0.99132,1.19933333333333,-1.34666666666667,0.305,891.092,0,0,0,0,0,0,0,-0.151583333333333,0.8113,-0.488266666666667,-0.527142857142857,-0.901428571428571,-0.18,0.088,-0.0124714285714286,-0.632228571428571,0.785942857142857,0.94525,0.571875,-0.244,750.88,0,1,1,0
24-May-2018 14:21:51,32.3636363636364,-0.02458,-0.27856,0.99132,1.19933333333333,-1.34666666666667,0.305,891.092,0,0,0,0,0,0,0,-0.151583333333333,0.8113,-0.488266666666667,-0.527142857142857,-0.901428571428571,-0.18,0.088,-0.0124714285714286,-0.632228571428571,0.785942857142857,0.94525,0.571875,-0.244,750.88,0,1,1,0
24-May-2018 14:21:52,124.909090909091,-0.016725,-0.27445,0.992525,0.528666666666667,0.5185,0.3355,897.291,0,0,0,0,0,0,0,-0.151883333333333,0.8126,-0.487416666666667,-0.59,-0.858571428571429,-0.265714285714286,0.088,-0.0124,-0.63295,0.78385,0.162666666666667,0.386333333333333,-0.101666666666667,750.69725,0,1,1,0
24-May-2018 14:21:52,124.909090909091,-0.016725,-0.27445,0.992525,0.528666666666667,0.5185,0.3355,897.291,0,0,0,0,0,0,0,-0.151883333333333,0.8126,-0.487416666666667,-0.59,-0.858571428571429,-0.265714285714286,0.088,-0.0124,-0.63295,0.78385,0.162666666666667,0.386333333333333,-0.101666666666667,750.69725,0,1,1,0
24-May-2018 14:21:52,124.909090909091,-0.016725,-0.27445,0.992525,0.528666666666667,0.5185,0.3355,897.291,0,0,0,0,0,0,0,-0.151883333333333,0.8126,-0.487416666666667,-0.59,-0.858571428571429,-0.265714285714286,0.088,-0.0124,-0.63295,0.78385,0.162666666666667,0.386333333333333,-0.101666666666667,750.69725,0,1,1,0
24-May-2018 14:21:52,124.909090909091,-0.016725,-0.27445,0.992525,0.528666666666667,0.5185,0.3355,897.291,0,0,0,0,0,0,0,-0.151883333333333,0.8126,-0.487416666666667,-0.59,-0.858571428571429,-0.265714285714286,0.088,-0.0124,-0.63295,0.78385,0.162666666666667,0.386333333333333,-0.101666666666667,750.69725,0,1,1,0
24-May-2018 14:21:53,71.5,-0.0342,-0.2827,0.9907,-0.195,1.7225,0.305,895.247166666667,0,0,0,0,0,0,0,-0.151466666666667,0.8128,-0.4872,-0.566,-0.898,-0.204,0.088,-0.0141428571428571,-0.634457142857143,0.782928571428571,0.453142857142857,0.461857142857143,-0.235285714285714,748.675,0,1,1,0
24-May-2018 14:21:53,71.5,-0.0342,-0.2827,0.9907,-0.195,1.7225,0.305,895.247166666667,0,0,0,0,0,0,0,-0.151466666666667,0.8128,-0.4872,-0.566,-0.898,-0.204,0.088,-0.0141428571428571,-0.634457142857143,0.782928571428571,0.453142857142857,0.461857142857143,-0.235285714285714,748.675,0,1,1,0
24-May-2018 14:21:53,71.5,-0.0342,-0.2827,0.9907,-0.195,1.7225,0.305,895.247166666667,0,0,0,0,0,0,0,-0.151466666666667,0.8128,-0.4872,-0.566,-0.898,-0.204,0.088,-0.0141428571428571,-0.634457142857143,0.782928571428571,0.453142857142857,0.461857142857143,-0.235285714285714,748.675,0,1,1,0
24-May-2018 14:21:53,71.5,-0.0342,-0.2827,0.9907,-0.195,1.7225,0.305,895.247166666667,0,0,0,0,0,0,0,-0.151466666666667,0.8128,-0.4872,-0.566,-0.898,-0.204,0.088,-0.0141428571428571,-0.634457142857143,0.782928571428571,0.453142857142857,0.461857142857143,-0.235285714285714,748.675,0,1,1,0
24-May-2018 14:21:54,-30.2,-0.0357,-0.283128571428571,0.9886,1.26314285714286,-1.54714285714286,0.322428571428571,890.337,0,0,0,0,0,0,0,-0.15166,0.81064,-0.4872,-0.59125,-0.8575,-0.225,0.088,-0.0136,-0.633925,0.7838,0.932142857142857,0.522857142857143,-0.278857142857143,749.3462,0,1,1,0
24-May-2018 14:21:54,-30.2,-0.0357,-0.283128571428571,0.9886,1.26314285714286,-1.54714285714286,0.322428571428571,890.337,0,0,0,0,0,0,0,-0.15166,0.81064,-0.4872,-0.59125,-0.8575,-0.225,0.088,-0.0136,-0.633925,0.7838,0.932142857142857,0.522857142857143,-0.278857142857143,749.3462,0,1,1,0
24-May-2018 14:21:54,-30.2,-0.0357,-0.283128571428571,0.9886,1.26314285714286,-1.54714285714286,0.322428571428571,890.337,0,0,0,0,0,0,0,-0.15166,0.81064,-0.4872,-0.59125,-0.8575,-0.225,0.088,-0.0136,-0.633925,0.7838,0.932142857142857,0.522857142857143,-0.278857142857143,749.3462,0,1,1,0
24-May-2018 14:21:54,-30.2,-0.0357,-0.283128571428571,0.9886,1.26314285714286,-1.54714285714286,0.322428571428571,890.337,0,0,0,0,0,0,0,-0.15166,0.81064,-0.4872,-0.59125,-0.8575,-0.225,0.088,-0.0136,-0.633925,0.7838,0.932142857142857,0.522857142857143,-0.278857142857143,749.3462,0,1,1,0
24-May-2018 14:21:55,-117.888888888889,-0.0153833333333333,-0.27495,0.99185,0.7625,-0.171333333333333,0.345666666666667,896.32125,0,0,0,0,0,0,0,-0.151557142857143,0.812357142857143,-0.486771428571429,-0.57,-0.875714285714286,-0.257142857142857,0.088,-0.0131555555555556,-0.631211111111111,0.785088888888889,0.366,0.419375,-0.22875,751.523,0,1,1,0
24-May-2018 14:21:55,-117.888888888889,-0.0153833333333333,-0.27495,0.99185,0.7625,-0.171333333333333,0.345666666666667,896.32125,0,0,0,0,0,0,0,-0.151557142857143,0.812357142857143,-0.486771428571429,-0.57,-0.875714285714286,-0.257142857142857,0.088,-0.0131555555555556,-0.631211111111111,0.785088888888889,0.366,0.419375,-0.22875,751.523,0,1,1,0
24-May-2018 14:21:55,-117.888888888889,-0.0153833333333333,-0.27495,0.99185,0.7625,-0.171333333333333,0.345666666666667,896.32125,0,0,0,0,0,0,0,-0.151557142857143,0.812357142857143,-0.486771428571429,-0.57,-0.875714285714286,-0.257142857142857,0.088,-0.0131555555555556,-0.631211111111111,0.785088888888889,0.366,0.419375,-0.22875,751.523,0,1,1,0
24-May-2018 14:21:55,-117.888888888889,-0.0153833333333333,-0.27495,0.99185,0.7625,-0.171333333333333,0.345666666666667,896.32125,0,0,0,0,0,0,0,-0.151557142857143,0.812357142857143,-0.486771428571429,-0.57,-0.875714285714286,-0.257142857142857,0.088,-0.0131555555555556,-0.631211111111111,0.785088888888889,0.366,0.419375,-0.22875,751.523,0,1,1,0
24-May-2018 14:21:56,-155.6,-0.0257,-0.277433333333333,0.990966666666667,0.0365714285714286,1.63742857142857,0.366,896.463333333333,0,0,0,0,0,0,0,-0.151683333333333,0.8126,-0.487083333333333,-0.542857142857143,-0.901428571428571,-0.154285714285714,0.088,-0.01418,-0.63274,0.78402,0.61,0.488,-0.0697142857142857,749.7166,0,1,1,0
24-May-2018 14:21:56,-155.6,-0.0257,-0.277433333333333,0.990966666666667,0.0365714285714286,1.63742857142857,0.366,896.463333333333,0,0,0,0,0,0,0,-0.151683333333333,0.8126,-0.487083333333333,-0.542857142857143,-0.901428571428571,-0.154285714285714,0.088,-0.01418,-0.63274,0.78402,0.61,0.488,-0.0697142857142857,749.7166,0,1,1,0
24-May-2018 14:21:56,-155.6,-0.0257,-0.277433333333333,0.990966666666667,0.0365714285714286,1.63742857142857,0.366,896.463333333333,0,0,0,0,0,0,0,-0.151683333333333,0.8126,-0.487083333333333,-0.542857142857143,-0.901428571428571,-0.154285714285714,0.088,-0.01418,-0.63274,0.78402,0.61,0.488,-0.0697142857142857,749.7166,0,1,1,0
24-May-2018 14:21:56,-155.6,-0.0257,-0.277433333333333,0.990966666666667,0.0365714285714286,1.63742857142857,0.366,896.463333333333,0,0,0,0,0,0,0,-0.151683333333333,0.8126,-0.487083333333333,-0.542857142857143,-0.901428571428571,-0.154285714285714,0.088,-0.01418,-0.63274,0.78402,0.61,0.488,-0.0697142857142857,749.7166,0,1,1,0
24-May-2018 14:21:57,-29.2,-0.04165,-0.2833375,0.9879875,0.833833333333333,-0.352833333333333,0.437166666666667,890.872333333333,0,0,0,0,0,0,0,-0.151766666666667,0.8127,-0.487666666666667,-0.518,-0.946,-0.156,0.088,-0.013775,-0.6336,0.7827,0.6405,0.477833333333333,-0.437166666666667,749.7166,0,1,1,0
24-May-2018 14:21:57,-29.2,-0.04165,-0.2833375,0.9879875,0.833833333333333,-0.352833333333333,0.437166666666667,890.872333333333,0,0,0,0,0,0,0,-0.151766666666667,0.8127,-0.487666666666667,-0.518,-0.946,-0.156,0.088,-0.013775,-0.6336,0.7827,0.6405,0.477833333333333,-0.437166666666667,749.7166,0,1,1,0
24-May-2018 14:21:57,-29.2,-0.04165,-0.2833375,0.9879875,0.833833333333333,-0.352833333333333,0.437166666666667,890.872333333333,0,0,0,0,0,0,0,-0.151766666666667,0.8127,-0.487666666666667,-0.518,-0.946,-0.156,0.088,-0.013775,-0.6336,0.7827,0.6405,0.477833333333333,-0.437166666666667,749.7166,0,1,1,0
24-May-2018 14:21:57,-29.2,-0.04165,-0.2833375,0.9879875,0.833833333333333,-0.352833333333333,0.437166666666667,890.872333333333,0,0,0,0,0,0,0,-0.151766666666667,0.8127,-0.487666666666667,-0.518,-0.946,-0.156,0.088,-0.013775,-0.6336,0.7827,0.6405,0.477833333333333,-0.437166666666667,0,0,1,1,0
24-May-2018 14:21:58,75.4545454545455,-0.02466,-0.27602,0.99,1.06271428571429,-0.632714285714286,0.383428571428572,892.316333333333,0,0,0,0,0,0,0,-0.151016666666667,0.810083333333333,-0.48725,-0.517142857142857,-0.841428571428571,-0.231428571428571,0.088,-0.0125875,-0.6325875,0.78545,0.630333333333333,0.498166666666667,-0.254166666666667,750.208,0,1,1,0
24-May-2018 14:21:58,75.4545454545455,-0.02466,-0.27602,0.99,1.06271428571429,-0.632714285714286,0.383428571428572,892.316333333333,0,0,0,0,0,0,0,-0.151016666666667,0.810083333333333,-0.48725,-0.517142857142857,-0.841428571428571,-0.231428571428571,0.088,-0.0125875,-0.6325875,0.78545,0.630333333333333,0.498166666666667,-0.254166666666667,750.208,0,1,1,0
24-May-2018 14:21:58,75.4545454545455,-0.02466,-0.27602,0.99,1.06271428571429,-0.632714285714286,0.383428571428572,892.316333333333,0,0,0,0,0,0,0,-0.151016666666667,0.810083333333333,-0.48725,-0.517142857142857,-0.841428571428571,-0.231428571428571,0.088,-0.0125875,-0.6325875,0.78545,0.630333333333333,0.498166666666667,-0.254166666666667,750.208,0,1,1,0
24-May-2018 14:21:58,75.4545454545455,-0.02466,-0.27602,0.99,1.06271428571429,-0.632714285714286,0.383428571428572,892.316333333333,0,0,0,0,0,0,0,-0.151016666666667,0.810083333333333,-0.48725,-0.517142857142857,-0.841428571428571,-0.231428571428571,0.088,-0.0125875,-0.6325875,0.78545,0.630333333333333,0.498166666666667,-0.254166666666667,750.208,0,1,1,0
24-May-2018 14:21:59,193.444444444444,-0.016325,-0.274175,0.9927125,0.602375,0.41225,0.327875,892.316333333333,0,0,0,0,0,0,0,-0.15146,0.81258,-0.48732,-0.597142857142857,-0.875714285714286,-0.222857142857143,0.088,-0.0134,-0.63094,0.78428,0.51075,0.4575,0.01525,751.130666666667,0,1,1,0
24-May-2018 14:21:59,193.444444444444,-0.016325,-0.274175,0.9927125,0.602375,0.41225,0.327875,892.316333333333,0,0,0,0,0,0,0,-0.15146,0.81258,-0.48732,-0.597142857142857,-0.875714285714286,-0.222857142857143,0.088,-0.0134,-0.63094,0.78428,0.51075,0.4575,0.01525,751.130666666667,0,1,1,0
24-May-2018 14:21:59,193.444444444444,-0.016325,-0.274175,0.9927125,0.602375,0.41225,0.327875,892.316333333333,0,0,0,0,0,0,0,-0.15146,0.81258,-0.48732,-0.597142857142857,-0.875714285714286,-0.222857142857143,0.088,-0.0134,-0.63094,0.78428,0.51075,0.4575,0.01525,751.130666666667,0,1,1,0
24-May-2018 14:21:59,193.444444444444,-0.016325,-0.274175,0.9927125,0.602375,0.41225,0.327875,892.316333333333,0,0,0,0,0,0,0,-0.15146,0.81258,-0.48732,-0.597142857142857,-0.875714285714286,-0.222857142857143,0.088,-0.0134,-0.63094,0.78428,0.51075,0.4575,0.01525,751.130666666667,0,1,1,0
24-May-2018 14:22:00,241,-0.0342888888888889,-0.280133333333333,0.989033333333333,0.055,1.441375,0.388875,892.316333333333,0,0,0,0,0,0,0,-0.151557142857143,0.811371428571429,-0.487214285714286,-0.457142857142857,-0.944285714285714,-0.145714285714286,0.088,-0.0141,-0.633766666666667,0.784166666666667,0.496714285714286,0.470571428571429,-0.217857142857143,749.568333333333,1,1,1,0
24-May-2018 14:22:00,241,-0.0342888888888889,-0.280133333333333,0.989033333333333,0.055,1.441375,0.388875,892.316333333333,0,0,0,0,0,0,0,-0.151557142857143,0.811371428571429,-0.487214285714286,-0.457142857142857,-0.944285714285714,-0.145714285714286,0.088,-0.0141,-0.633766666666667,0.784166666666667,0.496714285714286,0.470571428571429,-0.217857142857143,749.568333333333,1,1,1,0
24-May-2018 14:22:00,241,-0.0342888888888889,-0.280133333333333,0.989033333333333,0.055,1.441375,0.388875,0,0,0,0,0,0,0,0,-0.151557142857143,0.811371428571429,-0.487214285714286,-0.457142857142857,-0.944285714285714,-0.145714285714286,0.088,-0.0141,-0.633766666666667,0.784166666666667,0.496714285714286,0.470571428571429,-0.217857142857143,749.568333333333,1,1,1,0
24-May-2018 14:22:00,241,-0.0342888888888889,-0.280133333333333,0.989033333333333,0.055,1.441375,0.388875,0,0,0,0,0,0,0,0,-0.151557142857143,0.811371428571429,-0.487214285714286,-0.457142857142857,-0.944285714285714,-0.145714285714286,0.088,-0.0141,-0.633766666666667,0.784166666666667,0.496714285714286,0.470571428571429,-0.217857142857143,749.568333333333,1,1,1,0
24-May-2018 14:22:01,209.727272727273,-0.03165,-0.2801,0.989383333333333,1.135875,-0.98625,0.3965,890.975,0,0,0,0,0,0,0,-0.1506,0.81356,-0.48798,-0.6,-0.985,-0.165,0.088,-0.01285,-0.633966666666667,0.784566666666667,0.62525,0.495625,-0.327875,748.874,0,1,1,0
24-May-2018 14:22:01,209.727272727273,-0.03165,-0.2801,0.989383333333333,1.135875,-0.98625,0.3965,890.975,0,0,0,0,0,0,0,-0.1506,0.81356,-0.48798,-0.6,-0.985,-0.165,0.088,-0.01285,-0.633966666666667,0.784566666666667,0.62525,0.495625,-0.327875,748.874,0,1,1,0
24-May-2018 14:22:01,209.727272727273,-0.03165,-0.2801,0.989383333333333,1.135875,-0.98625,0.3965,890.975,0,0,0,0,0,0,0,-0.1506,0.81356,-0.48798,-0.6,-0.985,-0.165,0.088,-0.01285,-0.633966666666667,0.784566666666667,0.62525,0.495625,-0.327875,748.874,0,1,1,0
24-May-2018 14:22:01,209.727272727273,-0.03165,-0.2801,0.989383333333333,1.135875,-0.98625,0.3965,890.975,0,0,0,0,0,0,0,-0.1506,0.81356,-0.48798,-0.6,-0.985,-0.165,0.088,-0.01285,-0.633966666666667,0.784566666666667,0.62525,0.495625,-0.327875,748.874,0,1,1,0
24-May-2018 14:22:02,114.3,-0.01788,-0.2749,0.99232,0.793,-0.3158,0.305,896.019714285714,0,0,0,0,0,0,0,-0.152283333333333,0.812583333333333,-0.4863,-0.68,-0.91,-0.24,0.088,-0.0117571428571429,-0.632857142857143,0.7848,0.355833333333333,0.447333333333333,-0.305,751.3395,0,1,1,0
24-May-2018 14:22:02,114.3,-0.01788,-0.2749,0.99232,0.793,-0.3158,0.305,896.019714285714,0,0,0,0,0,0,0,-0.152283333333333,0.812583333333333,-0.4863,-0.68,-0.91,-0.24,0.088,-0.0117571428571429,-0.632857142857143,0.7848,0.355833333333333,0.447333333333333,-0.305,751.3395,0,1,1,0
24-May-2018 14:22:02,114.3,-0.01788,-0.2749,0.99232,0.793,-0.3158,0.305,896.019714285714,0,0,0,0,0,0,0,-0.152283333333333,0.812583333333333,-0.4863,-0.68,-0.91,-0.24,0.088,-0.0117571428571429,-0.632857142857143,0.7848,0.355833333333333,0.447333333333333,-0.305,751.3395,0,1,1,0
24-May-2018 14:22:02,114.3,-0.01788,-0.2749,0.99232,0.793,-0.3158,0.305,896.019714285714,0,0,0,0,0,0,0,-0.152283333333333,0.812583333333333,-0.4863,-0.68,-0.91,-0.24,0.088,-0.0117571428571429,-0.632857142857143,0.7848,0.355833333333333,0.447333333333333,-0.305,751.3395,0,1,1,0
24-May-2018 14:22:03,156.2,-0.01738,-0.2751,0.99192,0.1594,1.2072,0.3416,897.127714285714,0,0,0,0,0,0,0,-0.151916666666667,0.812716666666667,-0.486916666666667,-0.526666666666667,-0.92,-0.2,0.088,-0.0132666666666667,-0.632966666666667,0.78375,0.348571428571429,0.400857142857143,-0.113285714285714,751.168,0,1,1,0
24-May-2018 14:22:03,156.2,-0.01738,-0.2751,0.99192,0.1594,1.2072,0.3416,897.127714285714,0,0,0,0,0,0,0,-0.151916666666667,0.812716666666667,-0.486916666666667,-0.526666666666667,-0.92,-0.2,0.088,-0.0132666666666667,-0.632966666666667,0.78375,0.348571428571429,0.400857142857143,-0.113285714285714,751.168,0,1,1,0
24-May-2018 14:22:03,156.2,-0.01738,-0.2751,0.99192,0.1594,1.2072,0.3416,897.127714285714,0,0,0,0,0,0,0,-0.151916666666667,0.812716666666667,-0.486916666666667,-0.526666666666667,-0.92,-0.2,0.088,-0.0132666666666667,-0.632966666666667,0.78375,0.348571428571429,0.400857142857143,-0.113285714285714,751.168,0,1,1,0
24-May-2018 14:22:03,156.2,-0.01738,-0.2751,0.99192,0.1594,1.2072,0.3416,897.127714285714,0,0,0,0,0,0,0,-0.151916666666667,0.812716666666667,-0.486916666666667,-0.526666666666667,-0.92,-0.2,0.088,-0.0132666666666667,-0.632966666666667,0.78375,0.348571428571429,0.400857142857143,-0.113285714285714,751.168,0,1,1,0
24-May-2018 14:22:04,192.777777777778,-0.0354285714285714,-0.281285714285714,0.9895,0.5868,-0.1684,0.3416,893.0695,0,0,0,0,0,0,0,-0.150583333333333,0.812,-0.48815,-0.521666666666667,-0.92,-0.08,0.088,-0.0136,-0.6348,0.78375,0.678625,0.5185,-0.13725,749.716,0,1,1,0
24-May-2018 14:22:04,192.777777777778,-0.0354285714285714,-0.281285714285714,0.9895,0.5868,-0.1684,0.3416,893.0695,0,0,0,0,0,0,0,-0.150583333333333,0.812,-0.48815,-0.521666666666667,-0.92,-0.08,0.088,-0.0136,-0.6348,0.78375,0.678625,0.5185,-0.13725,749.716,0,1,1,0
24-May-2018 14:22:04,192.777777777778,-0.0354285714285714,-0.281285714285714,0.9895,0.5868,-0.1684,0.3416,893.0695,0,0,0,0,0,0,0,-0.150583333333333,0.812,-0.48815,-0.521666666666667,-0.92,-0.08,0.088,-0.0136,-0.6348,0.78375,0.678625,0.5185,-0.13725,749.716,0,1,1,0
24-May-2018 14:22:04,192.777777777778,-0.0354285714285714,-0.281285714285714,0.9895,0.5868,-0.1684,0.3416,893.0695,0,0,0,0,0,0,0,-0.150583333333333,0.812,-0.48815,-0.521666666666667,-0.92,-0.08,0.088,-0.0136,-0.6348,0.78375,0.678625,0.5185,-0.13725,749.716,0,1,1,0
24-May-2018 14:22:05,65.0909090909091,-0.0208714285714286,-0.275942857142857,0.991357142857143,1.03685714285714,-0.737142857142857,0.348571428571429,893.047,0,0,0,0,0,0,0,-0.1511,0.81025,-0.486933333333333,-0.575,-0.87,-0.27,0.088,-0.0123857142857143,-0.6316,0.784757142857143,0.480375,0.4575,-0.251625,750.174666666667,0,1,1,0
24-May-2018 14:22:05,65.0909090909091,-0.0208714285714286,-0.275942857142857,0.991357142857143,1.03685714285714,-0.737142857142857,0.348571428571429,893.047,0,0,0,0,0,0,0,-0.1511,0.81025,-0.486933333333333,-0.575,-0.87,-0.27,0.088,-0.0123857142857143,-0.6316,0.784757142857143,0.480375,0.4575,-0.251625,750.174666666667,0,1,1,0
24-May-2018 14:22:05,65.0909090909091,-0.0208714285714286,-0.275942857142857,0.991357142857143,1.03685714285714,-0.737142857142857,0.348571428571429,893.047,0,0,0,0,0,0,0,-0.1511,0.81025,-0.486933333333333,-0.575,-0.87,-0.27,0.088,-0.0123857142857143,-0.6316,0.784757142857143,0.480375,0.4575,-0.251625,750.174666666667,0,1,1,0
24-May-2018 14:22:05,65.0909090909091,-0.0208714285714286,-0.275942857142857,0.991357142857143,1.03685714285714,-0.737142857142857,0.348571428571429,893.047,0,0,0,0,0,0,0,-0.1511,0.81025,-0.486933333333333,-0.575,-0.87,-0.27,0.088,-0.0123857142857143,-0.6316,0.784757142857143,0.480375,0.4575,-0.251625,750.174666666667,0,1,1,0
