TIME,HELMET_RAW,BELT_ACC_X,BELT_ACC_Y,BELT_ACC_Z,BELT_ANG_X,BELT_ANG_Y,BELT_ANG_Z,BELT_LUMINOSITY,NECK_ACC_X,NECK_ACC_Y,NECK_ACC_Z,NECK_ANG_X,NECK_ANG_Y,NECK_ANG_Z,NECK_LUMINOSITY,PCKT_ACC_X,PCKT_ACC_Y,PCKT_ACC_Z,PCKT_ANG_X,PCKT_ANG_Y,PCKT_ANG_Z,PCKT_LUMINOSITY,WRST_ACC_X,WRST_ACC_Y,WRST_ACC_Z,WRST_ANG_X,WRST_ANG_Y,WRST_ANG_Z,WRST_LUMINOSITY,IR_1,IR_2,IR_3,IR_4
24-May-2018 14:20:06,326.3,0.961871428571428,0.0870857142857143,-0.0664285714285714,-13.8891666666667,-4.04833333333333,0.429666666666667,304.837333333333,0,0,0,0,0,0,0,0.9503,0.14234,0.01562,-5.8295,-4.097,8.53525,0.0704,-0.930866666666667,-0.1167,0.124,1.3782,2.4026,-0.4146,457.0954,0.5,0.5,1,0
24-May-2018 14:20:06,326.3,0.961871428571428,0.0870857142857143,-0.0664285714285714,-13.8891666666667,-4.04833333333333,0.429666666666667,304.837333333333,0,0,0,0,0,0,0,0.9503,0.14234,0.01562,-5.8295,-4.097,8.53525,0.0704,-0.930866666666667,-0.1167,0.124,1.3782,2.4026,-0.4146,457.0954,0.5,0.5,1,0
24-May-2018 14:20:06,326.3,0.961871428571428,0.0870857142857143,-0.0664285714285714,-13.8891666666667,-4.04833333333333,0.429666666666667,304.837333333333,0,0,0,0,0,0,0,0.9503,0.14234,0.01562,-5.8295,-4.097,8.53525,0.0704,-0.930866666666667,-0.1167,0.124,1.3782,2.4026,-0.4146,457.0954,0.5,0.5,1,0
24-May-2018 14:20:06,326.3,0.961871428571428,0.0870857142857143,-0.0664285714285714,-13.8891666666667,-4.04833333333333,0.429666666666667,304.837333333333,0,0,0,0,0,0,0,0.9503,0.14234,0.01562,-5.8295,-4.097,8.53525,0.0704,-0.930866666666667,-0.1167,0.124,1.3782,2.4026,-0.4146,457.0954,0.5,0.5,1,0
24-May-2018 14:20:07,306,0.95505,0.07455,-0.07355,0.9638,0.7444,1.4634,298.798,0,0,0,0,0,0,0,0.933825,0.121,-0.013,-24.928,-17.07,-7.2126,0.0704,-0.811733333333333,-0.476716666666667,0.12975,58.0852,-6.0854,-79.1432,416.086,1,1,1,0
24-May-2018 14:20:07,306,0.95505,0.07455,-0.07355,0.9638,0.7444,1.4634,298.798,0,0,0,0,0,0,0,0.933825,0.121,-0.013,-24.928,-17.07,-7.2126,0.0704,-0.811733333333333,-0.476716666666667,0.12975,58.0852,-6.0854,-79.1432,416.086,1,1,1,0
24-May-2018 14:20:07,306,0.95505,0.07455,-0.07355,0.9638,0.7444,1.4634,298.798,0,0,0,0,0,0,0,0.933825,0.121,-0.013,-24.928,-17.07,-7.2126,0.0704,-0.811733333333333,-0.476716666666667,0.12975,58.0852,-6.0854,-79.1432,416.086,1,1,1,0
24-May-2018 14:20:07,306,0.95505,0.07455,-0.07355,0.9638,0.7444,1.4634,298.798,0,0,0,0,0,0,0,0.933825,0.121,-0.013,-24.928,-17.07,-7.2126,0.0704,-0.811733333333333,-0.476716666666667,0.12975,58.0852,-6.0854,-79.1432,416.086,1,1,1,0
24-May-2018 14:20:08,130.5,0.956366666666667,0.0642333333333333,-0.0617333333333333,-1.675,1.829,1.372,300.372,0,0,0,0,0,0,0,0.752,0.3591,-0.5195,22.8935,-93.25,-18.755,0.0704,-0.6654,-0.5246,0.46155,69.553,-31.504,38.2113333333333,514.768,0,0,1,1
24-May-2018 14:20:08,130.5,0.956366666666667,0.0642333333333333,-0.0617333333333333,-1.675,1.829,1.372,300.372,0,0,0,0,0,0,0,0.752,0.3591,-0.5195,22.8935,-93.25,-18.755,0.0704,-0.6654,-0.5246,0.46155,69.553,-31.504,38.2113333333333,514.768,0,0,1,1
24-May-2018 14:20:08,130.5,0.956366666666667,0.0642333333333333,-0.0617333333333333,-1.675,1.829,1.372,300.372,0,0,0,0,0,0,0,0.752,0.3591,-0.5195,22.8935,-93.25,-18.755,0,-0.6654,-0.5246,0.46155,69.553,-31.504,38.2113333333333,514.768,0,0,1,1
24-May-2018 14:20:08,130.5,0.956366666666667,0.0642333333333333,-0.0617333333333333,-1.675,1.829,1.372,300.372,0,0,0,0,0,0,0,0.752,0.3591,-0.5195,22.8935,-93.25,-18.755,0,-0.6654,-0.5246,0.46155,69.553,-31.504,38.2113333333333,514.768,0,0,1,1
24-May-2018 14:20:09,101.181818181818,0.96016,0.04436,-0.04688,3.9735,1.4125,0.681,298.85,0,0,0,0,0,0,0,-0.1241,0.141466666666667,-0.877816666666667,8.162,-59.8128571428571,31.4114285714286,0.044,-0.16695,-0.662716666666667,0.554633333333333,15.3758333333333,-20.5995,-22.2053333333333,524.038,0,0,1,0
24-May-2018 14:20:09,101.181818181818,0.96016,0.04436,-0.04688,3.9735,1.4125,0.681,298.85,0,0,0,0,0,0,0,-0.1241,0.141466666666667,-0.877816666666667,8.162,-59.8128571428571,31.4114285714286,0.044,-0.16695,-0.662716666666667,0.554633333333333,15.3758333333333,-20.5995,-22.2053333333333,524.038,0,0,1,0
24-May-2018 14:20:09,101.181818181818,0.96016,0.04436,-0.04688,3.9735,1.4125,0.681,298.85,0,0,0,0,0,0,0,-0.1241,0.141466666666667,-0.877816666666667,8.162,-59.8128571428571,31.4114285714286,0.044,-0.16695,-0.662716666666667,0.554633333333333,15.3758333333333,-20.5995,-22.2053333333333,524.038,0,0,1,0
24-May-2018 14:20:09,101.181818181818,0.96016,0.04436,-0.04688,3.9735,1.4125,0.681,298.85,0,0,0,0,0,0,0,-0.1241,0.141466666666667,-0.877816666666667,8.162,-59.8128571428571,31.4114285714286,0.044,-0.16695,-0.662716666666667,0.554633333333333,15.3758333333333,-20.5995,-22.2053333333333,524.038,0,0,1,0
24-May-2018 14:20:10,46.5,0.957985714285714,0.100442857142857,-0.0128142857142857,-27.2,0.9414,5.073,299.664,0,0,0,0,0,0,0,-0.5579,0.60135,-0.5929,-20.5958571428571,-1.45571428571429,21.3665714285714,0.088,0.0592714285714286,-0.694257142857143,0.735042857142857,1.838,3.57142857142857,-3.11842857142857,492.553,0,1,1,0
24-May-2018 14:20:10,46.5,0.957985714285714,0.100442857142857,-0.0128142857142857,-27.2,0.9414,5.073,299.664,0,0,0,0,0,0,0,-0.5579,0.60135,-0.5929,-20.5958571428571,-1.45571428571429,21.3665714285714,0.088,0.0592714285714286,-0.694257142857143,0.735042857142857,1.838,3.57142857142857,-3.11842857142857,492.553,0,1,1,0
24-May-2018 14:20:10,46.5,0.957985714285714,0.100442857142857,-0.0128142857142857,-27.2,0.9414,5.073,299.664,0,0,0,0,0,0,0,-0.5579,0.60135,-0.5929,-20.5958571428571,-1.45571428571429,21.3665714285714,0.088,0.0592714285714286,-0.694257142857143,0.735042857142857,1.838,3.57142857142857,-3.11842857142857,492.553,0,1,1,0
24-May-2018 14:20:10,46.5,0.957985714285714,0.100442857142857,-0.0128142857142857,-27.2,0.9414,5.073,299.664,0,0,0,0,0,0,0,-0.5579,0.60135,-0.5929,-20.5958571428571,-1.45571428571429,21.3665714285714,0.088,0.0592714285714286,-0.694257142857143,0.735042857142857,1.838,3.57142857142857,-3.11842857142857,492.553,0,1,1,0
24-May-2018 14:20:11,120.6,0.950714285714286,0.0237142857142857,-0.133842857142857,7.30475,-8.0885,-1.77225,261.624,0,0,0,0,0,0,0,-0.208566666666667,0.872533333333333,-0.550283333333333,-1.18085714285714,1.533,8.37914285714286,0.088,0.05724,-0.65132,0.7687,-1.4735,3.23166666666667,3.40466666666667,486.632,0,1,1,0
24-May-2018 14:20:11,120.6,0.950714285714286,0.0237142857142857,-0.133842857142857,7.30475,-8.0885,-1.77225,261.624,0,0,0,0,0,0,0,-0.208566666666667,0.872533333333333,-0.550283333333333,-1.18085714285714,1.533,8.37914285714286,0.088,0.05724,-0.65132,0.7687,-1.4735,3.23166666666667,3.40466666666667,486.632,0,1,1,0
24-May-2018 14:20:11,120.6,0.950714285714286,0.0237142857142857,-0.133842857142857,7.30475,-8.0885,-1.77225,261.624,0,0,0,0,0,0,0,-0.208566666666667,0.872533333333333,-0.550283333333333,-1.18085714285714,1.533,8.37914285714286,0.088,0.05724,-0.65132,0.7687,-1.4735,3.23166666666667,3.40466666666667,486.632,0,1,1,0
24-May-2018 14:20:11,120.6,0.950714285714286,0.0237142857142857,-0.133842857142857,7.30475,-8.0885,-1.77225,261.624,0,0,0,0,0,0,0,-0.208566666666667,0.872533333333333,-0.550283333333333,-1.18085714285714,1.533,8.37914285714286,0.088,0.05724,-0.65132,0.7687,-1.4735,3.23166666666667,3.40466666666667,486.632,0,1,1,0
24-May-2018 14:20:12,103.454545454545,0.938177777777778,0.0940222222222222,-0.175844444444444,0.1175,-0.447,0.093,261.624,0,0,0,0,0,0,0,-0.160342857142857,0.792271428571429,-0.482057142857143,-1.4096,-0.9124,-0.0476,0.088,0.032,-0.686925,0.78375,-25.190625,8.757625,9.839875,484.887,0,1,1,0
24-May-2018 14:20:12,103.454545454545,0.938177777777778,0.0940222222222222,-0.175844444444444,0.1175,-0.447,0.093,261.624,0,0,0,0,0,0,0,-0.160342857142857,0.792271428571429,-0.482057142857143,-1.4096,-0.9124,-0.0476,0.088,0.032,-0.686925,0.78375,-25.190625,8.757625,9.839875,484.887,0,1,1,0
24-May-2018 14:20:12,103.454545454545,0.938177777777778,0.0940222222222222,-0.175844444444444,0.1175,-0.447,0.093,261.624,0,0,0,0,0,0,0,-0.160342857142857,0.792271428571429,-0.482057142857143,-1.4096,-0.9124,-0.0476,0.088,0.032,-0.686925,0.78375,-25.190625,8.757625,9.839875,484.887,0,1,1,0
24-May-2018 14:20:12,103.454545454545,0.938177777777778,0.0940222222222222,-0.175844444444444,0.1175,-0.447,0.093,261.624,0,0,0,0,0,0,0,-0.160342857142857,0.792271428571429,-0.482057142857143,-1.4096,-0.9124,-0.0476,0.088,0.032,-0.686925,0.78375,-25.190625,8.757625,9.839875,484.887,0,1,1,0
24-May-2018 14:20:13,221.7,0.9343,0.0940666666666667,-0.190033333333333,0.644888888888889,-0.418111111111111,0.461,261.624,0,0,0,0,0,0,0,-0.161266666666667,0.81265,-0.486866666666667,-0.374,-0.972,-0.0828,0.088,-0.25735,-0.3356,0.902,49.746,9.40033333333333,9.55266666666667,483.5732,0,1,1,0
24-May-2018 14:20:13,221.7,0.9343,0.0940666666666667,-0.190033333333333,0.644888888888889,-0.418111111111111,0.461,261.624,0,0,0,0,0,0,0,-0.161266666666667,0.81265,-0.486866666666667,-0.374,-0.972,-0.0828,0.088,-0.25735,-0.3356,0.902,49.746,9.40033333333333,9.55266666666667,483.5732,0,1,1,0
24-May-2018 14:20:13,221.7,0.9343,0.0940666666666667,-0.190033333333333,0.644888888888889,-0.418111111111111,0.461,0,0,0,0,0,0,0,0,-0.161266666666667,0.81265,-0.486866666666667,-0.374,-0.972,-0.0828,0.088,-0.25735,-0.3356,0.902,49.746,9.40033333333333,9.55266666666667,483.5732,0,1,1,0
24-May-2018 14:20:13,221.7,0.9343,0.0940666666666667,-0.190033333333333,0.644888888888889,-0.418111111111111,0.461,0,0,0,0,0,0,0,0,-0.161266666666667,0.81265,-0.486866666666667,-0.374,-0.972,-0.0828,0.088,-0.25735,-0.3356,0.902,49.746,9.40033333333333,9.55266666666667,483.5732,0,1,1,0
24-May-2018 14:20:14,141.9,0.93336,0.09588,-0.19388,1.58566666666667,0.396666666666667,0.0215,157.042142857143,0,0,0,0,0,0,0,-0.159785714285714,0.811028571428571,-0.486985714285714,-0.555,-1.02166666666667,-0.25,0.088,-0.4844625,-0.17725,0.71235,4.65157142857143,46.7507142857143,16.3152857142857,527.477,0,1,1,0
24-May-2018 14:20:14,141.9,0.93336,0.09588,-0.19388,1.58566666666667,0.396666666666667,0.0215,157.042142857143,0,0,0,0,0,0,0,-0.159785714285714,0.811028571428571,-0.486985714285714,-0.555,-1.02166666666667,-0.25,0.088,-0.4844625,-0.17725,0.71235,4.65157142857143,46.7507142857143,16.3152857142857,527.477,0,1,1,0
24-May-2018 14:20:14,141.9,0.93336,0.09588,-0.19388,1.58566666666667,0.396666666666667,0.0215,157.042142857143,0,0,0,0,0,0,0,-0.159785714285714,0.811028571428571,-0.486985714285714,-0.555,-1.02166666666667,-0.25,0.088,-0.4844625,-0.17725,0.71235,4.65157142857143,46.7507142857143,16.3152857142857,527.477,0,1,1,0
24-May-2018 14:20:14,141.9,0.93336,0.09588,-0.19388,1.58566666666667,0.396666666666667,0.0215,157.042142857143,0,0,0,0,0,0,0,-0.159785714285714,0.811028571428571,-0.486985714285714,-0.555,-1.02166666666667,-0.25,0.088,-0.4844625,-0.17725,0.71235,4.65157142857143,46.7507142857143,16.3152857142857,527.477,0,1,1,0
24-May-2018 14:20:15,174.8,0.9373,0.07284,-0.18298,2.791,2.34875,1.43425,157.279428571429,0,0,0,0,0,0,0,-0.164671428571429,0.821428571428571,-0.474971428571429,-2.1715,-1.30666666666667,-0.382666666666667,0.088,-0.96254,0.11828,-0.38254,22.0731666666667,7.01216666666667,7.2865,310.1465,0,1,1,0
24-May-2018 14:20:15,174.8,0.9373,0.07284,-0.18298,2.791,2.34875,1.43425,157.279428571429,0,0,0,0,0,0,0,-0.164671428571429,0.821428571428571,-0.474971428571429,-2.1715,-1.30666666666667,-0.382666666666667,0.088,-0.96254,0.11828,-0.38254,22.0731666666667,7.01216666666667,7.2865,310.1465,0,1,1,0
24-May-2018 14:20:15,174.8,0.9373,0.07284,-0.18298,2.791,2.34875,1.43425,157.279428571429,0,0,0,0,0,0,0,-0.164671428571429,0.821428571428571,-0.474971428571429,-2.1715,-1.30666666666667,-0.382666666666667,0.088,-0.96254,0.11828,-0.38254,22.0731666666667,7.01216666666667,7.2865,310.1465,0,1,1,0
24-May-2018 14:20:15,174.8,0.9373,0.07284,-0.18298,2.791,2.34875,1.43425,157.279428571429,0,0,0,0,0,0,0,-0.164671428571429,0.821428571428571,-0.474971428571429,-2.1715,-1.30666666666667,-0.382666666666667,0.088,-0.96254,0.11828,-0.38254,22.0731666666667,7.01216666666667,7.2865,310.1465,0,1,1,0
24-May-2018 14:20:16,47.5555555555556,0.931816666666667,0.12805,-0.240783333333333,-3.98566666666667,0.380166666666667,-0.555666666666667,176.0568,0,0,0,0,0,0,0,-0.1620875,0.812675,-0.4786875,0.531666666666667,-0.148,-0.0895,0.088,-0.606688888888889,-0.307777777777778,0.439066666666667,61.49375,-39.89325,-20.3125,387.408,0,1,1,0
24-May-2018 14:20:16,47.5555555555556,0.931816666666667,0.12805,-0.240783333333333,-3.98566666666667,0.380166666666667,-0.555666666666667,176.0568,0,0,0,0,0,0,0,-0.1620875,0.812675,-0.4786875,0.531666666666667,-0.148,-0.0895,0.088,-0.606688888888889,-0.307777777777778,0.439066666666667,61.49375,-39.89325,-20.3125,387.408,0,1,1,0
24-May-2018 14:20:16,47.5555555555556,0.931816666666667,0.12805,-0.240783333333333,-3.98566666666667,0.380166666666667,-0.555666666666667,176.0568,0,0,0,0,0,0,0,-0.1620875,0.812675,-0.4786875,0.531666666666667,-0.148,-0.0895,0.088,-0.606688888888889,-0.307777777777778,0.439066666666667,61.49375,-39.89325,-20.3125,387.408,0,1,1,0
24-May-2018 14:20:16,47.5555555555556,0.931816666666667,0.12805,-0.240783333333333,-3.98566666666667,0.380166666666667,-0.555666666666667,176.0568,0,0,0,0,0,0,0,-0.1620875,0.812675,-0.4786875,0.531666666666667,-0.148,-0.0895,0.088,-0.606688888888889,-0.307777777777778,0.439066666666667,61.49375,-39.89325,-20.3125,387.408,0,1,1,0
24-May-2018 14:20:17,91.2,0.915085714285714,0.239957142857143,-0.0368285714285714,-63.6571428571429,15.0152857142857,3.71228571428571,119.575666666667,0,0,0,0,0,0,0,-0.158742857142857,0.813457142857143,-0.482828571428571,-0.656,-0.984,-0.0954,0.088,-0.00286666666666666,-0.1541,0.846466666666667,2.291,-17.8222857142857,-3.44085714285714,941.0148,0,1,1,0
24-May-2018 14:20:17,91.2,0.915085714285714,0.239957142857143,-0.0368285714285714,-63.6571428571429,15.0152857142857,3.71228571428571,119.575666666667,0,0,0,0,0,0,0,-0.158742857142857,0.813457142857143,-0.482828571428571,-0.656,-0.984,-0.0954,0.088,-0.00286666666666666,-0.1541,0.846466666666667,2.291,-17.8222857142857,-3.44085714285714,941.0148,0,1,1,0
24-May-2018 14:20:17,91.2,0.915085714285714,0.239957142857143,-0.0368285714285714,-63.6571428571429,15.0152857142857,3.71228571428571,119.575666666667,0,0,0,0,0,0,0,-0.158742857142857,0.813457142857143,-0.482828571428571,-0.656,-0.984,-0.0954,0.088,-0.00286666666666666,-0.1541,0.846466666666667,2.291,-17.8222857142857,-3.44085714285714,941.0148,0,1,1,0
24-May-2018 14:20:17,91.2,0.915085714285714,0.239957142857143,-0.0368285714285714,-63.6571428571429,15.0152857142857,3.71228571428571,119.575666666667,0,0,0,0,0,0,0,-0.158742857142857,0.813457142857143,-0.482828571428571,-0.656,-0.984,-0.0954,0.088,-0.00286666666666666,-0.1541,0.846466666666667,2.291,-17.8222857142857,-3.44085714285714,941.0148,0,1,1,0
24-May-2018 14:20:18,43.2222222222222,0.619271428571429,-0.0522714285714286,0.702485714285714,-56.2428571428571,47.6971428571429,20.1217142857143,106.76775,0,0,0,0,0,0,0,-0.156111111111111,0.813344444444444,-0.485722222222222,-0.5,-0.895,-0.15,0.088,0.0255,-0.9070125,0.8893,19.8605714285714,-0.54,2.16014285714286,748.586,0,1,1,0
24-May-2018 14:20:18,43.2222222222222,0.619271428571429,-0.0522714285714286,0.702485714285714,-56.2428571428571,47.6971428571429,20.1217142857143,106.76775,0,0,0,0,0,0,0,-0.156111111111111,0.813344444444444,-0.485722222222222,-0.5,-0.895,-0.15,0.088,0.0255,-0.9070125,0.8893,19.8605714285714,-0.54,2.16014285714286,748.586,0,1,1,0
24-May-2018 14:20:18,43.2222222222222,0.619271428571429,-0.0522714285714286,0.702485714285714,-56.2428571428571,47.6971428571429,20.1217142857143,106.76775,0,0,0,0,0,0,0,-0.156111111111111,0.813344444444444,-0.485722222222222,-0.5,-0.895,-0.15,0.088,0.0255,-0.9070125,0.8893,19.8605714285714,-0.54,2.16014285714286,748.586,0,1,1,0
24-May-2018 14:20:18,43.2222222222222,0.619271428571429,-0.0522714285714286,0.702485714285714,-56.2428571428571,47.6971428571429,20.1217142857143,106.76775,0,0,0,0,0,0,0,-0.156111111111111,0.813344444444444,-0.485722222222222,-0.5,-0.895,-0.15,0.088,0.0255,-0.9070125,0.8893,19.8605714285714,-0.54,2.16014285714286,748.586,0,1,1,0
24-May-2018 14:20:19,90.6,-0.0721714285714286,-0.382342857142857,0.916128571428572,9.2966,6.358,-1.564,741.055666666667,0,0,0,0,0,0,0,-0.157257142857143,0.813585714285714,-0.484185714285714,-0.51,-0.882857142857143,-0.231428571428571,0.088,-0.0179166666666667,-0.629816666666667,0.785216666666667,0.479285714285714,0.540285714285714,-0.191714285714286,749.243333333333,0,1,1,0
24-May-2018 14:20:19,90.6,-0.0721714285714286,-0.382342857142857,0.916128571428572,9.2966,6.358,-1.564,741.055666666667,0,0,0,0,0,0,0,-0.157257142857143,0.813585714285714,-0.484185714285714,-0.51,-0.882857142857143,-0.231428571428571,0.088,-0.0179166666666667,-0.629816666666667,0.785216666666667,0.479285714285714,0.540285714285714,-0.191714285714286,749.243333333333,0,1,1,0
24-May-2018 14:20:19,90.6,-0.0721714285714286,-0.382342857142857,0.916128571428572,9.2966,6.358,-1.564,741.055666666667,0,0,0,0,0,0,0,-0.157257142857143,0.813585714285714,-0.484185714285714,-0.51,-0.882857142857143,-0.231428571428571,0.088,-0.0179166666666667,-0.629816666666667,0.785216666666667,0.479285714285714,0.540285714285714,-0.191714285714286,749.243333333333,0,1,1,0
24-May-2018 14:20:19,90.6,-0.0721714285714286,-0.382342857142857,0.916128571428572,9.2966,6.358,-1.564,741.055666666667,0,0,0,0,0,0,0,-0.157257142857143,0.813585714285714,-0.484185714285714,-0.51,-0.882857142857143,-0.231428571428571,0.088,-0.0179166666666667,-0.629816666666667,0.785216666666667,0.479285714285714,0.540285714285714,-0.191714285714286,749.243333333333,0,1,1,0
24-May-2018 14:20:20,50.1111111111111,-0.0415,-0.325471428571429,1.02094285714286,0.224625000000001,-6.333875,-5.311875,853.506333333333,0,0,0,0,0,0,0,-0.15818,0.81528,-0.48464,-0.425,-0.88,-0.195,0.088,-0.0153111111111111,-0.633877777777778,0.783211111111111,1.122,0.5978,-0.4268,750.059666666667,0,1,1,0
24-May-2018 14:20:20,50.1111111111111,-0.0415,-0.325471428571429,1.02094285714286,0.224625000000001,-6.333875,-5.311875,853.506333333333,0,0,0,0,0,0,0,-0.15818,0.81528,-0.48464,-0.425,-0.88,-0.195,0.088,-0.0153111111111111,-0.633877777777778,0.783211111111111,1.122,0.5978,-0.4268,750.059666666667,0,1,1,0
24-May-2018 14:20:20,50.1111111111111,-0.0415,-0.325471428571429,1.02094285714286,0.224625000000001,-6.333875,-5.311875,853.506333333333,0,0,0,0,0,0,0,-0.15818,0.81528,-0.48464,-0.425,-0.88,-0.195,0.088,-0.0153111111111111,-0.633877777777778,0.783211111111111,1.122,0.5978,-0.4268,750.059666666667,0,1,1,0
24-May-2018 14:20:20,50.1111111111111,-0.0415,-0.325471428571429,1.02094285714286,0.224625000000001,-6.333875,-5.311875,853.506333333333,0,0,0,0,0,0,0,-0.15818,0.81528,-0.48464,-0.425,-0.88,-0.195,0.088,-0.0153111111111111,-0.633877777777778,0.783211111111111,1.122,0.5978,-0.4268,750.059666666667,0,1,1,0
24-May-2018 14:20:21,166.5,-0.0181571428571429,-0.301771428571429,0.984685714285714,1.43742857142857,-0.432285714285714,0.418285714285714,880.553,0,0,0,0,0,0,0,-0.155916666666667,0.8128,-0.485833333333333,-0.60375,-0.91,-0.1425,0.088,-0.01274,-0.63538,0.7835,0.233666666666667,0.4575,0.183,750.3214,0,1,1,0
24-May-2018 14:20:21,166.5,-0.0181571428571429,-0.301771428571429,0.984685714285714,1.43742857142857,-0.432285714285714,0.418285714285714,880.553,0,0,0,0,0,0,0,-0.155916666666667,0.8128,-0.485833333333333,-0.60375,-0.91,-0.1425,0.088,-0.01274,-0.63538,0.7835,0.233666666666667,0.4575,0.183,750.3214,0,1,1,0
24-May-2018 14:20:21,166.5,-0.0181571428571429,-0.301771428571429,0.984685714285714,1.43742857142857,-0.432285714285714,0.418285714285714,880.553,0,0,0,0,0,0,0,-0.155916666666667,0.8128,-0.485833333333333,-0.60375,-0.91,-0.1425,0.088,-0.01274,-0.63538,0.7835,0.233666666666667,0.4575,0.183,750.3214,0,1,1,0
24-May-2018 14:20:21,166.5,-0.0181571428571429,-0.301771428571429,0.984685714285714,1.43742857142857,-0.432285714285714,0.418285714285714,880.553,0,0,0,0,0,0,0,-0.155916666666667,0.8128,-0.485833333333333,-0.60375,-0.91,-0.1425,0.088,-0.01274,-0.63538,0.7835,0.233666666666667,0.4575,0.183,750.3214,0,1,1,0
24-May-2018 14:20:22,123.25,-0.0181777777777778,-0.294311111111111,0.984233333333333,0.382375,0.6955,0.366,880.553,0,0,0,0,0,0,0,-0.156383333333333,0.81205,-0.486233333333333,-0.496,-0.972,-0.144,0.088,-0.0225666666666667,-0.603155555555556,0.806933333333333,6.189,0.863666666666667,1.13833333333333,760.2595,0,1,1,0
24-May-2018 14:20:22,123.25,-0.0181777777777778,-0.294311111111111,0.984233333333333,0.382375,0.6955,0.366,880.553,0,0,0,0,0,0,0,-0.156383333333333,0.81205,-0.486233333333333,-0.496,-0.972,-0.144,0.088,-0.0225666666666667,-0.603155555555556,0.806933333333333,6.189,0.863666666666667,1.13833333333333,760.2595,0,1,1,0
24-May-2018 14:20:22,123.25,-0.0181777777777778,-0.294311111111111,0.984233333333333,0.382375,0.6955,0.366,880.553,0,0,0,0,0,0,0,-0.156383333333333,0.81205,-0.486233333333333,-0.496,-0.972,-0.144,0.088,-0.0225666666666667,-0.603155555555556,0.806933333333333,6.189,0.863666666666667,1.13833333333333,760.2595,0,1,1,0
24-May-2018 14:20:22,123.25,-0.0181777777777778,-0.294311111111111,0.984233333333333,0.382375,0.6955,0.366,880.553,0,0,0,0,0,0,0,-0.156383333333333,0.81205,-0.486233333333333,-0.496,-0.972,-0.144,0.088,-0.0225666666666667,-0.603155555555556,0.806933333333333,6.189,0.863666666666667,1.13833333333333,760.2595,0,1,1,0
24-May-2018 14:20:23,124.666666666667,-0.0359875,-0.2995875,0.9820125,0.41175,0.641,0.388875,880.553,0,0,0,0,0,0,0,-0.1588,0.8127,-0.48355,-0.712857142857143,-0.92,-0.308571428571429,0.088,-0.0214285714285714,-0.597542857142857,0.812028571428571,-1.5486,0.3658,-0.7318,773.7555,0,1,1,0
24-May-2018 14:20:23,124.666666666667,-0.0359875,-0.2995875,0.9820125,0.41175,0.641,0.388875,880.553,0,0,0,0,0,0,0,-0.1588,0.8127,-0.48355,-0.712857142857143,-0.92,-0.308571428571429,0.088,-0.0214285714285714,-0.597542857142857,0.812028571428571,-1.5486,0.3658,-0.7318,773.7555,0,1,1,0
24-May-2018 14:20:23,124.666666666667,-0.0359875,-0.2995875,0.9820125,0.41175,0.641,0.388875,0,0,0,0,0,0,0,0,-0.1588,0.8127,-0.48355,-0.712857142857143,-0.92,-0.308571428571429,0.088,-0.0214285714285714,-0.597542857142857,0.812028571428571,-1.5486,0.3658,-0.7318,773.7555,0,1,1,0
24-May-2018 14:20:23,124.666666666667,-0.0359875,-0.2995875,0.9820125,0.41175,0.641,0.388875,0,0,0,0,0,0,0,0,-0.1588,0.8127,-0.48355,-0.712857142857143,-0.92,-0.308571428571429,0.088,-0.0214285714285714,-0.597542857142857,0.812028571428571,-1.5486,0.3658,-0.7318,773.7555,0,1,1,0
24-May-2018 14:20:24,200,-0.03785,-0.292775,0.986275,0.782666666666667,0.521166666666667,0.316,885.1475,0,0,0,0,0,0,0,-0.1563,0.81152,-0.48522,-0.642,-0.972,-0.168,0.088,-0.0164333333333333,-0.6161,0.7989,0.418142857142857,0.514142857142857,-0.0871428571428572,762.249,0,1,1,0
24-May-2018 14:20:24,200,-0.03785,-0.292775,0.986275,0.782666666666667,0.521166666666667,0.316,885.1475,0,0,0,0,0,0,0,-0.1563,0.81152,-0.48522,-0.642,-0.972,-0.168,0.088,-0.0164333333333333,-0.6161,0.7989,0.418142857142857,0.514142857142857,-0.0871428571428572,762.249,0,1,1,0
24-May-2018 14:20:24,200,-0.03785,-0.292775,0.986275,0.782666666666667,0.521166666666667,0.316,885.1475,0,0,0,0,0,0,0,-0.1563,0.81152,-0.48522,-0.642,-0.972,-0.168,0.088,-0.0164333333333333,-0.6161,0.7989,0.418142857142857,0.514142857142857,-0.0871428571428572,762.249,0,1,1,0
24-May-2018 14:20:24,200,-0.03785,-0.292775,0.986275,0.782666666666667,0.521166666666667,0.316,885.1475,0,0,0,0,0,0,0,-0.1563,0.81152,-0.48522,-0.642,-0.972,-0.168,0.088,-0.0164333333333333,-0.6161,0.7989,0.418142857142857,0.514142857142857,-0.0871428571428572,762.249,0,1,1,0
24-May-2018 14:20:25,80.125,-0.0314285714285714,-0.294228571428571,0.985057142857143,1.366,-0.8006,0.7074,883.788666666667,0,0,0,0,0,0,0,-0.156125,0.81395,-0.485625,-0.565,-0.94,-0.22,0.088,-0.0152,-0.618183333333333,0.798483333333333,0.5366,0.5612,-0.4758,761.102,0,1,1,0
24-May-2018 14:20:25,80.125,-0.0314285714285714,-0.294228571428571,0.985057142857143,1.366,-0.8006,0.7074,883.788666666667,0,0,0,0,0,0,0,-0.156125,0.81395,-0.485625,-0.565,-0.94,-0.22,0.088,-0.0152,-0.618183333333333,0.798483333333333,0.5366,0.5612,-0.4758,761.102,0,1,1,0
24-May-2018 14:20:25,80.125,-0.0314285714285714,-0.294228571428571,0.985057142857143,1.366,-0.8006,0.7074,883.788666666667,0,0,0,0,0,0,0,-0.156125,0.81395,-0.485625,-0.565,-0.94,-0.22,0.088,-0.0152,-0.618183333333333,0.798483333333333,0.5366,0.5612,-0.4758,761.102,0,1,1,0
24-May-2018 14:20:25,80.125,-0.0314285714285714,-0.294228571428571,0.985057142857143,1.366,-0.8006,0.7074,883.788666666667,0,0,0,0,0,0,0,-0.156125,0.81395,-0.485625,-0.565,-0.94,-0.22,0.088,-0.0152,-0.618183333333333,0.798483333333333,0.5366,0.5612,-0.4758,761.102,0,1,1,0
24-May-2018 14:20:26,70.1,-0.00965,-0.280525,0.9895,0.701833333333333,-0.231,0.3355,891.482,0,0,0,0,0,0,0,-0.1561,0.813216666666667,-0.48615,-0.56,-0.875714285714286,-0.162714285714286,0.088,-0.0132666666666667,-0.620466666666667,0.796433333333333,-0.33525,0.297375,0.00762500000000001,761.606,0,1,1,0
24-May-2018 14:20:26,70.1,-0.00965,-0.280525,0.9895,0.701833333333333,-0.231,0.3355,891.482,0,0,0,0,0,0,0,-0.1561,0.813216666666667,-0.48615,-0.56,-0.875714285714286,-0.162714285714286,0.088,-0.0132666666666667,-0.620466666666667,0.796433333333333,-0.33525,0.297375,0.00762500000000001,761.606,0,1,1,0
24-May-2018 14:20:26,70.1,-0.00965,-0.280525,0.9895,0.701833333333333,-0.231,0.3355,891.482,0,0,0,0,0,0,0,-0.1561,0.813216666666667,-0.48615,-0.56,-0.875714285714286,-0.162714285714286,0.088,-0.0132666666666667,-0.620466666666667,0.796433333333333,-0.33525,0.297375,0.00762500000000001,761.606,0,1,1,0
24-May-2018 14:20:26,70.1,-0.00965,-0.280525,0.9895,0.701833333333333,-0.231,0.3355,891.482,0,0,0,0,0,0,0,-0.1561,0.813216666666667,-0.48615,-0.56,-0.875714285714286,-0.162714285714286,0.088,-0.0132666666666667,-0.620466666666667,0.796433333333333,-0.33525,0.297375,0.00762500000000001,761.606,0,1,1,0
24-May-2018 14:20:27,11.9,-0.020075,-0.2878375,0.9886375,0.1594,1.0976,0.305,892.862333333333,0,0,0,0,0,0,0,-0.1568,0.81365,-0.484666666666667,-0.510857142857143,-0.848571428571429,-0.171428571428571,0.088,-0.0153833333333333,-0.620416666666667,0.79365,0.427,0.447333333333333,-0.183,758.4,0,1,1,0
24-May-2018 14:20:27,11.9,-0.020075,-0.2878375,0.9886375,0.1594,1.0976,0.305,892.862333333333,0,0,0,0,0,0,0,-0.1568,0.81365,-0.484666666666667,-0.510857142857143,-0.848571428571429,-0.171428571428571,0.088,-0.0153833333333333,-0.620416666666667,0.79365,0.427,0.447333333333333,-0.183,758.4,0,1,1,0
24-May-2018 14:20:27,11.9,-0.020075,-0.2878375,0.9886375,0.1594,1.0976,0.305,892.862333333333,0,0,0,0,0,0,0,-0.1568,0.81365,-0.484666666666667,-0.510857142857143,-0.848571428571429,-0.171428571428571,0.088,-0.0153833333333333,-0.620416666666667,0.79365,0.427,0.447333333333333,-0.183,758.4,0,1,1,0
24-May-2018 14:20:27,11.9,-0.020075,-0.2878375,0.9886375,0.1594,1.0976,0.305,892.862333333333,0,0,0,0,0,0,0,-0.1568,0.81365,-0.484666666666667,-0.510857142857143,-0.848571428571429,-0.171428571428571,0.088,-0.0153833333333333,-0.620416666666667,0.79365,0.427,0.447333333333333,-0.183,758.4,0,1,1,0
24-May-2018 14:20:28,-3.66666666666667,-0.0447833333333333,-0.2951,0.985483333333333,0.367571428571429,0.411571428571429,0.296571428571429,886.432666666667,0,0,0,0,0,0,0,-0.1564,0.8131,-0.485066666666667,-0.518,-0.85,-0.252,0.088,-0.01538,-0.61682,0.79742,1.34142857142857,0.644857142857143,-0.400857142857143,756.974,0,1,1,0
24-May-2018 14:20:28,-3.66666666666667,-0.0447833333333333,-0.2951,0.985483333333333,0.367571428571429,0.411571428571429,0.296571428571429,886.432666666667,0,0,0,0,0,0,0,-0.1564,0.8131,-0.485066666666667,-0.518,-0.85,-0.252,0.088,-0.01538,-0.61682,0.79742,1.34142857142857,0.644857142857143,-0.400857142857143,756.974,0,1,1,0
24-May-2018 14:20:28,-3.66666666666667,-0.0447833333333333,-0.2951,0.985483333333333,0.367571428571429,0.411571428571429,0.296571428571429,886.432666666667,0,0,0,0,0,0,0,-0.1564,0.8131,-0.485066666666667,-0.518,-0.85,-0.252,0.088,-0.01538,-0.61682,0.79742,1.34142857142857,0.644857142857143,-0.400857142857143,756.974,0,1,1,0
24-May-2018 14:20:28,-3.66666666666667,-0.0447833333333333,-0.2951,0.985483333333333,0.367571428571429,0.411571428571429,0.296571428571429,886.432666666667,0,0,0,0,0,0,0,-0.1564,0.8131,-0.485066666666667,-0.518,-0.85,-0.252,0.088,-0.01538,-0.61682,0.79742,1.34142857142857,0.644857142857143,-0.400857142857143,756.974,0,1,1,0
24-May-2018 14:20:29,18.8,-0.0252714285714286,-0.289157142857143,0.986471428571428,1.35857142857143,-1.119,0.400857142857143,887.004,0,0,0,0,0,0,0,-0.156025,0.813875,-0.4851,-0.481428571428571,-0.848571428571429,-0.0251428571428571,0.088,-0.0139375,-0.6155125,0.7983875,1.07733333333333,0.498166666666667,0.0813333333333333,760.897,0,1,1,0
24-May-2018 14:20:29,18.8,-0.0252714285714286,-0.289157142857143,0.986471428571428,1.35857142857143,-1.119,0.400857142857143,887.004,0,0,0,0,0,0,0,-0.156025,0.813875,-0.4851,-0.481428571428571,-0.848571428571429,-0.0251428571428571,0.088,-0.0139375,-0.6155125,0.7983875,1.07733333333333,0.498166666666667,0.0813333333333333,760.897,0,1,1,0
24-May-2018 14:20:29,18.8,-0.0252714285714286,-0.289157142857143,0.986471428571428,1.35857142857143,-1.119,0.400857142857143,887.004,0,0,0,0,0,0,0,-0.156025,0.813875,-0.4851,-0.481428571428571,-0.848571428571429,-0.0251428571428571,0.088,-0.0139375,-0.6155125,0.7983875,1.07733333333333,0.498166666666667,0.0813333333333333,760.897,0,1,1,0
24-May-2018 14:20:29,18.8,-0.0252714285714286,-0.289157142857143,0.986471428571428,1.35857142857143,-1.119,0.400857142857143,887.004,0,0,0,0,0,0,0,-0.156025,0.813875,-0.4851,-0.481428571428571,-0.848571428571429,-0.0251428571428571,0.088,-0.0139375,-0.6155125,0.7983875,1.07733333333333,0.498166666666667,0.0813333333333333,760.897,0,1,1,0
24-May-2018 14:20:30,80.25,-0.02445,-0.2867,0.9882875,0.0981428571428571,1.51614285714286,0.453142857142857,892.988333333333,0,0,0,0,0,0,0,-0.154833333333333,0.815783333333333,-0.48415,-0.86,-1.13333333333333,-0.1105,0.088,-0.0145,-0.620785714285714,0.794457142857143,-0.0812222222222222,0.399888888888889,-0.210111111111111,759.667,0,1,1,0
24-May-2018 14:20:30,80.25,-0.02445,-0.2867,0.9882875,0.0981428571428571,1.51614285714286,0.453142857142857,892.988333333333,0,0,0,0,0,0,0,-0.154833333333333,0.815783333333333,-0.48415,-0.86,-1.13333333333333,-0.1105,0.088,-0.0145,-0.620785714285714,0.794457142857143,-0.0812222222222222,0.399888888888889,-0.210111111111111,759.667,0,1,1,0
24-May-2018 14:20:30,80.25,-0.02445,-0.2867,0.9882875,0.0981428571428571,1.51614285714286,0.453142857142857,892.988333333333,0,0,0,0,0,0,0,-0.154833333333333,0.815783333333333,-0.48415,-0.86,-1.13333333333333,-0.1105,0.088,-0.0145,-0.620785714285714,0.794457142857143,-0.0812222222222222,0.399888888888889,-0.210111111111111,759.667,0,1,1,0
24-May-2018 14:20:30,80.25,-0.02445,-0.2867,0.9882875,0.0981428571428571,1.51614285714286,0.453142857142857,892.988333333333,0,0,0,0,0,0,0,-0.154833333333333,0.815783333333333,-0.48415,-0.86,-1.13333333333333,-0.1105,0.088,-0.0145,-0.620785714285714,0.794457142857143,-0.0812222222222222,0.399888888888889,-0.210111111111111,759.667,0,1,1,0
24-May-2018 14:20:31,-5.5,-0.05246,-0.29684,0.98208,0.471,0.210857142857143,0.34,886.924333333333,0,0,0,0,0,0,0,-0.15652,0.81608,-0.48238,0.430714285714286,-0.887571428571428,-0.329571428571429,0.088,-0.0133142857142857,-0.623214285714286,0.791557142857143,1.0732,0.6466,-0.1952,756.424,0,1,1,1
24-May-2018 14:20:31,-5.5,-0.05246,-0.29684,0.98208,0.471,0.210857142857143,0.34,886.924333333333,0,0,0,0,0,0,0,-0.15652,0.81608,-0.48238,0.430714285714286,-0.887571428571428,-0.329571428571429,0.088,-0.0133142857142857,-0.623214285714286,0.791557142857143,1.0732,0.6466,-0.1952,756.424,0,1,1,1
24-May-2018 14:20:31,-5.5,-0.05246,-0.29684,0.98208,0.471,0.210857142857143,0.34,886.924333333333,0,0,0,0,0,0,0,-0.15652,0.81608,-0.48238,0.430714285714286,-0.887571428571428,-0.329571428571429,0.088,-0.0133142857142857,-0.623214285714286,0.791557142857143,1.0732,0.6466,-0.1952,756.424,0,1,1,1
24-May-2018 14:20:31,-5.5,-0.05246,-0.29684,0.98208,0.471,0.210857142857143,0.34,886.924333333333,0,0,0,0,0,0,0,-0.15652,0.81608,-0.48238,0.430714285714286,-0.887571428571428,-0.329571428571429,0.088,-0.0133142857142857,-0.623214285714286,0.791557142857143,1.0732,0.6466,-0.1952,756.424,0,1,1,1
24-May-2018 14:20:32,11.1,-0.0310375,-0.29,0.987325,1.41,-1.43625,0.343125,886.924333333333,0,0,0,0,0,0,0,-0.15252,0.81674,-0.48726,-0.507166666666667,-1.11333333333333,0.153,0.088,-0.0112333333333333,-0.62435,0.793733333333333,0.217857142857143,0.339857142857143,0.0174285714285714,757.561333333333,0,1,1,0
24-May-2018 14:20:32,11.1,-0.0310375,-0.29,0.987325,1.41,-1.43625,0.343125,886.924333333333,0,0,0,0,0,0,0,-0.15252,0.81674,-0.48726,-0.507166666666667,-1.11333333333333,0.153,0.088,-0.0112333333333333,-0.62435,0.793733333333333,0.217857142857143,0.339857142857143,0.0174285714285714,757.561333333333,0,1,1,0
24-May-2018 14:20:32,11.1,-0.0310375,-0.29,0.987325,1.41,-1.43625,0.343125,886.924333333333,0,0,0,0,0,0,0,-0.15252,0.81674,-0.48726,-0.507166666666667,-1.11333333333333,0.153,0.088,-0.0112333333333333,-0.62435,0.793733333333333,0.217857142857143,0.339857142857143,0.0174285714285714,757.561333333333,0,1,1,0
24-May-2018 14:20:32,11.1,-0.0310375,-0.29,0.987325,1.41,-1.43625,0.343125,886.924333333333,0,0,0,0,0,0,0,-0.15252,0.81674,-0.48726,-0.507166666666667,-1.11333333333333,0.153,0.088,-0.0112333333333333,-0.62435,0.793733333333333,0.217857142857143,0.339857142857143,0.0174285714285714,757.561333333333,0,1,1,0
24-May-2018 14:20:33,-69.1428571428571,-0.0240222222222222,-0.284355555555556,0.988488888888889,0.557125,1.167875,0.373625,886.924333333333,0,0,0,0,0,0,0,-0.15405,0.815083333333333,-0.485683333333333,-0.5322,-0.91,-0.228,0.088,-0.01355,-0.6244875,0.7926375,0.287714285714286,0.400857142857143,-0.156857142857143,755.485666666667,0,1,1,0
24-May-2018 14:20:33,-69.1428571428571,-0.0240222222222222,-0.284355555555556,0.988488888888889,0.557125,1.167875,0.373625,886.924333333333,0,0,0,0,0,0,0,-0.15405,0.815083333333333,-0.485683333333333,-0.5322,-0.91,-0.228,0.088,-0.01355,-0.6244875,0.7926375,0.287714285714286,0.400857142857143,-0.156857142857143,755.485666666667,0,1,1,0
24-May-2018 14:20:33,-69.1428571428571,-0.0240222222222222,-0.284355555555556,0.988488888888889,0.557125,1.167875,0.373625,0,0,0,0,0,0,0,0,-0.15405,0.815083333333333,-0.485683333333333,-0.5322,-0.91,-0.228,0.088,-0.01355,-0.6244875,0.7926375,0.287714285714286,0.400857142857143,-0.156857142857143,755.485666666667,0,1,1,0
24-May-2018 14:20:33,-69.1428571428571,-0.0240222222222222,-0.284355555555556,0.988488888888889,0.557125,1.167875,0.373625,0,0,0,0,0,0,0,0,-0.15405,0.815083333333333,-0.485683333333333,-0.5322,-0.91,-0.228,0.088,-0.01355,-0.6244875,0.7926375,0.287714285714286,0.400857142857143,-0.156857142857143,755.485666666667,0,1,1,0
24-May-2018 14:20:34,-74.3,-0.04914,-0.29216,0.985,0.410714285714286,0.289285714285714,0.313857142857143,885.111333333333,0,0,0,0,0,0,0,-0.154714285714286,0.812942857142857,-0.484257142857143,-0.573333333333333,-0.87,-0.139833333333333,0.088,-0.01276,-0.62334,0.79108,1.15,0.627428571428571,-0.183,754.393,0,1,1,0
24-May-2018 14:20:34,-74.3,-0.04914,-0.29216,0.985,0.410714285714286,0.289285714285714,0.313857142857143,885.111333333333,0,0,0,0,0,0,0,-0.154714285714286,0.812942857142857,-0.484257142857143,-0.573333333333333,-0.87,-0.139833333333333,0.088,-0.01276,-0.62334,0.79108,1.15,0.627428571428571,-0.183,754.393,0,1,1,0
24-May-2018 14:20:34,-74.3,-0.04914,-0.29216,0.985,0.410714285714286,0.289285714285714,0.313857142857143,885.111333333333,0,0,0,0,0,0,0,-0.154714285714286,0.812942857142857,-0.484257142857143,-0.573333333333333,-0.87,-0.139833333333333,0.088,-0.01276,-0.62334,0.79108,1.15,0.627428571428571,-0.183,754.393,0,1,1,0
24-May-2018 14:20:34,-74.3,-0.04914,-0.29216,0.985,0.410714285714286,0.289285714285714,0.313857142857143,885.111333333333,0,0,0,0,0,0,0,-0.154714285714286,0.812942857142857,-0.484257142857143,-0.573333333333333,-0.87,-0.139833333333333,0.088,-0.01276,-0.62334,0.79108,1.15,0.627428571428571,-0.183,754.393,0,1,1,0
24-May-2018 14:20:35,-130.6,-0.02848,-0.28604,0.9887,1.01633333333333,-1.13333333333333,0.315166666666667,886.160333333333,0,0,0,0,0,0,0,-0.15485,0.812083333333333,-0.484883333333333,-0.4825,-0.91,-0.15,0.088,-0.0138142857142857,-0.627928571428572,0.789342857142857,0.650333333333333,0.477833333333333,0.142333333333333,752.368666666667,0,1,1,0
24-May-2018 14:20:35,-130.6,-0.02848,-0.28604,0.9887,1.01633333333333,-1.13333333333333,0.315166666666667,886.160333333333,0,0,0,0,0,0,0,-0.15485,0.812083333333333,-0.484883333333333,-0.4825,-0.91,-0.15,0.088,-0.0138142857142857,-0.627928571428572,0.789342857142857,0.650333333333333,0.477833333333333,0.142333333333333,752.368666666667,0,1,1,0
24-May-2018 14:20:35,-130.6,-0.02848,-0.28604,0.9887,1.01633333333333,-1.13333333333333,0.315166666666667,886.160333333333,0,0,0,0,0,0,0,-0.15485,0.812083333333333,-0.484883333333333,-0.4825,-0.91,-0.15,0.088,-0.0138142857142857,-0.627928571428572,0.789342857142857,0.650333333333333,0.477833333333333,0.142333333333333,752.368666666667,0,1,1,0
24-May-2018 14:20:35,-130.6,-0.02848,-0.28604,0.9887,1.01633333333333,-1.13333333333333,0.315166666666667,886.160333333333,0,0,0,0,0,0,0,-0.15485,0.812083333333333,-0.484883333333333,-0.4825,-0.91,-0.15,0.088,-0.0138142857142857,-0.627928571428572,0.789342857142857,0.650333333333333,0.477833333333333,0.142333333333333,752.368666666667,0,1,1,0
24-May-2018 14:20:36,-22.4,-0.0200666666666667,-0.283,0.990266666666667,0.591333333333333,1.99166666666667,0.488333333333333,892.067,0,0,0,0,0,0,0,-0.153966666666667,0.811166666666667,-0.486833333333333,-0.545,-0.85,-0.36,0.088,-0.01365,-0.6265,0.7897,1.5122,0.6466,-0.2318,751.323,0,1,1,0
24-May-2018 14:20:36,-22.4,-0.0200666666666667,-0.283,0.990266666666667,0.591333333333333,1.99166666666667,0.488333333333333,892.067,0,0,0,0,0,0,0,-0.153966666666667,0.811166666666667,-0.486833333333333,-0.545,-0.85,-0.36,0.088,-0.01365,-0.6265,0.7897,1.5122,0.6466,-0.2318,751.323,0,1,1,0
24-May-2018 14:20:36,-22.4,-0.0200666666666667,-0.283,0.990266666666667,0.591333333333333,1.99166666666667,0.488333333333333,892.067,0,0,0,0,0,0,0,-0.153966666666667,0.811166666666667,-0.486833333333333,-0.545,-0.85,-0.36,0.088,-0.01365,-0.6265,0.7897,1.5122,0.6466,-0.2318,751.323,0,1,1,0
24-May-2018 14:20:36,-22.4,-0.0200666666666667,-0.283,0.990266666666667,0.591333333333333,1.99166666666667,0.488333333333333,892.067,0,0,0,0,0,0,0,-0.153966666666667,0.811166666666667,-0.486833333333333,-0.545,-0.85,-0.36,0.088,-0.01365,-0.6265,0.7897,1.5122,0.6466,-0.2318,751.323,0,1,1,0
24-May-2018 14:20:37,51.8,-0.0398666666666667,-0.285233333333333,0.9877,0.0005,1.189,0.2135,892.009666666667,0,0,0,0,0,0,0,-0.154266666666667,0.813566666666667,-0.485033333333333,-0.6975,-0.835,-0.3,0.088,-0.0132,-0.6241,0.79246,0.54875,0.47275,-0.488,751.323,1,1,1,0
24-May-2018 14:20:37,51.8,-0.0398666666666667,-0.285233333333333,0.9877,0.0005,1.189,0.2135,892.009666666667,0,0,0,0,0,0,0,-0.154266666666667,0.813566666666667,-0.485033333333333,-0.6975,-0.835,-0.3,0.088,-0.0132,-0.6241,0.79246,0.54875,0.47275,-0.488,751.323,1,1,1,0
24-May-2018 14:20:37,51.8,-0.0398666666666667,-0.285233333333333,0.9877,0.0005,1.189,0.2135,892.009666666667,0,0,0,0,0,0,0,-0.154266666666667,0.813566666666667,-0.485033333333333,-0.6975,-0.835,-0.3,0.088,-0.0132,-0.6241,0.79246,0.54875,0.47275,-0.488,751.323,1,1,1,0
24-May-2018 14:20:37,51.8,-0.0398666666666667,-0.285233333333333,0.9877,0.0005,1.189,0.2135,892.009666666667,0,0,0,0,0,0,0,-0.154266666666667,0.813566666666667,-0.485033333333333,-0.6975,-0.835,-0.3,0.088,-0.0132,-0.6241,0.79246,0.54875,0.47275,-0.488,0,1,1,1,0
24-May-2018 14:20:38,-235.9,-0.043725,-0.284825,0.988875,1.03666666666667,-1.56,0.305,885.902,0,0,0,0,0,0,0,-0.154266666666667,0.814,-0.485216666666667,-0.545,-0.85,-0.18,0.088,-0.0110333333333333,-0.627166666666667,0.7922,0.32,0.427,-0.3965,755.273,0,1,1,0
24-May-2018 14:20:38,-235.9,-0.043725,-0.284825,0.988875,1.03666666666667,-1.56,0.305,885.902,0,0,0,0,0,0,0,-0.154266666666667,0.814,-0.485216666666667,-0.545,-0.85,-0.18,0.088,-0.0110333333333333,-0.627166666666667,0.7922,0.32,0.427,-0.3965,755.273,0,1,1,0
24-May-2018 14:20:38,-235.9,-0.043725,-0.284825,0.988875,1.03666666666667,-1.56,0.305,885.902,0,0,0,0,0,0,0,-0.154266666666667,0.814,-0.485216666666667,-0.545,-0.85,-0.18,0.088,-0.0110333333333333,-0.627166666666667,0.7922,0.32,0.427,-0.3965,755.273,0,1,1,0
24-May-2018 14:20:38,-235.9,-0.043725,-0.284825,0.988875,1.03666666666667,-1.56,0.305,885.902,0,0,0,0,0,0,0,-0.154266666666667,0.814,-0.485216666666667,-0.545,-0.85,-0.18,0.088,-0.0110333333333333,-0.627166666666667,0.7922,0.32,0.427,-0.3965,755.273,0,1,1,0
24-May-2018 14:20:39,-104.4,-0.0278333333333333,-0.2823,0.9878,1.07766666666667,-1.05333333333333,0.427,889.27,0,0,0,0,0,0,0,-0.1544,0.81065,-0.4833,-0.575,-0.79,-0.21,0.088,-0.01535,-0.6174,0.79385,-0.3965,0.3965,0.2135,755.201,0,1,1,0
24-May-2018 14:20:39,-104.4,-0.0278333333333333,-0.2823,0.9878,1.07766666666667,-1.05333333333333,0.427,889.27,0,0,0,0,0,0,0,-0.1544,0.81065,-0.4833,-0.575,-0.79,-0.21,0.088,-0.01535,-0.6174,0.79385,-0.3965,0.3965,0.2135,755.201,0,1,1,0
24-May-2018 14:20:39,-104.4,-0.0278333333333333,-0.2823,0.9878,1.07766666666667,-1.05333333333333,0.427,889.27,0,0,0,0,0,0,0,-0.1544,0.81065,-0.4833,-0.575,-0.79,-0.21,0.088,-0.01535,-0.6174,0.79385,-0.3965,0.3965,0.2135,755.201,0,1,1,0
24-May-2018 14:20:39,-104.4,-0.0278333333333333,-0.2823,0.9878,1.07766666666667,-1.05333333333333,0.427,889.27,0,0,0,0,0,0,0,-0.1544,0.81065,-0.4833,-0.575,-0.79,-0.21,0.088,-0.01535,-0.6174,0.79385,-0.3965,0.3965,0.2135,755.201,0,1,1,0
24-May-2018 14:20:40,49.3,-0.0216,-0.281175,0.9921,-0.0386666666666667,1.565,0.203333333333333,893.0975,0,0,0,0,0,0,0,-0.1545,0.8129,-0.486666666666667,-0.532,-0.898,-0.156,0.088,-0.0142,-0.6248,0.7968,-0.1344,0.4636,0.4758,754.913,0,1,1,0
24-May-2018 14:20:40,49.3,-0.0216,-0.281175,0.9921,-0.0386666666666667,1.565,0.203333333333333,893.0975,0,0,0,0,0,0,0,-0.1545,0.8129,-0.486666666666667,-0.532,-0.898,-0.156,0.088,-0.0142,-0.6248,0.7968,-0.1344,0.4636,0.4758,754.913,0,1,1,0
24-May-2018 14:20:40,49.3,-0.0216,-0.281175,0.9921,-0.0386666666666667,1.565,0.203333333333333,893.0975,0,0,0,0,0,0,0,-0.1545,0.8129,-0.486666666666667,-0.532,-0.898,-0.156,0.088,-0.0142,-0.6248,0.7968,-0.1344,0.4636,0.4758,754.913,0,1,1,0
24-May-2018 14:20:40,49.3,-0.0216,-0.281175,0.9921,-0.0386666666666667,1.565,0.203333333333333,893.0975,0,0,0,0,0,0,0,-0.1545,0.8129,-0.486666666666667,-0.532,-0.898,-0.156,0.088,-0.0142,-0.6248,0.7968,-0.1344,0.4636,0.4758,754.913,0,1,1,0
24-May-2018 14:20:41,101.8,-0.0416,-0.285533333333333,0.988266666666667,-0.16325,1.81425,0.366,892.494,0,0,0,0,0,0,0,-0.154225,0.813075,-0.486025,-0.61,-1.125,-0.21,0.088,-0.0135,-0.642233333333333,0.783833333333333,0.6095,0.4575,-0.427,754.913,0,1,1,0
24-May-2018 14:20:41,101.8,-0.0416,-0.285533333333333,0.988266666666667,-0.16325,1.81425,0.366,892.494,0,0,0,0,0,0,0,-0.154225,0.813075,-0.486025,-0.61,-1.125,-0.21,0.088,-0.0135,-0.642233333333333,0.783833333333333,0.6095,0.4575,-0.427,754.913,0,1,1,0
24-May-2018 14:20:41,101.8,-0.0416,-0.285533333333333,0.988266666666667,-0.16325,1.81425,0.366,892.494,0,0,0,0,0,0,0,-0.154225,0.813075,-0.486025,-0.61,-1.125,-0.21,0.088,-0.0135,-0.642233333333333,0.783833333333333,0.6095,0.4575,-0.427,754.913,0,1,1,0
24-May-2018 14:20:41,101.8,-0.0416,-0.285533333333333,0.988266666666667,-0.16325,1.81425,0.366,892.494,0,0,0,0,0,0,0,-0.154225,0.813075,-0.486025,-0.61,-1.125,-0.21,0.088,-0.0135,-0.642233333333333,0.783833333333333,0.6095,0.4575,-0.427,0,0,1,1,0
24-May-2018 14:20:42,52.5,-0.0482666666666667,-0.287766666666667,0.9854,0.348333333333333,0.305333333333333,0.427,886.422,0,0,0,0,0,0,0,-0.15605,0.80995,-0.4841,-0.425,-0.79,-0.24,0.088,-0.01305,-0.632025,0.788425,0.274,0.5795,-0.61,749.994,0,1,1,0
24-May-2018 14:20:42,52.5,-0.0482666666666667,-0.287766666666667,0.9854,0.348333333333333,0.305333333333333,0.427,886.422,0,0,0,0,0,0,0,-0.15605,0.80995,-0.4841,-0.425,-0.79,-0.24,0.088,-0.01305,-0.632025,0.788425,0.274,0.5795,-0.61,749.994,0,1,1,0
24-May-2018 14:20:42,52.5,-0.0482666666666667,-0.287766666666667,0.9854,0.348333333333333,0.305333333333333,0.427,886.422,0,0,0,0,0,0,0,-0.15605,0.80995,-0.4841,-0.425,-0.79,-0.24,0.088,-0.01305,-0.632025,0.788425,0.274,0.5795,-0.61,749.994,0,1,1,0
24-May-2018 14:20:42,52.5,-0.0482666666666667,-0.287766666666667,0.9854,0.348333333333333,0.305333333333333,0.427,886.422,0,0,0,0,0,0,0,-0.15605,0.80995,-0.4841,-0.425,-0.79,-0.24,0.088,-0.01305,-0.632025,0.788425,0.274,0.5795,-0.61,749.994,0,1,1,0
24-May-2018 14:20:43,86.4,-0.04,-0.28545,0.9889,0.955333333333333,-1.155,0.376166666666667,884.409666666667,0,0,0,0,0,0,0,-0.153957142857143,0.813214285714286,-0.485771428571429,-0.658333333333333,-0.84,-0.26,0.088,-0.0138333333333333,-0.626516666666667,0.793333333333333,-0.296142857142857,0.348571428571429,-0.514,753.3675,0,1,1,0
24-May-2018 14:20:43,86.4,-0.04,-0.28545,0.9889,0.955333333333333,-1.155,0.376166666666667,884.409666666667,0,0,0,0,0,0,0,-0.153957142857143,0.813214285714286,-0.485771428571429,-0.658333333333333,-0.84,-0.26,0.088,-0.0138333333333333,-0.626516666666667,0.793333333333333,-0.296142857142857,0.348571428571429,-0.514,753.3675,0,1,1,0
24-May-2018 14:20:43,86.4,-0.04,-0.28545,0.9889,0.955333333333333,-1.155,0.376166666666667,884.409666666667,0,0,0,0,0,0,0,-0.153957142857143,0.813214285714286,-0.485771428571429,-0.658333333333333,-0.84,-0.26,0.088,-0.0138333333333333,-0.626516666666667,0.793333333333333,-0.296142857142857,0.348571428571429,-0.514,753.3675,0,1,1,0
24-May-2018 14:20:43,86.4,-0.04,-0.28545,0.9889,0.955333333333333,-1.155,0.376166666666667,884.409666666667,0,0,0,0,0,0,0,-0.153957142857143,0.813214285714286,-0.485771428571429,-0.658333333333333,-0.84,-0.26,0.088,-0.0138333333333333,-0.626516666666667,0.793333333333333,-0.296142857142857,0.348571428571429,-0.514,753.3675,0,1,1,0
24-May-2018 14:20:44,183.444444444444,-0.0225333333333333,-0.274466666666667,0.99255,1.54271428571429,0.489714285714286,0.0968571428571429,891.79575,0,0,0,0,0,0,0,-0.1537375,0.8137,-0.4860125,-0.39125,-0.9475,-0.1725,0.088,-0.0124,-0.62752,0.78588,0.144875,0.388875,-0.022875,751.323,0,1,1,0
24-May-2018 14:20:44,183.444444444444,-0.0225333333333333,-0.274466666666667,0.99255,1.54271428571429,0.489714285714286,0.0968571428571429,891.79575,0,0,0,0,0,0,0,-0.1537375,0.8137,-0.4860125,-0.39125,-0.9475,-0.1725,0.088,-0.0124,-0.62752,0.78588,0.144875,0.388875,-0.022875,751.323,0,1,1,0
24-May-2018 14:20:44,183.444444444444,-0.0225333333333333,-0.274466666666667,0.99255,1.54271428571429,0.489714285714286,0.0968571428571429,891.79575,0,0,0,0,0,0,0,-0.1537375,0.8137,-0.4860125,-0.39125,-0.9475,-0.1725,0.088,-0.0124,-0.62752,0.78588,0.144875,0.388875,-0.022875,751.323,0,1,1,0
24-May-2018 14:20:44,183.444444444444,-0.0225333333333333,-0.274466666666667,0.99255,1.54271428571429,0.489714285714286,0.0968571428571429,891.79575,0,0,0,0,0,0,0,-0.1537375,0.8137,-0.4860125,-0.39125,-0.9475,-0.1725,0.088,-0.0124,-0.62752,0.78588,0.144875,0.388875,-0.022875,751.323,0,1,1,0
24-May-2018 14:20:45,183.25,-0.0461666666666667,-0.290466666666667,0.986377777777778,0.1845,0.63375,0.359,891.79575,0,0,0,0,0,0,0,-0.153485714285714,0.813314285714286,-0.487271428571429,-0.56,-0.865,-0.225,0.088,-0.0129625,-0.6314125,0.78495,0.742,0.477833333333333,-0.487833333333333,750.22325,0,1,1,0
24-May-2018 14:20:45,183.25,-0.0461666666666667,-0.290466666666667,0.986377777777778,0.1845,0.63375,0.359,891.79575,0,0,0,0,0,0,0,-0.153485714285714,0.813314285714286,-0.487271428571429,-0.56,-0.865,-0.225,0.088,-0.0129625,-0.6314125,0.78495,0.742,0.477833333333333,-0.487833333333333,750.22325,0,1,1,0
24-May-2018 14:20:45,183.25,-0.0461666666666667,-0.290466666666667,0.986377777777778,0.1845,0.63375,0.359,891.79575,0,0,0,0,0,0,0,-0.153485714285714,0.813314285714286,-0.487271428571429,-0.56,-0.865,-0.225,0.088,-0.0129625,-0.6314125,0.78495,0.742,0.477833333333333,-0.487833333333333,750.22325,0,1,1,0
24-May-2018 14:20:45,183.25,-0.0461666666666667,-0.290466666666667,0.986377777777778,0.1845,0.63375,0.359,891.79575,0,0,0,0,0,0,0,-0.153485714285714,0.813314285714286,-0.487271428571429,-0.56,-0.865,-0.225,0.088,-0.0129625,-0.6314125,0.78495,0.742,0.477833333333333,-0.487833333333333,750.22325,0,1,1,0
24-May-2018 14:20:46,198,-0.03015,-0.284525,0.9885,1.145,-1.11311111111111,0.359222222222222,891.79575,0,0,0,0,0,0,0,-0.154316666666667,0.811533333333333,-0.4843,-0.553333333333333,-0.91,-0.24,0.088,-0.0123,-0.6256875,0.7898,0.89175,0.56425,-0.205875,753.03,0,1,1,0
24-May-2018 14:20:46,198,-0.03015,-0.284525,0.9885,1.145,-1.11311111111111,0.359222222222222,891.79575,0,0,0,0,0,0,0,-0.154316666666667,0.811533333333333,-0.4843,-0.553333333333333,-0.91,-0.24,0.088,-0.0123,-0.6256875,0.7898,0.89175,0.56425,-0.205875,753.03,0,1,1,0
24-May-2018 14:20:46,198,-0.03015,-0.284525,0.9885,1.145,-1.11311111111111,0.359222222222222,0,0,0,0,0,0,0,0,-0.154316666666667,0.811533333333333,-0.4843,-0.553333333333333,-0.91,-0.24,0.088,-0.0123,-0.6256875,0.7898,0.89175,0.56425,-0.205875,753.03,0,1,1,0
24-May-2018 14:20:46,198,-0.03015,-0.284525,0.9885,1.145,-1.11311111111111,0.359222222222222,0,0,0,0,0,0,0,0,-0.154316666666667,0.811533333333333,-0.4843,-0.553333333333333,-0.91,-0.24,0.088,-0.0123,-0.6256875,0.7898,0.89175,0.56425,-0.205875,753.03,0,1,1,0
24-May-2018 14:20:47,146.875,-0.0255714285714286,-0.283385714285714,0.989028571428571,0.418571428571429,0.915571428571429,0.366,892.2555,0,0,0,0,0,0,0,-0.15435,0.81255,-0.4841,-0.401666666666667,-0.86,-0.1,0.088,-0.0127333333333333,-0.629816666666667,0.787933333333333,0.200428571428571,0.409571428571429,-0.0958571428571429,752.213,0,1,1,0
24-May-2018 14:20:47,146.875,-0.0255714285714286,-0.283385714285714,0.989028571428571,0.418571428571429,0.915571428571429,0.366,892.2555,0,0,0,0,0,0,0,-0.15435,0.81255,-0.4841,-0.401666666666667,-0.86,-0.1,0.088,-0.0127333333333333,-0.629816666666667,0.787933333333333,0.200428571428571,0.409571428571429,-0.0958571428571429,752.213,0,1,1,0
24-May-2018 14:20:47,146.875,-0.0255714285714286,-0.283385714285714,0.989028571428571,0.418571428571429,0.915571428571429,0.366,892.2555,0,0,0,0,0,0,0,-0.15435,0.81255,-0.4841,-0.401666666666667,-0.86,-0.1,0.088,-0.0127333333333333,-0.629816666666667,0.787933333333333,0.200428571428571,0.409571428571429,-0.0958571428571429,752.213,0,1,1,0
24-May-2018 14:20:47,146.875,-0.0255714285714286,-0.283385714285714,0.989028571428571,0.418571428571429,0.915571428571429,0.366,892.2555,0,0,0,0,0,0,0,-0.15435,0.81255,-0.4841,-0.401666666666667,-0.86,-0.1,0.088,-0.0127333333333333,-0.629816666666667,0.787933333333333,0.200428571428571,0.409571428571429,-0.0958571428571429,752.213,0,1,1,0
24-May-2018 14:20:48,115,-0.0499,-0.29024,0.98496,0.598,0.1966,0.3416,887.601714285714,0,0,0,0,0,0,0,-0.153183333333333,0.812783333333333,-0.487066666666667,-0.678,-0.826,-0.326,0.088,-0.013575,-0.6286375,0.787875,0.44225,0.480375,-0.54125,752.213,0,1,1,0
24-May-2018 14:20:48,115,-0.0499,-0.29024,0.98496,0.598,0.1966,0.3416,887.601714285714,0,0,0,0,0,0,0,-0.153183333333333,0.812783333333333,-0.487066666666667,-0.678,-0.826,-0.326,0.088,-0.013575,-0.6286375,0.787875,0.44225,0.480375,-0.54125,752.213,0,1,1,0
24-May-2018 14:20:48,115,-0.0499,-0.29024,0.98496,0.598,0.1966,0.3416,887.601714285714,0,0,0,0,0,0,0,-0.153183333333333,0.812783333333333,-0.487066666666667,-0.678,-0.826,-0.326,0.088,-0.013575,-0.6286375,0.787875,0.44225,0.480375,-0.54125,752.213,0,1,1,0
24-May-2018 14:20:48,115,-0.0499,-0.29024,0.98496,0.598,0.1966,0.3416,887.601714285714,0,0,0,0,0,0,0,-0.153183333333333,0.812783333333333,-0.487066666666667,-0.678,-0.826,-0.326,0.088,-0.013575,-0.6286375,0.787875,0.44225,0.480375,-0.54125,0,0,1,1,0
24-May-2018 14:20:49,221.8,-0.0284166666666667,-0.2833,0.989816666666667,1.244,-1.276,0.3416,887.949714285714,0,0,0,0,0,0,0,-0.154225,0.813375,-0.4847,-0.578888888888889,-0.876666666666666,-0.246666666666667,0.088,-0.0113666666666667,-0.626216666666667,0.789883333333333,0.479142857142857,0.461857142857143,-0.217857142857143,754.0295,0,1,1,0
24-May-2018 14:20:49,221.8,-0.0284166666666667,-0.2833,0.989816666666667,1.244,-1.276,0.3416,887.949714285714,0,0,0,0,0,0,0,-0.154225,0.813375,-0.4847,-0.578888888888889,-0.876666666666666,-0.246666666666667,0.088,-0.0113666666666667,-0.626216666666667,0.789883333333333,0.479142857142857,0.461857142857143,-0.217857142857143,754.0295,0,1,1,0
24-May-2018 14:20:49,221.8,-0.0284166666666667,-0.2833,0.989816666666667,1.244,-1.276,0.3416,887.949714285714,0,0,0,0,0,0,0,-0.154225,0.813375,-0.4847,-0.578888888888889,-0.876666666666666,-0.246666666666667,0.088,-0.0113666666666667,-0.626216666666667,0.789883333333333,0.479142857142857,0.461857142857143,-0.217857142857143,754.0295,0,1,1,0
24-May-2018 14:20:49,221.8,-0.0284166666666667,-0.2833,0.989816666666667,1.244,-1.276,0.3416,887.949714285714,0,0,0,0,0,0,0,-0.154225,0.813375,-0.4847,-0.578888888888889,-0.876666666666666,-0.246666666666667,0.088,-0.0113666666666667,-0.626216666666667,0.789883333333333,0.479142857142857,0.461857142857143,-0.217857142857143,754.0295,0,1,1,0
24-May-2018 14:20:50,220.714285714286,-0.0223,-0.280971428571429,0.991014285714286,0.400857142857143,0.699428571428572,0.296285714285714,894.31325,0,0,0,0,0,0,0,-0.154142857142857,0.812457142857143,-0.486542857142857,-0.52125,-0.8575,-0.225,0.088,-0.0119428571428571,-0.629142857142857,0.787785714285714,0.183,0.3965,0.129625,754.0295,0,1,1,0
24-May-2018 14:20:50,220.714285714286,-0.0223,-0.280971428571429,0.991014285714286,0.400857142857143,0.699428571428572,0.296285714285714,894.31325,0,0,0,0,0,0,0,-0.154142857142857,0.812457142857143,-0.486542857142857,-0.52125,-0.8575,-0.225,0.088,-0.0119428571428571,-0.629142857142857,0.787785714285714,0.183,0.3965,0.129625,754.0295,0,1,1,0
24-May-2018 14:20:50,220.714285714286,-0.0223,-0.280971428571429,0.991014285714286,0.400857142857143,0.699428571428572,0.296285714285714,894.31325,0,0,0,0,0,0,0,-0.154142857142857,0.812457142857143,-0.486542857142857,-0.52125,-0.8575,-0.225,0.088,-0.0119428571428571,-0.629142857142857,0.787785714285714,0.183,0.3965,0.129625,754.0295,0,1,1,0
24-May-2018 14:20:50,220.714285714286,-0.0223,-0.280971428571429,0.991014285714286,0.400857142857143,0.699428571428572,0.296285714285714,894.31325,0,0,0,0,0,0,0,-0.154142857142857,0.812457142857143,-0.486542857142857,-0.52125,-0.8575,-0.225,0.088,-0.0119428571428571,-0.629142857142857,0.787785714285714,0.183,0.3965,0.129625,0,0,1,1,0
24-May-2018 14:20:51,240.545454545455,-0.0457428571428571,-0.290971428571429,0.986928571428572,0.62675,0.054875,0.3355,888.453666666667,0,0,0,0,0,0,0,-0.154183333333333,0.8137,-0.486216666666667,-0.646666666666667,-0.888333333333333,-0.28,0.088,-0.01342,-0.62966,0.7869,0.660833333333333,0.549,-0.386333333333333,751.0418,0,1,1,0
24-May-2018 14:20:51,240.545454545455,-0.0457428571428571,-0.290971428571429,0.986928571428572,0.62675,0.054875,0.3355,888.453666666667,0,0,0,0,0,0,0,-0.154183333333333,0.8137,-0.486216666666667,-0.646666666666667,-0.888333333333333,-0.28,0.088,-0.01342,-0.62966,0.7869,0.660833333333333,0.549,-0.386333333333333,751.0418,0,1,1,0
24-May-2018 14:20:51,240.545454545455,-0.0457428571428571,-0.290971428571429,0.986928571428572,0.62675,0.054875,0.3355,888.453666666667,0,0,0,0,0,0,0,-0.154183333333333,0.8137,-0.486216666666667,-0.646666666666667,-0.888333333333333,-0.28,0.088,-0.01342,-0.62966,0.7869,0.660833333333333,0.549,-0.386333333333333,751.0418,0,1,1,0
24-May-2018 14:20:51,240.545454545455,-0.0457428571428571,-0.290971428571429,0.986928571428572,0.62675,0.054875,0.3355,888.453666666667,0,0,0,0,0,0,0,-0.154183333333333,0.8137,-0.486216666666667,-0.646666666666667,-0.888333333333333,-0.28,0.088,-0.01342,-0.62966,0.7869,0.660833333333333,0.549,-0.386333333333333,751.0418,0,1,1,0
24-May-2018 14:20:52,191.166666666667,-0.0293285714285714,-0.284257142857143,0.989314285714286,1.22983333333333,-1.41,0.315166666666667,886.511333333333,0,0,0,0,0,0,0,-0.154142857142857,0.814671428571429,-0.485614285714286,-0.5825,-0.9175,-0.2475,0.088,-0.01158,-0.6278,0.78878,0.61,0.444428571428571,-0.278857142857143,751.0418,0,1,1,0
24-May-2018 14:20:52,191.166666666667,-0.0293285714285714,-0.284257142857143,0.989314285714286,1.22983333333333,-1.41,0.315166666666667,886.511333333333,0,0,0,0,0,0,0,-0.154142857142857,0.814671428571429,-0.485614285714286,-0.5825,-0.9175,-0.2475,0.088,-0.01158,-0.6278,0.78878,0.61,0.444428571428571,-0.278857142857143,751.0418,0,1,1,0
24-May-2018 14:20:52,191.166666666667,-0.0293285714285714,-0.284257142857143,0.989314285714286,1.22983333333333,-1.41,0.315166666666667,886.511333333333,0,0,0,0,0,0,0,-0.154142857142857,0.814671428571429,-0.485614285714286,-0.5825,-0.9175,-0.2475,0.088,-0.01158,-0.6278,0.78878,0.61,0.444428571428571,-0.278857142857143,751.0418,0,1,1,0
24-May-2018 14:20:52,191.166666666667,-0.0293285714285714,-0.284257142857143,0.989314285714286,1.22983333333333,-1.41,0.315166666666667,886.511333333333,0,0,0,0,0,0,0,-0.154142857142857,0.814671428571429,-0.485614285714286,-0.5825,-0.9175,-0.2475,0.088,-0.01158,-0.6278,0.78878,0.61,0.444428571428571,-0.278857142857143,0,0,1,1,0
24-May-2018 14:20:53,156.666666666667,-0.02472,-0.28122,0.99032,0.2665,1.3725,0.3355,891.995,0,0,0,0,0,0,0,-0.15198,0.81448,-0.48684,-0.472,-0.97,-0.144,0.088,-0.013025,-0.630675,0.78705,0.386333333333333,0.416833333333333,0.061,753.136666666667,0,1,1,0
24-May-2018 14:20:53,156.666666666667,-0.02472,-0.28122,0.99032,0.2665,1.3725,0.3355,891.995,0,0,0,0,0,0,0,-0.15198,0.81448,-0.48684,-0.472,-0.97,-0.144,0.088,-0.013025,-0.630675,0.78705,0.386333333333333,0.416833333333333,0.061,753.136666666667,0,1,1,0
24-May-2018 14:20:53,156.666666666667,-0.02472,-0.28122,0.99032,0.2665,1.3725,0.3355,891.995,0,0,0,0,0,0,0,-0.15198,0.81448,-0.48684,-0.472,-0.97,-0.144,0.088,-0.013025,-0.630675,0.78705,0.386333333333333,0.416833333333333,0.061,753.136666666667,0,1,1,0
24-May-2018 14:20:53,156.666666666667,-0.02472,-0.28122,0.99032,0.2665,1.3725,0.3355,891.995,0,0,0,0,0,0,0,-0.15198,0.81448,-0.48684,-0.472,-0.97,-0.144,0.088,-0.013025,-0.630675,0.78705,0.386333333333333,0.416833333333333,0.061,753.136666666667,0,1,1,0
24-May-2018 14:20:54,27,-0.04672,-0.28968,0.98672,-0.195,1.936,0.427,888.372,0,0,0,0,0,0,0,-0.153016666666667,0.812433333333333,-0.487433333333333,-0.58475,-0.925,-0.22475,0.088,-0.0137166666666667,-0.63105,0.78675,0.6405,0.488,-0.282125,750.947,0,1,1,0
24-May-2018 14:20:54,27,-0.04672,-0.28968,0.98672,-0.195,1.936,0.427,888.372,0,0,0,0,0,0,0,-0.153016666666667,0.812433333333333,-0.487433333333333,-0.58475,-0.925,-0.22475,0.088,-0.0137166666666667,-0.63105,0.78675,0.6405,0.488,-0.282125,750.947,0,1,1,0
24-May-2018 14:20:54,27,-0.04672,-0.28968,0.98672,-0.195,1.936,0.427,888.372,0,0,0,0,0,0,0,-0.153016666666667,0.812433333333333,-0.487433333333333,-0.58475,-0.925,-0.22475,0.088,-0.0137166666666667,-0.63105,0.78675,0.6405,0.488,-0.282125,750.947,0,1,1,0
24-May-2018 14:20:54,27,-0.04672,-0.28968,0.98672,-0.195,1.936,0.427,888.372,0,0,0,0,0,0,0,-0.153016666666667,0.812433333333333,-0.487433333333333,-0.58475,-0.925,-0.22475,0.088,-0.0137166666666667,-0.63105,0.78675,0.6405,0.488,-0.282125,750.947,0,1,1,0
24-May-2018 14:20:55,95,-0.0443875,-0.2885625,0.987975,1.39475,-1.4975,0.41175,883.032,0,0,0,0,0,0,0,-0.1527,0.81455,-0.487325,-0.616,-0.898,-0.264,0.088,-0.0127714285714286,-0.628442857142857,0.788585714285714,0.932142857142857,0.557714285714286,-0.270142857142857,750.684333333333,0,1,1,0
24-May-2018 14:20:55,95,-0.0443875,-0.2885625,0.987975,1.39475,-1.4975,0.41175,883.032,0,0,0,0,0,0,0,-0.1527,0.81455,-0.487325,-0.616,-0.898,-0.264,0.088,-0.0127714285714286,-0.628442857142857,0.788585714285714,0.932142857142857,0.557714285714286,-0.270142857142857,750.684333333333,0,1,1,0
24-May-2018 14:20:55,95,-0.0443875,-0.2885625,0.987975,1.39475,-1.4975,0.41175,883.032,0,0,0,0,0,0,0,-0.1527,0.81455,-0.487325,-0.616,-0.898,-0.264,0.088,-0.0127714285714286,-0.628442857142857,0.788585714285714,0.932142857142857,0.557714285714286,-0.270142857142857,750.684333333333,0,1,1,0
24-May-2018 14:20:55,95,-0.0443875,-0.2885625,0.987975,1.39475,-1.4975,0.41175,883.032,0,0,0,0,0,0,0,-0.1527,0.81455,-0.487325,-0.616,-0.898,-0.264,0.088,-0.0127714285714286,-0.628442857142857,0.788585714285714,0.932142857142857,0.557714285714286,-0.270142857142857,750.684333333333,0,1,1,0
24-May-2018 14:20:56,86.1,-0.021725,-0.2809875,0.9900125,0.887777777777778,-0.397777777777778,0.338888888888889,883.032,0,0,0,0,0,0,0,-0.153142857142857,0.813871428571428,-0.485857142857143,-0.586666666666667,-0.92,-0.2,0.088,-0.0122142857142857,-0.631771428571429,0.785328571428571,0.251625,0.366,-0.068625,751.568,0,1,1,0
24-May-2018 14:20:56,86.1,-0.021725,-0.2809875,0.9900125,0.887777777777778,-0.397777777777778,0.338888888888889,883.032,0,0,0,0,0,0,0,-0.153142857142857,0.813871428571428,-0.485857142857143,-0.586666666666667,-0.92,-0.2,0.088,-0.0122142857142857,-0.631771428571429,0.785328571428571,0.251625,0.366,-0.068625,751.568,0,1,1,0
24-May-2018 14:20:56,86.1,-0.021725,-0.2809875,0.9900125,0.887777777777778,-0.397777777777778,0.338888888888889,883.032,0,0,0,0,0,0,0,-0.153142857142857,0.813871428571428,-0.485857142857143,-0.586666666666667,-0.92,-0.2,0.088,-0.0122142857142857,-0.631771428571429,0.785328571428571,0.251625,0.366,-0.068625,751.568,0,1,1,0
24-May-2018 14:20:56,86.1,-0.021725,-0.2809875,0.9900125,0.887777777777778,-0.397777777777778,0.338888888888889,0,0,0,0,0,0,0,0,-0.153142857142857,0.813871428571428,-0.485857142857143,-0.586666666666667,-0.92,-0.2,0.088,-0.0122142857142857,-0.631771428571429,0.785328571428571,0.251625,0.366,-0.068625,751.568,0,1,1,0
24-May-2018 14:20:57,100.5,-0.031025,-0.2837375,0.9901625,0.024125,1.630875,0.343125,887.5255,0,0,0,0,0,0,0,-0.153871428571429,0.813042857142857,-0.486828571428571,-0.461666666666667,-0.971666666666667,-0.12,0.088,-0.013525,-0.632075,0.7856625,0.749285714285714,0.496714285714286,-0.270142857142857,749.960333333333,0,1,1,0
24-May-2018 14:20:57,100.5,-0.031025,-0.2837375,0.9901625,0.024125,1.630875,0.343125,887.5255,0,0,0,0,0,0,0,-0.153871428571429,0.813042857142857,-0.486828571428571,-0.461666666666667,-0.971666666666667,-0.12,0.088,-0.013525,-0.632075,0.7856625,0.749285714285714,0.496714285714286,-0.270142857142857,749.960333333333,0,1,1,0
24-May-2018 14:20:57,100.5,-0.031025,-0.2837375,0.9901625,0.024125,1.630875,0.343125,887.5255,0,0,0,0,0,0,0,-0.153871428571429,0.813042857142857,-0.486828571428571,-0.461666666666667,-0.971666666666667,-0.12,0.088,-0.013525,-0.632075,0.7856625,0.749285714285714,0.496714285714286,-0.270142857142857,749.960333333333,0,1,1,0
24-May-2018 14:20:57,100.5,-0.031025,-0.2837375,0.9901625,0.024125,1.630875,0.343125,887.5255,0,0,0,0,0,0,0,-0.153871428571429,0.813042857142857,-0.486828571428571,-0.461666666666667,-0.971666666666667,-0.12,0.088,-0.013525,-0.632075,0.7856625,0.749285714285714,0.496714285714286,-0.270142857142857,749.960333333333,0,1,1,0
24-May-2018 14:20:58,28.7,-0.04672,-0.2886,0.98676,1.2688,-1.0214,0.427,883.0935,0,0,0,0,0,0,0,-0.152866666666667,0.812933333333333,-0.48635,-0.615714285714286,-0.85,-0.231428571428571,0.088,-0.0127,-0.62985,0.787883333333333,0.671,0.480375,-0.3965,750.481,0,1,1,0
24-May-2018 14:20:58,28.7,-0.04672,-0.2886,0.98676,1.2688,-1.0214,0.427,883.0935,0,0,0,0,0,0,0,-0.152866666666667,0.812933333333333,-0.48635,-0.615714285714286,-0.85,-0.231428571428571,0.088,-0.0127,-0.62985,0.787883333333333,0.671,0.480375,-0.3965,750.481,0,1,1,0
24-May-2018 14:20:58,28.7,-0.04672,-0.2886,0.98676,1.2688,-1.0214,0.427,883.0935,0,0,0,0,0,0,0,-0.152866666666667,0.812933333333333,-0.48635,-0.615714285714286,-0.85,-0.231428571428571,0.088,-0.0127,-0.62985,0.787883333333333,0.671,0.480375,-0.3965,750.481,0,1,1,0
24-May-2018 14:20:58,28.7,-0.04672,-0.2886,0.98676,1.2688,-1.0214,0.427,883.0935,0,0,0,0,0,0,0,-0.152866666666667,0.812933333333333,-0.48635,-0.615714285714286,-0.85,-0.231428571428571,0.088,-0.0127,-0.62985,0.787883333333333,0.671,0.480375,-0.3965,750.481,0,1,1,0
24-May-2018 14:20:59,2.88888888888889,-0.02074,-0.28116,0.99028,0.985833333333333,-0.433166666666667,0.345666666666667,890.2175,0,0,0,0,0,0,0,-0.1538125,0.8137625,-0.485325,-0.632,-0.934,-0.2158,0.088,-0.0123285714285714,-0.628657142857143,0.787342857142857,0.315166666666667,0.406666666666667,-0.0203333333333333,751.7,0,1,1,0
24-May-2018 14:20:59,2.88888888888889,-0.02074,-0.28116,0.99028,0.985833333333333,-0.433166666666667,0.345666666666667,890.2175,0,0,0,0,0,0,0,-0.1538125,0.8137625,-0.485325,-0.632,-0.934,-0.2158,0.088,-0.0123285714285714,-0.628657142857143,0.787342857142857,0.315166666666667,0.406666666666667,-0.0203333333333333,751.7,0,1,1,0
24-May-2018 14:20:59,2.88888888888889,-0.02074,-0.28116,0.99028,0.985833333333333,-0.433166666666667,0.345666666666667,890.2175,0,0,0,0,0,0,0,-0.1538125,0.8137625,-0.485325,-0.632,-0.934,-0.2158,0.088,-0.0123285714285714,-0.628657142857143,0.787342857142857,0.315166666666667,0.406666666666667,-0.0203333333333333,751.7,0,1,1,0
24-May-2018 14:20:59,2.88888888888889,-0.02074,-0.28116,0.99028,0.985833333333333,-0.433166666666667,0.345666666666667,890.2175,0,0,0,0,0,0,0,-0.1538125,0.8137625,-0.485325,-0.632,-0.934,-0.2158,0.088,-0.0123285714285714,-0.628657142857143,0.787342857142857,0.315166666666667,0.406666666666667,-0.0203333333333333,751.7,0,1,1,0
24-May-2018 14:21:00,-95.8888888888889,-0.0416857142857143,-0.286257142857143,0.987785714285714,-0.149666666666667,1.74783333333333,0.325333333333333,891.92325,0,0,0,0,0,0,0,-0.15238,0.81434,-0.48714,-0.51,-0.91,-0.12,0.088,-0.01364,-0.6321,0.78464,0.618714285714286,0.488,-0.0522857142857143,750.1066,0,1,1,0
24-May-2018 14:21:00,-95.8888888888889,-0.0416857142857143,-0.286257142857143,0.987785714285714,-0.149666666666667,1.74783333333333,0.325333333333333,891.92325,0,0,0,0,0,0,0,-0.15238,0.81434,-0.48714,-0.51,-0.91,-0.12,0.088,-0.01364,-0.6321,0.78464,0.618714285714286,0.488,-0.0522857142857143,750.1066,0,1,1,0
24-May-2018 14:21:00,-95.8888888888889,-0.0416857142857143,-0.286257142857143,0.987785714285714,-0.149666666666667,1.74783333333333,0.325333333333333,891.92325,0,0,0,0,0,0,0,-0.15238,0.81434,-0.48714,-0.51,-0.91,-0.12,0.088,-0.01364,-0.6321,0.78464,0.618714285714286,0.488,-0.0522857142857143,750.1066,0,1,1,0
24-May-2018 14:21:00,-95.8888888888889,-0.0416857142857143,-0.286257142857143,0.987785714285714,-0.149666666666667,1.74783333333333,0.325333333333333,891.92325,0,0,0,0,0,0,0,-0.15238,0.81434,-0.48714,-0.51,-0.91,-0.12,0.088,-0.01364,-0.6321,0.78464,0.618714285714286,0.488,-0.0522857142857143,750.1066,0,1,1,0
24-May-2018 14:21:01,-164,-0.0393666666666667,-0.286966666666667,0.988333333333333,1.20214285714286,-1.05714285714286,0.409571428571429,885.586,0,0,0,0,0,0,0,-0.1529,0.8131,-0.487014285714286,-0.588571428571429,-0.918571428571428,-0.222857142857143,0.088,-0.0136666666666667,-0.6316,0.7851,0.618714285714286,0.488,-0.0522857142857143,749.495,0,1,1,0
24-May-2018 14:21:01,-164,-0.0393666666666667,-0.286966666666667,0.988333333333333,1.20214285714286,-1.05714285714286,0.409571428571429,885.586,0,0,0,0,0,0,0,-0.1529,0.8131,-0.487014285714286,-0.588571428571429,-0.918571428571428,-0.222857142857143,0.088,-0.0136666666666667,-0.6316,0.7851,0.618714285714286,0.488,-0.0522857142857143,749.495,0,1,1,0
24-May-2018 14:21:01,-164,-0.0393666666666667,-0.286966666666667,0.988333333333333,1.20214285714286,-1.05714285714286,0.409571428571429,885.586,0,0,0,0,0,0,0,-0.1529,0.8131,-0.487014285714286,-0.588571428571429,-0.918571428571428,-0.222857142857143,0.088,-0.0136666666666667,-0.6316,0.7851,0.618714285714286,0.488,-0.0522857142857143,749.495,0,1,1,0
24-May-2018 14:21:01,-164,-0.0393666666666667,-0.286966666666667,0.988333333333333,1.20214285714286,-1.05714285714286,0.409571428571429,885.586,0,0,0,0,0,0,0,-0.1529,0.8131,-0.487014285714286,-0.588571428571429,-0.918571428571428,-0.222857142857143,0.088,-0.0136666666666667,-0.6316,0.7851,0,0,0,749.495,0,1,1,0
24-May-2018 14:21:02,-150.444444444444,-0.0220142857142857,-0.280142857142857,0.990785714285714,0.941,-0.248571428571429,0.392142857142857,891.577666666667,0,0,0,0,0,0,0,-0.153671428571429,0.812728571428571,-0.486128571428571,-0.537142857142857,-0.875714285714286,-0.214285714285714,0.088,-0.014575,-0.628675,0.78775,0.7928,0.549,-0.4758,750.7585,0,1,1,0
24-May-2018 14:21:02,-150.444444444444,-0.0220142857142857,-0.280142857142857,0.990785714285714,0.941,-0.248571428571429,0.392142857142857,891.577666666667,0,0,0,0,0,0,0,-0.153671428571429,0.812728571428571,-0.486128571428571,-0.537142857142857,-0.875714285714286,-0.214285714285714,0.088,-0.014575,-0.628675,0.78775,0.7928,0.549,-0.4758,750.7585,0,1,1,0
24-May-2018 14:21:02,-150.444444444444,-0.0220142857142857,-0.280142857142857,0.990785714285714,0.941,-0.248571428571429,0.392142857142857,891.577666666667,0,0,0,0,0,0,0,-0.153671428571429,0.812728571428571,-0.486128571428571,-0.537142857142857,-0.875714285714286,-0.214285714285714,0.088,-0.014575,-0.628675,0.78775,0.7928,0.549,-0.4758,750.7585,0,1,1,0
24-May-2018 14:21:02,-150.444444444444,-0.0220142857142857,-0.280142857142857,0.990785714285714,0.941,-0.248571428571429,0.392142857142857,891.577666666667,0,0,0,0,0,0,0,-0.153671428571429,0.812728571428571,-0.486128571428571,-0.537142857142857,-0.875714285714286,-0.214285714285714,0.088,-0.014575,-0.628675,0.78775,0.7928,0.549,-0.4758,750.7585,0,1,1,0
24-May-2018 14:21:03,-75.9,-0.0258,-0.279942857142857,0.990542857142857,0.2955,1.25,0.406666666666667,893.726,0,0,0,0,0,0,0,-0.153642857142857,0.813685714285714,-0.486514285714286,-0.453333333333333,-0.86,-0.12,0.088,-0.0119666666666667,-0.6281,0.78835,0.670857142857143,0.514142857142857,-0.148142857142857,752.597666666667,0,1,1,0
24-May-2018 14:21:03,-75.9,-0.0258,-0.279942857142857,0.990542857142857,0.2955,1.25,0.406666666666667,893.726,0,0,0,0,0,0,0,-0.153642857142857,0.813685714285714,-0.486514285714286,-0.453333333333333,-0.86,-0.12,0.088,-0.0119666666666667,-0.6281,0.78835,0.670857142857143,0.514142857142857,-0.148142857142857,752.597666666667,0,1,1,0
24-May-2018 14:21:03,-75.9,-0.0258,-0.279942857142857,0.990542857142857,0.2955,1.25,0.406666666666667,893.726,0,0,0,0,0,0,0,-0.153642857142857,0.813685714285714,-0.486514285714286,-0.453333333333333,-0.86,-0.12,0.088,-0.0119666666666667,-0.6281,0.78835,0.670857142857143,0.514142857142857,-0.148142857142857,752.597666666667,0,1,1,0
24-May-2018 14:21:03,-75.9,-0.0258,-0.279942857142857,0.990542857142857,0.2955,1.25,0.406666666666667,893.726,0,0,0,0,0,0,0,-0.153642857142857,0.813685714285714,-0.486514285714286,-0.453333333333333,-0.86,-0.12,0.088,-0.0119666666666667,-0.6281,0.78835,0.670857142857143,0.514142857142857,-0.148142857142857,752.597666666667,0,1,1,0
24-May-2018 14:21:04,-68,-0.0371,-0.2844,0.9881,-0.0895,1.8595,0.366,890.555,0,0,0,0,0,0,0,-0.1542,0.815,-0.4873,-0.36,-0.85,-0.06,0.088,-0.01245,-0.62805,0.7865,0.366,0.366,-0.244,751.755,1,1,1,1
24-May-2018 14:21:04,-68,-0.0371,-0.2844,0.9881,-0.0895,1.8595,0.366,890.555,0,0,0,0,0,0,0,-0.1542,0.815,-0.4873,-0.36,-0.85,-0.06,0.088,-0.01245,-0.62805,0.7865,0.366,0.366,-0.244,751.755,1,1,1,1
24-May-2018 14:21:04,-68,-0.0371,-0.2844,0.9881,-0.0895,1.8595,0.366,890.555,0,0,0,0,0,0,0,-0.1542,0.815,-0.4873,-0.36,-0.85,-0.06,0.088,-0.01245,-0.62805,0.7865,0.366,0.366,-0.244,751.755,1,1,1,1
24-May-2018 14:21:04,-68,-0.0371,-0.2844,0.9881,-0.0895,1.8595,0.366,890.555,0,0,0,0,0,0,0,-0.1542,0.815,-0.4873,-0.36,-0.85,-0.06,0.088,-0.01245,-0.62805,0.7865,0.366,0.366,-0.244,751.755,1,1,1,1
24-May-2018 14:21:05,-55.25,-0.0487666666666667,-0.288483333333333,0.98635,0.5795,0.155833333333333,0.366,886.566333333333,0,0,0,0,0,0,0,-0.15204,0.81136,-0.48696,-0.4525,-0.85,-0.24,0.088,-0.01348,-0.63032,0.78632,0.4026,0.4148,-0.244,750.3502,0,1,1,0
24-May-2018 14:21:05,-55.25,-0.0487666666666667,-0.288483333333333,0.98635,0.5795,0.155833333333333,0.366,886.566333333333,0,0,0,0,0,0,0,-0.15204,0.81136,-0.48696,-0.4525,-0.85,-0.24,0.088,-0.01348,-0.63032,0.78632,0.4026,0.4148,-0.244,750.3502,0,1,1,0
24-May-2018 14:21:05,-55.25,-0.0487666666666667,-0.288483333333333,0.98635,0.5795,0.155833333333333,0.366,886.566333333333,0,0,0,0,0,0,0,-0.15204,0.81136,-0.48696,-0.4525,-0.85,-0.24,0.088,-0.01348,-0.63032,0.78632,0.4026,0.4148,-0.244,750.3502,0,1,1,0
24-May-2018 14:21:05,-55.25,-0.0487666666666667,-0.288483333333333,0.98635,0.5795,0.155833333333333,0.366,886.566333333333,0,0,0,0,0,0,0,-0.15204,0.81136,-0.48696,-0.4525,-0.85,-0.24,0.088,-0.01348,-0.63032,0.78632,0.4026,0.4148,0,750.3502,0,1,1,0
