TIME,HELMET_RAW,BELT_ACC_X,BELT_ACC_Y,BELT_ACC_Z,BELT_ANG_X,BELT_ANG_Y,BELT_ANG_Z,BELT_LUMINOSITY,NECK_ACC_X,NECK_ACC_Y,NECK_ACC_Z,NECK_ANG_X,NECK_ANG_Y,NECK_ANG_Z,NECK_LUMINOSITY,PCKT_ACC_X,PCKT_ACC_Y,PCKT_ACC_Z,PCKT_ANG_X,PCKT_ANG_Y,PCKT_ANG_Z,PCKT_LUMINOSITY,WRST_ACC_X,WRST_ACC_Y,WRST_ACC_Z,WRST_ANG_X,WRST_ANG_Y,WRST_ANG_Z,WRST_LUMINOSITY,IR_1,IR_2,IR_3,IR_4
24-May-2018 13:24:53,110.181818181818,1.009925,0.21,0.110375,-6.52,-1.2475,6.1275,297.231,-0.9788,-0.15445,-0.3598,-17.405,76.06775,-3.825,420.8,0.779466666666667,0.494966666666667,0.201466666666667,-5.7975,-16.9275,-3.1475,0.065,-0.997333333333333,-0.195,0.0876333333333333,8.84166666666667,2.94733333333333,6.72766666666667,682.068,1,1,1,1
24-May-2018 13:24:53,110.181818181818,1.009925,0.21,0.110375,-6.52,-1.2475,6.1275,297.231,-0.9788,-0.15445,-0.3598,-17.405,76.06775,-3.825,420.8,0.779466666666667,0.494966666666667,0.201466666666667,-5.7975,-16.9275,-3.1475,0.065,-0.997333333333333,-0.195,0.0876333333333333,8.84166666666667,2.94733333333333,6.72766666666667,682.068,1,1,1,1
24-May-2018 13:24:53,110.181818181818,1.009925,0.21,0.110375,-6.52,-1.2475,6.1275,297.231,-0.9788,-0.15445,-0.3598,-17.405,76.06775,-3.825,420.8,0.779466666666667,0.494966666666667,0.201466666666667,-5.7975,-16.9275,-3.1475,0.065,-0.997333333333333,-0.195,0.0876333333333333,8.84166666666667,2.94733333333333,6.72766666666667,682.068,1,1,1,1
24-May-2018 13:24:53,110.181818181818,1.009925,0.21,0.110375,-6.52,-1.2475,6.1275,297.231,-0.9788,-0.15445,-0.3598,-17.405,76.06775,-3.825,420.8,0.779466666666667,0.494966666666667,0.201466666666667,-5.7975,-16.9275,-3.1475,0.065,-0.997333333333333,-0.195,0.0876333333333333,8.84166666666667,2.94733333333333,6.72766666666667,682.068,1,1,1,1
24-May-2018 13:24:54,25.9,0.930177777777778,0.132511111111111,0.108344444444444,-8.23671428571429,-1.10557142857143,-3.19214285714286,297.231,-0.989075,-0.120875,-0.35605,1.20222222222222,-164.055555555556,2.58111111111111,420.8,0.79072,0.59214,-0.01512,-1.358,2.7642,1.784,0.065,-0.92984,-0.19772,0.07076,4.78683333333333,2.10333333333333,-0.579166666666667,658.01,1,1,1,0
24-May-2018 13:24:54,25.9,0.930177777777778,0.132511111111111,0.108344444444444,-8.23671428571429,-1.10557142857143,-3.19214285714286,297.231,-0.989075,-0.120875,-0.35605,1.20222222222222,-164.055555555556,2.58111111111111,420.8,0.79072,0.59214,-0.01512,-1.358,2.7642,1.784,0.065,-0.92984,-0.19772,0.07076,4.78683333333333,2.10333333333333,-0.579166666666667,658.01,1,1,1,0
24-May-2018 13:24:54,25.9,0.930177777777778,0.132511111111111,0.108344444444444,-8.23671428571429,-1.10557142857143,-3.19214285714286,0,-0.989075,-0.120875,-0.35605,1.20222222222222,-164.055555555556,2.58111111111111,420.8,0.79072,0.59214,-0.01512,-1.358,2.7642,1.784,0.065,-0.92984,-0.19772,0.07076,4.78683333333333,2.10333333333333,-0.579166666666667,658.01,1,1,1,0
24-May-2018 13:24:54,25.9,0.930177777777778,0.132511111111111,0.108344444444444,-8.23671428571429,-1.10557142857143,-3.19214285714286,0,-0.989075,-0.120875,-0.35605,1.20222222222222,-164.055555555556,2.58111111111111,420.8,0.79072,0.59214,-0.01512,-1.358,2.7642,1.784,0.065,-0.92984,-0.19772,0.07076,4.78683333333333,2.10333333333333,-0.579166666666667,658.01,1,1,1,0
24-May-2018 13:24:55,106.857142857143,0.8973,0.161725,0.0985,50.125,28.04875,0.1715,396.5885,-1.024575,0.074025,-0.302675,6.847,54.22,22.01125,420.8,0.822028571428571,0.450585714285714,0.0785714285714286,19.34225,7.71475,13.22825,0.065,-0.88766,-0.1546,0.11686,-28.1555,1.41775,20.50325,644.66025,1,1,1,1
24-May-2018 13:24:55,106.857142857143,0.8973,0.161725,0.0985,50.125,28.04875,0.1715,396.5885,-1.024575,0.074025,-0.302675,6.847,54.22,22.01125,420.8,0.822028571428571,0.450585714285714,0.0785714285714286,19.34225,7.71475,13.22825,0.065,-0.88766,-0.1546,0.11686,-28.1555,1.41775,20.50325,644.66025,1,1,1,1
24-May-2018 13:24:55,106.857142857143,0.8973,0.161725,0.0985,50.125,28.04875,0.1715,396.5885,-1.024575,0.074025,-0.302675,6.847,54.22,22.01125,420.8,0.822028571428571,0.450585714285714,0.0785714285714286,19.34225,7.71475,13.22825,0.065,-0.88766,-0.1546,0.11686,-28.1555,1.41775,20.50325,644.66025,1,1,1,1
24-May-2018 13:24:55,106.857142857143,0.8973,0.161725,0.0985,50.125,28.04875,0.1715,396.5885,-1.024575,0.074025,-0.302675,6.847,54.22,22.01125,420.8,0.822028571428571,0.450585714285714,0.0785714285714286,19.34225,7.71475,13.22825,0.065,-0.88766,-0.1546,0.11686,-28.1555,1.41775,20.50325,644.66025,1,1,1,1
24-May-2018 13:24:56,-9.44444444444444,-0.26666,-0.52242,0.244,-81.65,71.21,124.425,171.407666666667,-1.11294,-0.4055,-0.02796,99.57125,93.5675,-100.9225,461.179,0.696666666666667,-0.6375,-0.3031,-1.11333333333333,54.365,58.905,0.065,-0.68095,0.30355,0.4896,-37.173,-78.596,-67.7423333333333,637.571,0,0,1,0
24-May-2018 13:24:56,-9.44444444444444,-0.26666,-0.52242,0.244,-81.65,71.21,124.425,171.407666666667,-1.11294,-0.4055,-0.02796,99.57125,93.5675,-100.9225,461.179,0.696666666666667,-0.6375,-0.3031,-1.11333333333333,54.365,58.905,0.065,-0.68095,0.30355,0.4896,-37.173,-78.596,-67.7423333333333,637.571,0,0,1,0
24-May-2018 13:24:56,-9.44444444444444,-0.26666,-0.52242,0.244,-81.65,71.21,124.425,171.407666666667,-1.11294,-0.4055,-0.02796,99.57125,93.5675,-100.9225,461.179,0.696666666666667,-0.6375,-0.3031,-1.11333333333333,54.365,58.905,0.065,-0.68095,0.30355,0.4896,-37.173,-78.596,-67.7423333333333,637.571,0,0,1,0
24-May-2018 13:24:56,-9.44444444444444,-0.26666,-0.52242,0.244,-81.65,71.21,124.425,171.407666666667,-1.11294,-0.4055,-0.02796,99.57125,93.5675,-100.9225,461.179,0.696666666666667,-0.6375,-0.3031,-1.11333333333333,54.365,58.905,0.065,-0.68095,0.30355,0.4896,-37.173,-78.596,-67.7423333333333,637.571,0,0,1,0
24-May-2018 13:24:57,154.714285714286,-0.1436,-0.9581,0.05734,-1.5098,0.822,-9.5178,283.1658,-0.538925,-0.77765,-0.0234,-50.0155555555556,-145.697777777778,55.1533333333333,461.179,0.4713,-0.851933333333333,-0.638466666666667,-36.791,-32.356,-0.837,0.065,-0.4803,0.89348,0.01372,13.5366666666667,20.681,-9.15633333333333,606.693,0,0,0,0
24-May-2018 13:24:57,154.714285714286,-0.1436,-0.9581,0.05734,-1.5098,0.822,-9.5178,283.1658,-0.538925,-0.77765,-0.0234,-50.0155555555556,-145.697777777778,55.1533333333333,461.179,0.4713,-0.851933333333333,-0.638466666666667,-36.791,-32.356,-0.837,0.065,-0.4803,0.89348,0.01372,13.5366666666667,20.681,-9.15633333333333,606.693,0,0,0,0
24-May-2018 13:24:57,154.714285714286,-0.1436,-0.9581,0.05734,-1.5098,0.822,-9.5178,283.1658,-0.538925,-0.77765,-0.0234,-50.0155555555556,-145.697777777778,55.1533333333333,461.179,0.4713,-0.851933333333333,-0.638466666666667,-36.791,-32.356,-0.837,0.065,-0.4803,0.89348,0.01372,13.5366666666667,20.681,-9.15633333333333,606.693,0,0,0,0
24-May-2018 13:24:57,154.714285714286,-0.1436,-0.9581,0.05734,-1.5098,0.822,-9.5178,283.1658,-0.538925,-0.77765,-0.0234,-50.0155555555556,-145.697777777778,55.1533333333333,461.179,0.4713,-0.851933333333333,-0.638466666666667,-36.791,-32.356,-0.837,0,-0.4803,0.89348,0.01372,13.5366666666667,20.681,-9.15633333333333,606.693,0,0,0,0
24-May-2018 13:24:58,38.8571428571429,-0.181883333333333,-0.842333333333333,0.499166666666667,26.962,-7.8,1.928,482.0225,-0.661875,-0.73675,0.054225,-36.6957777777778,-14.9477777777778,27.4066666666667,461.179,0.554166666666667,-0.720866666666667,-0.246266666666667,18.98,18.4032857142857,-0.329857142857143,0.044,-0.44725,0.844133333333333,-4.62592926927149e-18,-13.38425,-12.927,-6.92075,606.693,1,1,0,0
24-May-2018 13:24:58,38.8571428571429,-0.181883333333333,-0.842333333333333,0.499166666666667,26.962,-7.8,1.928,482.0225,-0.661875,-0.73675,0.054225,-36.6957777777778,-14.9477777777778,27.4066666666667,461.179,0.554166666666667,-0.720866666666667,-0.246266666666667,18.98,18.4032857142857,-0.329857142857143,0.044,-0.44725,0.844133333333333,-4.62592926927149e-18,-13.38425,-12.927,-6.92075,606.693,1,1,0,0
24-May-2018 13:24:58,38.8571428571429,-0.181883333333333,-0.842333333333333,0.499166666666667,26.962,-7.8,1.928,482.0225,-0.661875,-0.73675,0.054225,-36.6957777777778,-14.9477777777778,27.4066666666667,461.179,0.554166666666667,-0.720866666666667,-0.246266666666667,18.98,18.4032857142857,-0.329857142857143,0.044,-0.44725,0.844133333333333,-4.62592926927149e-18,-13.38425,-12.927,-6.92075,606.693,1,1,0,0
24-May-2018 13:24:58,38.8571428571429,-0.181883333333333,-0.842333333333333,0.499166666666667,26.962,-7.8,1.928,482.0225,-0.661875,-0.73675,0.054225,-36.6957777777778,-14.9477777777778,27.4066666666667,461.179,0.554166666666667,-0.720866666666667,-0.246266666666667,18.98,18.4032857142857,-0.329857142857143,0.044,-0.44725,0.844133333333333,-4.62592926927149e-18,-13.38425,-12.927,-6.92075,0,1,1,0,0
24-May-2018 13:24:59,189.5,-0.17336,-0.8501,0.49508,1.784375,-0.56125,0.7395,514.125,-0.7554,-0.377666666666667,-0.0457666666666667,51.922,25.862,181.28,531.817,0.5696,-0.7135,-0.2713,-1.1875,-1.3415,-0.332,0.044,-0.497866666666667,0.8312,0.0608,-2.64266666666667,-0.183,2.13433333333333,421.415,0,1,0,0
24-May-2018 13:24:59,189.5,-0.17336,-0.8501,0.49508,1.784375,-0.56125,0.7395,514.125,-0.7554,-0.377666666666667,-0.0457666666666667,51.922,25.862,181.28,531.817,0.5696,-0.7135,-0.2713,-1.1875,-1.3415,-0.332,0.044,-0.497866666666667,0.8312,0.0608,-2.64266666666667,-0.183,2.13433333333333,421.415,0,1,0,0
24-May-2018 13:24:59,189.5,-0.17336,-0.8501,0.49508,1.784375,-0.56125,0.7395,514.125,-0.7554,-0.377666666666667,-0.0457666666666667,51.922,25.862,181.28,531.817,0.5696,-0.7135,-0.2713,-1.1875,-1.3415,-0.332,0.044,-0.497866666666667,0.8312,0.0608,-2.64266666666667,-0.183,2.13433333333333,421.415,0,1,0,0
24-May-2018 13:24:59,189.5,-0.17336,-0.8501,0.49508,1.784375,-0.56125,0.7395,514.125,-0.7554,-0.377666666666667,-0.0457666666666667,51.922,25.862,181.28,531.817,0.5696,-0.7135,-0.2713,-1.1875,-1.3415,-0.332,0.044,-0.497866666666667,0.8312,0.0608,-2.64266666666667,-0.183,2.13433333333333,421.415,0,1,0,0
24-May-2018 13:25:00,61.375,-0.1752,-0.85224,0.49296,-0.126375,0.671125,0.16875,519.79625,-0.99155,0.642475,-0.118725,196.89,-48.0102222222222,88.7533333333333,531.817,0.571516666666667,-0.71445,-0.2778,-0.658428571428571,-0.833571428571429,-0.11,0.044,-0.492071428571429,0.834342857142857,0.0716285714285714,0.836428571428571,0.618714285714286,-0.104571428571429,422.726,0,1,0,0
24-May-2018 13:25:00,61.375,-0.1752,-0.85224,0.49296,-0.126375,0.671125,0.16875,519.79625,-0.99155,0.642475,-0.118725,196.89,-48.0102222222222,88.7533333333333,531.817,0.571516666666667,-0.71445,-0.2778,-0.658428571428571,-0.833571428571429,-0.11,0.044,-0.492071428571429,0.834342857142857,0.0716285714285714,0.836428571428571,0.618714285714286,-0.104571428571429,422.726,0,1,0,0
24-May-2018 13:25:00,61.375,-0.1752,-0.85224,0.49296,-0.126375,0.671125,0.16875,519.79625,-0.99155,0.642475,-0.118725,196.89,-48.0102222222222,88.7533333333333,531.817,0.571516666666667,-0.71445,-0.2778,-0.658428571428571,-0.833571428571429,-0.11,0.044,-0.492071428571429,0.834342857142857,0.0716285714285714,0.836428571428571,0.618714285714286,-0.104571428571429,422.726,0,1,0,0
24-May-2018 13:25:00,61.375,-0.1752,-0.85224,0.49296,-0.126375,0.671125,0.16875,519.79625,-0.99155,0.642475,-0.118725,196.89,-48.0102222222222,88.7533333333333,531.817,0.571516666666667,-0.71445,-0.2778,-0.658428571428571,-0.833571428571429,-0.11,0.044,-0.492071428571429,0.834342857142857,0.0716285714285714,0.836428571428571,0.618714285714286,-0.104571428571429,422.726,0,1,0,0
24-May-2018 13:25:01,-41.3,-0.174614285714286,-0.853457142857143,0.491228571428571,1.555,-0.535666666666667,0.589833333333333,515.469666666667,-0.925875,0.445625,-0.024975,-45.1425,3.95125,-15.236625,531.817,0.572514285714286,-0.714242857142857,-0.279871428571429,-0.535,-0.878333333333333,-0.239833333333333,0.044,-0.4932,0.830775,0.066475,0.061,0.061,0.296285714285714,424.7018,1,1,0,0
24-May-2018 13:25:01,-41.3,-0.174614285714286,-0.853457142857143,0.491228571428571,1.555,-0.535666666666667,0.589833333333333,515.469666666667,-0.925875,0.445625,-0.024975,-45.1425,3.95125,-15.236625,531.817,0.572514285714286,-0.714242857142857,-0.279871428571429,-0.535,-0.878333333333333,-0.239833333333333,0.044,-0.4932,0.830775,0.066475,0.061,0.061,0.296285714285714,424.7018,1,1,0,0
24-May-2018 13:25:01,-41.3,-0.174614285714286,-0.853457142857143,0.491228571428571,1.555,-0.535666666666667,0.589833333333333,515.469666666667,-0.925875,0.445625,-0.024975,-45.1425,3.95125,-15.236625,531.817,0.572514285714286,-0.714242857142857,-0.279871428571429,-0.535,-0.878333333333333,-0.239833333333333,0.044,-0.4932,0.830775,0.066475,0.061,0.061,0.296285714285714,424.7018,1,1,0,0
24-May-2018 13:25:01,-41.3,-0.174614285714286,-0.853457142857143,0.491228571428571,1.555,-0.535666666666667,0.589833333333333,515.469666666667,-0.925875,0.445625,-0.024975,-45.1425,3.95125,-15.236625,531.817,0.572514285714286,-0.714242857142857,-0.279871428571429,-0.535,-0.878333333333333,-0.239833333333333,0.044,-0.4932,0.830775,0.066475,0.061,0.061,0.296285714285714,424.7018,1,1,0,0
24-May-2018 13:25:02,-42.5,-0.174771428571429,-0.849257142857143,0.499714285714286,0.71675,0.1995,0.480375,519.431,-0.970225,0.31495,-0.129025,-7.81714285714286,-12.9168571428571,-7.55142857142857,528.165333333333,0.571842857142857,-0.716042857142857,-0.2748,-0.4718,-0.594,-0.083,0.044,-0.4875,0.836675,0.077575,0.9756,0.5246,-0.0976,424.526,0,1,1,1
24-May-2018 13:25:02,-42.5,-0.174771428571429,-0.849257142857143,0.499714285714286,0.71675,0.1995,0.480375,519.431,-0.970225,0.31495,-0.129025,-7.81714285714286,-12.9168571428571,-7.55142857142857,528.165333333333,0.571842857142857,-0.716042857142857,-0.2748,-0.4718,-0.594,-0.083,0.044,-0.4875,0.836675,0.077575,0.9756,0.5246,-0.0976,424.526,0,1,1,1
24-May-2018 13:25:02,-42.5,-0.174771428571429,-0.849257142857143,0.499714285714286,0.71675,0.1995,0.480375,519.431,-0.970225,0.31495,-0.129025,-7.81714285714286,-12.9168571428571,-7.55142857142857,528.165333333333,0.571842857142857,-0.716042857142857,-0.2748,-0.4718,-0.594,-0.083,0.044,-0.4875,0.836675,0.077575,0.9756,0.5246,-0.0976,424.526,0,1,1,1
24-May-2018 13:25:02,-42.5,-0.174771428571429,-0.849257142857143,0.499714285714286,0.71675,0.1995,0.480375,519.431,-0.970225,0.31495,-0.129025,-7.81714285714286,-12.9168571428571,-7.55142857142857,528.165333333333,0.571842857142857,-0.716042857142857,-0.2748,-0.4718,-0.594,-0.083,0.044,-0.4875,0.836675,0.077575,0.9756,0.5246,-0.0976,424.526,0,1,1,1
