TIME,HELMET_RAW,BELT_ACC_X,BELT_ACC_Y,BELT_ACC_Z,BELT_ANG_X,BELT_ANG_Y,BELT_ANG_Z,BELT_LUMINOSITY,NECK_ACC_X,NECK_ACC_Y,NECK_ACC_Z,NECK_ANG_X,NECK_ANG_Y,NECK_ANG_Z,NECK_LUMINOSITY,PCKT_ACC_X,PCKT_ACC_Y,PCKT_ACC_Z,PCKT_ANG_X,PCKT_ANG_Y,PCKT_ANG_Z,PCKT_LUMINOSITY,WRST_ACC_X,WRST_ACC_Y,WRST_ACC_Z,WRST_ANG_X,WRST_ANG_Y,WRST_ANG_Z,WRST_LUMINOSITY,IR_1,IR_2,IR_3,IR_4
24-May-2018 13:25:16,77.9,1.00492,0.14014,0.09672,8.00225,6.4175,-3.5,377.096142857143,-1.10114,-0.14588,-0.20472,-3.96075,-9.48375,-8.814625,74.7405,-0.19402,1.05172,-0.057,-5.644,3.876,3.444,0.0353333333333333,-1.00796666666667,0.00525,0.26375,-41.0124,12.9024,1.3658,683.295666666667,1,1,1,1
24-May-2018 13:25:16,77.9,1.00492,0.14014,0.09672,8.00225,6.4175,-3.5,377.096142857143,-1.10114,-0.14588,-0.20472,-3.96075,-9.48375,-8.814625,74.7405,-0.19402,1.05172,-0.057,-5.644,3.876,3.444,0.0353333333333333,-1.00796666666667,0.00525,0.26375,-41.0124,12.9024,1.3658,683.295666666667,1,1,1,1
24-May-2018 13:25:16,77.9,1.00492,0.14014,0.09672,8.00225,6.4175,-3.5,377.096142857143,-1.10114,-0.14588,-0.20472,-3.96075,-9.48375,-8.814625,74.7405,-0.19402,1.05172,-0.057,-5.644,3.876,3.444,0.0353333333333333,-1.00796666666667,0.00525,0.26375,-41.0124,12.9024,1.3658,683.295666666667,1,1,1,1
24-May-2018 13:25:16,77.9,1.00492,0.14014,0.09672,8.00225,6.4175,-3.5,377.096142857143,-1.10114,-0.14588,-0.20472,-3.96075,-9.48375,-8.814625,74.7405,-0.19402,1.05172,-0.057,-5.644,3.876,3.444,0.0353333333333333,-1.00796666666667,0.00525,0.26375,-41.0124,12.9024,1.3658,683.295666666667,1,1,1,1
24-May-2018 13:25:17,-17.125,0.9468,0.231525,0.155725,16.744,0.864333333333333,2.78683333333333,428.164,-0.96035,-0.078525,-0.14015,-1.9779,1.8729,2.1959,52.407,-0.22165,0.9375,0.127083333333333,-5.6626,28.1816,-7.7302,0.0353333333333333,-0.9475,-0.122985714285714,0.0613,-9.33814285714286,-10.0697142857143,-7.24728571428571,716.568,1,1,1,1
24-May-2018 13:25:17,-17.125,0.9468,0.231525,0.155725,16.744,0.864333333333333,2.78683333333333,428.164,-0.96035,-0.078525,-0.14015,-1.9779,1.8729,2.1959,52.407,-0.22165,0.9375,0.127083333333333,-5.6626,28.1816,-7.7302,0.0353333333333333,-0.9475,-0.122985714285714,0.0613,-9.33814285714286,-10.0697142857143,-7.24728571428571,716.568,1,1,1,1
24-May-2018 13:25:17,-17.125,0.9468,0.231525,0.155725,16.744,0.864333333333333,2.78683333333333,428.164,-0.96035,-0.078525,-0.14015,-1.9779,1.8729,2.1959,52.407,-0.22165,0.9375,0.127083333333333,-5.6626,28.1816,-7.7302,0.0353333333333333,-0.9475,-0.122985714285714,0.0613,-9.33814285714286,-10.0697142857143,-7.24728571428571,716.568,1,1,1,1
24-May-2018 13:25:17,-17.125,0.9468,0.231525,0.155725,16.744,0.864333333333333,2.78683333333333,428.164,-0.96035,-0.078525,-0.14015,-1.9779,1.8729,2.1959,52.407,-0.22165,0.9375,0.127083333333333,-5.6626,28.1816,-7.7302,0.0353333333333333,-0.9475,-0.122985714285714,0.0613,-9.33814285714286,-10.0697142857143,-7.24728571428571,716.568,1,1,1,1
24-May-2018 13:25:18,19.8571428571429,0.78296,0.13598,0.12172,35.873,0.621624999999999,2.625,397.2735,-1.004025,-0.1087,-0.18675,-1.520375,6.8445,-3.083125,52.407,-0.17406,0.94436,0.07326,-4.19066666666667,-9.82033333333333,30.7466666666667,0.0353333333333333,-0.9633,0.04926,0.32832,12.6828,-36.4756,19.3658,692.474333333333,1,1,1,1
24-May-2018 13:25:18,19.8571428571429,0.78296,0.13598,0.12172,35.873,0.621624999999999,2.625,397.2735,-1.004025,-0.1087,-0.18675,-1.520375,6.8445,-3.083125,52.407,-0.17406,0.94436,0.07326,-4.19066666666667,-9.82033333333333,30.7466666666667,0.0353333333333333,-0.9633,0.04926,0.32832,12.6828,-36.4756,19.3658,692.474333333333,1,1,1,1
24-May-2018 13:25:18,19.8571428571429,0.78296,0.13598,0.12172,35.873,0.621624999999999,2.625,397.2735,-1.004025,-0.1087,-0.18675,-1.520375,6.8445,-3.083125,52.407,-0.17406,0.94436,0.07326,-4.19066666666667,-9.82033333333333,30.7466666666667,0.0353333333333333,-0.9633,0.04926,0.32832,12.6828,-36.4756,19.3658,692.474333333333,1,1,1,1
24-May-2018 13:25:18,19.8571428571429,0.78296,0.13598,0.12172,35.873,0.621624999999999,2.625,397.2735,-1.004025,-0.1087,-0.18675,-1.520375,6.8445,-3.083125,52.407,-0.17406,0.94436,0.07326,-4.19066666666667,-9.82033333333333,30.7466666666667,0.0353333333333333,-0.9633,0.04926,0.32832,12.6828,-36.4756,19.3658,692.474333333333,1,1,1,1
24-May-2018 13:25:19,250.888888888889,0.524475,-0.376575,0.74785,-64.4,73.7033333333333,87.5833333333333,172.448666666667,-1.016075,-0.11865,-0.182425,0.4665,-2.015375,-1.86475,44.4116666666667,0.588525,-0.1086,-0.25055,-54.0714285714286,-49.4157142857143,119.412857142857,0.0353333333333333,-0.08224,0.49742,0.57178,22.8542,-63.0358,-63.9496,683.8545,1,1,1,0
24-May-2018 13:25:19,250.888888888889,0.524475,-0.376575,0.74785,-64.4,73.7033333333333,87.5833333333333,172.448666666667,-1.016075,-0.11865,-0.182425,0.4665,-2.015375,-1.86475,44.4116666666667,0.588525,-0.1086,-0.25055,-54.0714285714286,-49.4157142857143,119.412857142857,0.0353333333333333,-0.08224,0.49742,0.57178,22.8542,-63.0358,-63.9496,683.8545,1,1,1,0
24-May-2018 13:25:19,250.888888888889,0.524475,-0.376575,0.74785,-64.4,73.7033333333333,87.5833333333333,172.448666666667,-1.016075,-0.11865,-0.182425,0.4665,-2.015375,-1.86475,44.4116666666667,0.588525,-0.1086,-0.25055,-54.0714285714286,-49.4157142857143,119.412857142857,0.0353333333333333,-0.08224,0.49742,0.57178,22.8542,-63.0358,-63.9496,683.8545,1,1,1,0
24-May-2018 13:25:19,250.888888888889,0.524475,-0.376575,0.74785,-64.4,73.7033333333333,87.5833333333333,172.448666666667,-1.016075,-0.11865,-0.182425,0.4665,-2.015375,-1.86475,44.4116666666667,0.588525,-0.1086,-0.25055,-54.0714285714286,-49.4157142857143,119.412857142857,0.0353333333333333,-0.08224,0.49742,0.57178,22.8542,-63.0358,-63.9496,683.8545,1,1,1,0
24-May-2018 13:25:20,381.8,-0.11895,-0.9454,-0.142333333333333,7.25485714285714,-24.8828571428571,-23.9902857142857,240.730666666667,-0.982516666666667,-0.1141,-0.185383333333333,-0.349625,2.661125,0.4355,28.421,0.46735,-0.1699,-0.90085,-13.58,-34.57,-23.305,0.0353333333333333,-0.646,0.5436,-0.21475,34.817,22.2865,-109.997,596.838,0,0,0,0
24-May-2018 13:25:20,381.8,-0.11895,-0.9454,-0.142333333333333,7.25485714285714,-24.8828571428571,-23.9902857142857,240.730666666667,-0.982516666666667,-0.1141,-0.185383333333333,-0.349625,2.661125,0.4355,28.421,0.46735,-0.1699,-0.90085,-13.58,-34.57,-23.305,0.0353333333333333,-0.646,0.5436,-0.21475,34.817,22.2865,-109.997,596.838,0,0,0,0
24-May-2018 13:25:20,381.8,-0.11895,-0.9454,-0.142333333333333,7.25485714285714,-24.8828571428571,-23.9902857142857,240.730666666667,-0.982516666666667,-0.1141,-0.185383333333333,-0.349625,2.661125,0.4355,28.421,0.46735,-0.1699,-0.90085,-13.58,-34.57,-23.305,0.0353333333333333,-0.646,0.5436,-0.21475,34.817,22.2865,-109.997,596.838,0,0,0,0
24-May-2018 13:25:20,381.8,-0.11895,-0.9454,-0.142333333333333,7.25485714285714,-24.8828571428571,-23.9902857142857,240.730666666667,-0.982516666666667,-0.1141,-0.185383333333333,-0.349625,2.661125,0.4355,28.421,0.46735,-0.1699,-0.90085,-13.58,-34.57,-23.305,0,-0.646,0.5436,-0.21475,34.817,22.2865,-109.997,596.838,0,0,0,0
24-May-2018 13:25:21,413.1,-0.2053,-0.958083333333333,0.0915833333333333,-2.528,0.621833333333333,0.367,289.512,-0.98265,-0.119116666666667,-0.194633333333333,-0.197714285714286,2.77028571428571,-1.09285714285714,28.5885,0.48196,-0.15822,-0.75164,2.294,7.426,-0.3034,0.044,-0.544816666666667,0.772116666666667,-0.1821,-15.2912222222222,-8.21822222222222,9.41055555555555,489.783,0,1,0,0
24-May-2018 13:25:21,413.1,-0.2053,-0.958083333333333,0.0915833333333333,-2.528,0.621833333333333,0.367,289.512,-0.98265,-0.119116666666667,-0.194633333333333,-0.197714285714286,2.77028571428571,-1.09285714285714,28.5885,0.48196,-0.15822,-0.75164,2.294,7.426,-0.3034,0.044,-0.544816666666667,0.772116666666667,-0.1821,-15.2912222222222,-8.21822222222222,9.41055555555555,489.783,0,1,0,0
24-May-2018 13:25:21,413.1,-0.2053,-0.958083333333333,0.0915833333333333,-2.528,0.621833333333333,0.367,289.512,-0.98265,-0.119116666666667,-0.194633333333333,-0.197714285714286,2.77028571428571,-1.09285714285714,28.5885,0.48196,-0.15822,-0.75164,2.294,7.426,-0.3034,0.044,-0.544816666666667,0.772116666666667,-0.1821,-15.2912222222222,-8.21822222222222,9.41055555555555,489.783,0,1,0,0
24-May-2018 13:25:21,413.1,-0.2053,-0.958083333333333,0.0915833333333333,-2.528,0.621833333333333,0.367,289.512,-0.98265,-0.119116666666667,-0.194633333333333,-0.197714285714286,2.77028571428571,-1.09285714285714,28.5885,0.48196,-0.15822,-0.75164,2.294,7.426,-0.3034,0.044,-0.544816666666667,0.772116666666667,-0.1821,-15.2912222222222,-8.21822222222222,9.41055555555555,489.783,0,1,0,0
24-May-2018 13:25:22,276.625,-0.208466666666667,-0.9605,0.0889,1.768,-0.425,0.7015,289.512,-0.9857,-0.1261,-0.2048,-0.09,1.78325,-0.4675,28.756,0.5061,-0.1667,-0.75365,1.22,2.744,-0.3034,0.044,-0.4938,0.8348,-0.0267,-15.2912222222222,-8.21822222222222,9.41055555555555,460.751,1,1,0,0
24-May-2018 13:25:22,276.625,-0.208466666666667,-0.9605,0.0889,1.768,-0.425,0.7015,289.512,-0.9857,-0.1261,-0.2048,-0.09,1.78325,-0.4675,28.756,0.5061,-0.1667,-0.75365,1.22,2.744,-0.3034,0.044,-0.4938,0.8348,-0.0267,-15.2912222222222,-8.21822222222222,9.41055555555555,460.751,1,1,0,0
24-May-2018 13:25:22,276.625,-0.208466666666667,-0.9605,0.0889,1.768,-0.425,0.7015,289.512,-0.9857,-0.1261,-0.2048,-0.09,1.78325,-0.4675,28.756,0.5061,-0.1667,-0.75365,1.22,2.744,-0.3034,0.044,-0.4938,0.8348,-0.0267,-15.2912222222222,-8.21822222222222,9.41055555555555,460.751,1,1,0,0
24-May-2018 13:25:22,276.625,-0.208466666666667,-0.9605,0.0889,1.768,-0.425,0.7015,289.512,-0.9857,-0.1261,-0.2048,-0.09,1.78325,-0.4675,28.756,0.5061,-0.1667,-0.75365,1.22,2.744,0,0,-0.4938,0.8348,-0.0267,0,0,0,460.751,1,1,0,0
24-May-2018 13:25:23,40.5555555555556,-0.2076,-0.9609,0.0873666666666667,0.0316666666666667,0.477833333333333,0.264333333333333,289.512,-0.98844,-0.12738,-0.20858,0.1586,1.2318,-0.1786,28.0495,0.50585,-0.164775,-0.7571,-0.79,-1.4775,-0.255,0.088,-0.501366666666667,0.830366666666667,-0.0267,0.7806,0.3904,-0.4878,463.842666666667,0,1,1,1
24-May-2018 13:25:23,40.5555555555556,-0.2076,-0.9609,0.0873666666666667,0.0316666666666667,0.477833333333333,0.264333333333333,289.512,-0.98844,-0.12738,-0.20858,0.1586,1.2318,-0.1786,28.0495,0.50585,-0.164775,-0.7571,-0.79,-1.4775,-0.255,0.088,-0.501366666666667,0.830366666666667,-0.0267,0.7806,0.3904,-0.4878,463.842666666667,0,1,1,1
24-May-2018 13:25:23,40.5555555555556,-0.2076,-0.9609,0.0873666666666667,0.0316666666666667,0.477833333333333,0.264333333333333,289.512,-0.98844,-0.12738,-0.20858,0.1586,1.2318,-0.1786,28.0495,0.50585,-0.164775,-0.7571,-0.79,-1.4775,-0.255,0.088,-0.501366666666667,0.830366666666667,-0.0267,0.7806,0.3904,-0.4878,463.842666666667,0,1,1,1
24-May-2018 13:25:23,40.5555555555556,-0.2076,-0.9609,0.0873666666666667,0.0316666666666667,0.477833333333333,0.264333333333333,289.512,-0.98844,-0.12738,-0.20858,0.1586,1.2318,-0.1786,28.0495,0.50585,-0.164775,-0.7571,-0.79,-1.4775,-0.255,0.088,-0.501366666666667,0.830366666666667,-0.0267,0.7806,0.3904,-0.4878,463.842666666667,0,1,1,1
24-May-2018 13:25:24,-10.8,-0.207566666666667,-0.9623,0.0802888888888889,0.86925,-0.058875,0.373625,289.512,-0.98862,-0.12976,-0.21128,0.237222222222222,0.908,0.00144444444444445,27.343,0.504671428571429,-0.164014285714286,-0.757742857142857,-0.582,-0.91,-0.24,0.088,-0.5084,0.822925,-0.032175,0.444142857142857,0.366,-0.148,462.0725,1,1,1,1
24-May-2018 13:25:24,-10.8,-0.207566666666667,-0.9623,0.0802888888888889,0.86925,-0.058875,0.373625,289.512,-0.98862,-0.12976,-0.21128,0.237222222222222,0.908,0.00144444444444445,27.343,0.504671428571429,-0.164014285714286,-0.757742857142857,-0.582,-0.91,-0.24,0.088,-0.5084,0.822925,-0.032175,0.444142857142857,0.366,-0.148,462.0725,1,1,1,1
24-May-2018 13:25:24,-10.8,-0.207566666666667,-0.9623,0.0802888888888889,0.86925,-0.058875,0.373625,289.512,-0.98862,-0.12976,-0.21128,0.237222222222222,0.908,0.00144444444444445,27.343,0.504671428571429,-0.164014285714286,-0.757742857142857,-0.582,-0.91,-0.24,0.088,-0.5084,0.822925,-0.032175,0.444142857142857,0.366,-0.148,462.0725,1,1,1,1
24-May-2018 13:25:24,-10.8,-0.207566666666667,-0.9623,0.0802888888888889,0.86925,-0.058875,0.373625,289.512,-0.98862,-0.12976,-0.21128,0.237222222222222,0.908,0.00144444444444445,27.343,0.504671428571429,-0.164014285714286,-0.757742857142857,-0.582,-0.91,-0.24,0.088,-0.5084,0.822925,-0.032175,0.444142857142857,0.366,-0.148,462.0725,1,1,1,1
24-May-2018 13:25:25,-66.625,-0.2071,-0.96185,0.08915,0.945333333333333,-0.0788333333333333,0.376166666666667,296.2114,-0.9875,-0.13056,-0.21252,0.270142857142857,0.784285714285714,0.149428571428571,26.8703333333333,0.503342857142857,-0.163057142857143,-0.758385714285714,-0.543333333333333,-0.93,-0.18,0.088,-0.497866666666667,0.833633333333333,-0.01695,0.259125,0.312625,-0.144875,463.311666666667,1,1,1,1
24-May-2018 13:25:25,-66.625,-0.2071,-0.96185,0.08915,0.945333333333333,-0.0788333333333333,0.376166666666667,296.2114,-0.9875,-0.13056,-0.21252,0.270142857142857,0.784285714285714,0.149428571428571,26.8703333333333,0.503342857142857,-0.163057142857143,-0.758385714285714,-0.543333333333333,-0.93,-0.18,0.088,-0.497866666666667,0.833633333333333,-0.01695,0.259125,0.312625,-0.144875,463.311666666667,1,1,1,1
24-May-2018 13:25:25,-66.625,-0.2071,-0.96185,0.08915,0.945333333333333,-0.0788333333333333,0.376166666666667,296.2114,-0.9875,-0.13056,-0.21252,0.270142857142857,0.784285714285714,0.149428571428571,26.8703333333333,0.503342857142857,-0.163057142857143,-0.758385714285714,-0.543333333333333,-0.93,-0.18,0.088,-0.497866666666667,0.833633333333333,-0.01695,0.259125,0.312625,-0.144875,463.311666666667,1,1,1,1
24-May-2018 13:25:25,-66.625,-0.2071,-0.96185,0.08915,0.945333333333333,-0.0788333333333333,0.376166666666667,296.2114,-0.9875,-0.13056,-0.21252,0.270142857142857,0.784285714285714,0.149428571428571,26.8703333333333,0.503342857142857,-0.163057142857143,-0.758385714285714,-0.543333333333333,-0.93,-0.18,0.088,-0.497866666666667,0.833633333333333,-0.01695,0.259125,0.312625,-0.144875,463.311666666667,1,1,1,1
