TIME,HELMET_RAW,BELT_ACC_X,BELT_ACC_Y,BELT_ACC_Z,BELT_ANG_X,BELT_ANG_Y,BELT_ANG_Z,BELT_LUMINOSITY,NECK_ACC_X,NECK_ACC_Y,NECK_ACC_Z,NECK_ANG_X,NECK_ANG_Y,NECK_ANG_Z,NECK_LUMINOSITY,PCKT_ACC_X,PCKT_ACC_Y,PCKT_ACC_Z,PCKT_ANG_X,PCKT_ANG_Y,PCKT_ANG_Z,PCKT_LUMINOSITY,WRST_ACC_X,WRST_ACC_Y,WRST_ACC_Z,WRST_ANG_X,WRST_ANG_Y,WRST_ANG_Z,WRST_LUMINOSITY,IR_1,IR_2,IR_3,IR_4
24-May-2018 14:13:28,213.888888888889,0.95985,0.06895,0.083775,0.4422,0.2826,0.683,383.3574,0,0,0,0,0,0,0,0.96592,0.01654,0.1568,73.268,-19.6395,6.72616666666667,0.0293333333333333,-0.9567,-0.151675,0.100275,11.4635,9.192,5.50325,517.5135,1,0,1,1
24-May-2018 14:13:28,213.888888888889,0.95985,0.06895,0.083775,0.4422,0.2826,0.683,383.3574,0,0,0,0,0,0,0,0.96592,0.01654,0.1568,73.268,-19.6395,6.72616666666667,0.0293333333333333,-0.9567,-0.151675,0.100275,11.4635,9.192,5.50325,517.5135,1,0,1,1
24-May-2018 14:13:28,213.888888888889,0.95985,0.06895,0.083775,0.4422,0.2826,0.683,383.3574,0,0,0,0,0,0,0,0.96592,0.01654,0.1568,73.268,-19.6395,6.72616666666667,0.0293333333333333,-0.9567,-0.151675,0.100275,11.4635,9.192,5.50325,517.5135,1,0,1,1
24-May-2018 14:13:28,213.888888888889,0.95985,0.06895,0.083775,0.4422,0.2826,0.683,383.3574,0,0,0,0,0,0,0,0.96592,0.01654,0.1568,73.268,-19.6395,6.72616666666667,0.0293333333333333,-0.9567,-0.151675,0.100275,11.4635,9.192,5.50325,517.5135,1,0,1,1
24-May-2018 14:13:29,164.571428571429,0.9594,0.06954,0.08364,-3.1094,-1.2174,-0.8514,386.272285714286,0,0,0,0,0,0,0,0.94845,-0.08717,0.14061,2.81666666666667,6.63366666666667,2.33933333333333,0.022,-0.92905,-0.140116666666667,0.0678666666666667,3.0244,-0.4268,-2.0732,480.265333333333,1,0,1,1
24-May-2018 14:13:29,164.571428571429,0.9594,0.06954,0.08364,-3.1094,-1.2174,-0.8514,386.272285714286,0,0,0,0,0,0,0,0.94845,-0.08717,0.14061,2.81666666666667,6.63366666666667,2.33933333333333,0.022,-0.92905,-0.140116666666667,0.0678666666666667,3.0244,-0.4268,-2.0732,480.265333333333,1,0,1,1
24-May-2018 14:13:29,164.571428571429,0.9594,0.06954,0.08364,-3.1094,-1.2174,-0.8514,386.272285714286,0,0,0,0,0,0,0,0.94845,-0.08717,0.14061,2.81666666666667,6.63366666666667,2.33933333333333,0.022,-0.92905,-0.140116666666667,0.0678666666666667,3.0244,-0.4268,-2.0732,480.265333333333,1,0,1,1
24-May-2018 14:13:29,164.571428571429,0.9594,0.06954,0.08364,-3.1094,-1.2174,-0.8514,386.272285714286,0,0,0,0,0,0,0,0.94845,-0.08717,0.14061,2.81666666666667,6.63366666666667,2.33933333333333,0.022,-0.92905,-0.140116666666667,0.0678666666666667,3.0244,-0.4268,-2.0732,480.265333333333,1,0,1,1
24-May-2018 14:13:30,-158.6,0.97738,0.19486,0.12078,-26.435,-4.38525,-3.3175,377.284857142857,0,0,0,0,0,0,0,0.961942857142857,-0.0467571428571429,0.1887,-1.82816666666667,1.94116666666667,0.907333333333333,0.088,-0.928214285714286,-0.151828571428571,0.0395285714285714,31.19675,3.247,8.010625,437.316333333333,1,0.5,1,1
24-May-2018 14:13:30,-158.6,0.97738,0.19486,0.12078,-26.435,-4.38525,-3.3175,377.284857142857,0,0,0,0,0,0,0,0.961942857142857,-0.0467571428571429,0.1887,-1.82816666666667,1.94116666666667,0.907333333333333,0.088,-0.928214285714286,-0.151828571428571,0.0395285714285714,31.19675,3.247,8.010625,437.316333333333,1,0.5,1,1
24-May-2018 14:13:30,-158.6,0.97738,0.19486,0.12078,-26.435,-4.38525,-3.3175,377.284857142857,0,0,0,0,0,0,0,0.961942857142857,-0.0467571428571429,0.1887,-1.82816666666667,1.94116666666667,0.907333333333333,0.088,-0.928214285714286,-0.151828571428571,0.0395285714285714,31.19675,3.247,8.010625,437.316333333333,1,0.5,1,1
24-May-2018 14:13:30,-158.6,0.97738,0.19486,0.12078,-26.435,-4.38525,-3.3175,377.284857142857,0,0,0,0,0,0,0,0.961942857142857,-0.0467571428571429,0.1887,-1.82816666666667,1.94116666666667,0.907333333333333,0.088,-0.928214285714286,-0.151828571428571,0.0395285714285714,31.19675,3.247,8.010625,437.316333333333,1,0.5,1,1
24-May-2018 14:13:31,-295.333333333333,0.943466666666667,0.048,0.0477166666666667,-30.45,-5.954625,2.31075,348.665,0,0,0,0,0,0,0,0.9536875,-0.0489375,0.2445,1.526,-0.996714285714286,0.245857142857143,0.088,-0.9632,-0.08784,0.02876,8.87642857142857,0.609857142857143,-11.9947142857143,442.0094,1,1,1,1
24-May-2018 14:13:31,-295.333333333333,0.943466666666667,0.048,0.0477166666666667,-30.45,-5.954625,2.31075,348.665,0,0,0,0,0,0,0,0.9536875,-0.0489375,0.2445,1.526,-0.996714285714286,0.245857142857143,0.088,-0.9632,-0.08784,0.02876,8.87642857142857,0.609857142857143,-11.9947142857143,442.0094,1,1,1,1
24-May-2018 14:13:31,-295.333333333333,0.943466666666667,0.048,0.0477166666666667,-30.45,-5.954625,2.31075,348.665,0,0,0,0,0,0,0,0.9536875,-0.0489375,0.2445,1.526,-0.996714285714286,0.245857142857143,0.088,-0.9632,-0.08784,0.02876,8.87642857142857,0.609857142857143,-11.9947142857143,442.0094,1,1,1,1
24-May-2018 14:13:31,-295.333333333333,0.943466666666667,0.048,0.0477166666666667,-30.45,-5.954625,2.31075,348.665,0,0,0,0,0,0,0,0.9536875,-0.0489375,0.2445,1.526,-0.996714285714286,0.245857142857143,0.088,-0.9632,-0.08784,0.02876,8.87642857142857,0.609857142857143,-11.9947142857143,442.0094,1,1,1,1
24-May-2018 14:13:32,-244.285714285714,0.950925,0.1510125,-0.011225,-7.42866666666667,-4.05,0.682333333333333,263.349,0,0,0,0,0,0,0,0.954566666666667,-0.0761166666666667,0.231583333333333,5.82333333333333,-1.59166666666667,1.12816666666667,0.044,-0.81202,-0.3316,0.36748,56.7422857142857,-42.3954285714286,-52.4477142857143,408.897,1,1,0,1
24-May-2018 14:13:32,-244.285714285714,0.950925,0.1510125,-0.011225,-7.42866666666667,-4.05,0.682333333333333,263.349,0,0,0,0,0,0,0,0.954566666666667,-0.0761166666666667,0.231583333333333,5.82333333333333,-1.59166666666667,1.12816666666667,0.044,-0.81202,-0.3316,0.36748,56.7422857142857,-42.3954285714286,-52.4477142857143,408.897,1,1,0,1
24-May-2018 14:13:32,-244.285714285714,0.950925,0.1510125,-0.011225,-7.42866666666667,-4.05,0.682333333333333,263.349,0,0,0,0,0,0,0,0.954566666666667,-0.0761166666666667,0.231583333333333,5.82333333333333,-1.59166666666667,1.12816666666667,0.044,-0.81202,-0.3316,0.36748,56.7422857142857,-42.3954285714286,-52.4477142857143,408.897,1,1,0,1
24-May-2018 14:13:32,-244.285714285714,0.950925,0.1510125,-0.011225,-7.42866666666667,-4.05,0.682333333333333,263.349,0,0,0,0,0,0,0,0.954566666666667,-0.0761166666666667,0.231583333333333,5.82333333333333,-1.59166666666667,1.12816666666667,0.044,-0.81202,-0.3316,0.36748,56.7422857142857,-42.3954285714286,-52.4477142857143,408.897,1,1,0,1
24-May-2018 14:13:33,-106.1,0.9576,0.104514285714286,-0.0557428571428571,3.00542857142857,-0.457571428571429,-0.093,212.12625,0,0,0,0,0,0,0,0.954333333333333,-0.0736166666666667,0.236066666666667,-2.103,-0.572857142857143,-0.660428571428571,0.0704,-0.4369,-0.226416666666667,0.857116666666667,-9.76616666666667,-8.51633333333333,-12.8861666666667,674.037333333333,1,0,0,1
24-May-2018 14:13:33,-106.1,0.9576,0.104514285714286,-0.0557428571428571,3.00542857142857,-0.457571428571429,-0.093,212.12625,0,0,0,0,0,0,0,0.954333333333333,-0.0736166666666667,0.236066666666667,-2.103,-0.572857142857143,-0.660428571428571,0.0704,-0.4369,-0.226416666666667,0.857116666666667,-9.76616666666667,-8.51633333333333,-12.8861666666667,674.037333333333,1,0,0,1
24-May-2018 14:13:33,-106.1,0.9576,0.104514285714286,-0.0557428571428571,3.00542857142857,-0.457571428571429,-0.093,212.12625,0,0,0,0,0,0,0,0.954333333333333,-0.0736166666666667,0.236066666666667,-2.103,-0.572857142857143,-0.660428571428571,0.0704,-0.4369,-0.226416666666667,0.857116666666667,-9.76616666666667,-8.51633333333333,-12.8861666666667,674.037333333333,1,0,0,1
24-May-2018 14:13:33,-106.1,0.9576,0.104514285714286,-0.0557428571428571,3.00542857142857,-0.457571428571429,-0.093,212.12625,0,0,0,0,0,0,0,0.954333333333333,-0.0736166666666667,0.236066666666667,-2.103,-0.572857142857143,-0.660428571428571,0.0704,-0.4369,-0.226416666666667,0.857116666666667,-9.76616666666667,-8.51633333333333,-12.8861666666667,674.037333333333,1,0,0,1
24-May-2018 14:13:34,-169.2,0.953183333333333,0.0596333333333333,-0.0682,5.49716666666667,1.443,1.7485,163.000333333333,0,0,0,0,0,0,0,0.955283333333333,-0.0794666666666667,0.222716666666667,0.3165,-1.48833333333333,0.4075,0.0704,-0.494925,-0.70235,0.4782375,-33.292,-21.7275,9.37,474.381666666667,0,0,0.5,1
24-May-2018 14:13:34,-169.2,0.953183333333333,0.0596333333333333,-0.0682,5.49716666666667,1.443,1.7485,163.000333333333,0,0,0,0,0,0,0,0.955283333333333,-0.0794666666666667,0.222716666666667,0.3165,-1.48833333333333,0.4075,0.0704,-0.494925,-0.70235,0.4782375,-33.292,-21.7275,9.37,474.381666666667,0,0,0.5,1
24-May-2018 14:13:34,-169.2,0.953183333333333,0.0596333333333333,-0.0682,5.49716666666667,1.443,1.7485,163.000333333333,0,0,0,0,0,0,0,0.955283333333333,-0.0794666666666667,0.222716666666667,0.3165,-1.48833333333333,0.4075,0.0704,-0.494925,-0.70235,0.4782375,-33.292,-21.7275,9.37,474.381666666667,0,0,0.5,1
24-May-2018 14:13:34,-169.2,0.953183333333333,0.0596333333333333,-0.0682,5.49716666666667,1.443,1.7485,163.000333333333,0,0,0,0,0,0,0,0.955283333333333,-0.0794666666666667,0.222716666666667,0.3165,-1.48833333333333,0.4075,0.0704,-0.494925,-0.70235,0.4782375,-33.292,-21.7275,9.37,474.381666666667,0,0,0.5,1
24-May-2018 14:13:35,-192.111111111111,0.9558,-0.0229142857142857,-0.0467571428571428,42.9152857142857,0.655428571428572,9.486,151.571,0,0,0,0,0,0,0,0.955316666666667,-0.0837333333333333,0.220166666666667,-1.60971428571429,-0.660857142857143,-0.649,0.0704,-0.7335,-0.4742,0.399883333333333,-76.6346666666667,-2.35783333333333,76.128,498.9642,0.5,1,1,1
24-May-2018 14:13:35,-192.111111111111,0.9558,-0.0229142857142857,-0.0467571428571428,42.9152857142857,0.655428571428572,9.486,151.571,0,0,0,0,0,0,0,0.955316666666667,-0.0837333333333333,0.220166666666667,-1.60971428571429,-0.660857142857143,-0.649,0.0704,-0.7335,-0.4742,0.399883333333333,-76.6346666666667,-2.35783333333333,76.128,498.9642,0.5,1,1,1
24-May-2018 14:13:35,-192.111111111111,0.9558,-0.0229142857142857,-0.0467571428571428,42.9152857142857,0.655428571428572,9.486,151.571,0,0,0,0,0,0,0,0.955316666666667,-0.0837333333333333,0.220166666666667,-1.60971428571429,-0.660857142857143,-0.649,0.0704,-0.7335,-0.4742,0.399883333333333,-76.6346666666667,-2.35783333333333,76.128,498.9642,0.5,1,1,1
24-May-2018 14:13:35,-192.111111111111,0.9558,-0.0229142857142857,-0.0467571428571428,42.9152857142857,0.655428571428572,9.486,151.571,0,0,0,0,0,0,0,0.955316666666667,-0.0837333333333333,0.220166666666667,-1.60971428571429,-0.660857142857143,-0.649,0.0704,-0.7335,-0.4742,0.399883333333333,-76.6346666666667,-2.35783333333333,76.128,498.9642,0.5,1,1,1
24-May-2018 14:13:36,-77.6666666666667,0.9350625,0.055575,0.0876125,35.5304444444444,6.29566666666667,-6.62322222222222,151.571,0,0,0,0,0,0,0,0.956114285714286,-0.0761857142857143,0.213457142857143,1.3564,0.8214,-0.1558,0.0704,-0.92016,-0.2502,0.00576,-29.633,3.83375,10.609625,522.511,1,1,0,1
24-May-2018 14:13:36,-77.6666666666667,0.9350625,0.055575,0.0876125,35.5304444444444,6.29566666666667,-6.62322222222222,151.571,0,0,0,0,0,0,0,0.956114285714286,-0.0761857142857143,0.213457142857143,1.3564,0.8214,-0.1558,0.0704,-0.92016,-0.2502,0.00576,-29.633,3.83375,10.609625,522.511,1,1,0,1
24-May-2018 14:13:36,-77.6666666666667,0.9350625,0.055575,0.0876125,35.5304444444444,6.29566666666667,-6.62322222222222,151.571,0,0,0,0,0,0,0,0.956114285714286,-0.0761857142857143,0.213457142857143,1.3564,0.8214,-0.1558,0.0704,-0.92016,-0.2502,0.00576,-29.633,3.83375,10.609625,522.511,1,1,0,1
24-May-2018 14:13:36,-77.6666666666667,0.9350625,0.055575,0.0876125,35.5304444444444,6.29566666666667,-6.62322222222222,151.571,0,0,0,0,0,0,0,0.956114285714286,-0.0761857142857143,0.213457142857143,1.3564,0.8214,-0.1558,0.0704,-0.92016,-0.2502,0.00576,-29.633,3.83375,10.609625,522.511,1,1,0,1
24-May-2018 14:13:37,63.6666666666667,0.9539,0.0941888888888889,0.0460111111111111,-15.67675,-3.991125,-1.802875,151.571,0,0,0,0,0,0,0,0.975783333333333,-0.0467333333333333,0.25235,-71.6,-17.4998,-4.0594,0.0704,-0.9345,-0.197633333333333,-0.0123333333333333,19.014,-5.08116666666667,-0.945333333333333,441.5715,1,0.5,0,1
24-May-2018 14:13:37,63.6666666666667,0.9539,0.0941888888888889,0.0460111111111111,-15.67675,-3.991125,-1.802875,151.571,0,0,0,0,0,0,0,0.975783333333333,-0.0467333333333333,0.25235,-71.6,-17.4998,-4.0594,0.0704,-0.9345,-0.197633333333333,-0.0123333333333333,19.014,-5.08116666666667,-0.945333333333333,441.5715,1,0.5,0,1
24-May-2018 14:13:37,63.6666666666667,0.9539,0.0941888888888889,0.0460111111111111,-15.67675,-3.991125,-1.802875,0,0,0,0,0,0,0,0,0.975783333333333,-0.0467333333333333,0.25235,-71.6,-17.4998,-4.0594,0.0704,-0.9345,-0.197633333333333,-0.0123333333333333,19.014,-5.08116666666667,-0.945333333333333,441.5715,1,0.5,0,1
24-May-2018 14:13:37,63.6666666666667,0.9539,0.0941888888888889,0.0460111111111111,-15.67675,-3.991125,-1.802875,0,0,0,0,0,0,0,0,0.975783333333333,-0.0467333333333333,0.25235,-71.6,-17.4998,-4.0594,0,-0.9345,-0.197633333333333,-0.0123333333333333,19.014,-5.08116666666667,-0.945333333333333,441.5715,1,0.5,0,1
