TIME,HELMET_RAW,BELT_ACC_X,BELT_ACC_Y,BELT_ACC_Z,BELT_ANG_X,BELT_ANG_Y,BELT_ANG_Z,BELT_LUMINOSITY,NECK_ACC_X,NECK_ACC_Y,NECK_ACC_Z,NECK_ANG_X,NECK_ANG_Y,NECK_ANG_Z,NECK_LUMINOSITY,PCKT_ACC_X,PCKT_ACC_Y,PCKT_ACC_Z,PCKT_ANG_X,PCKT_ANG_Y,PCKT_ANG_Z,PCKT_LUMINOSITY,WRST_ACC_X,WRST_ACC_Y,WRST_ACC_Z,WRST_ANG_X,WRST_ANG_Y,WRST_ANG_Z,WRST_LUMINOSITY,IR_1,IR_2,IR_3,IR_4
24-May-2018 12:40:55,51.9,0.4691,0.522385714285714,0.743971428571429,1.433,1.65666666666667,0.315833333333333,3.601,-0.81776,0.08556,-0.57444,-60.7,-7.734375,-21.3875,92.953,0.751466666666667,0.525033333333333,-0.227033333333333,-1.326,0.1248,-0.386,2.494,-0.94995,0.05685,0.0326,3.567125,-0.30475,-1.09,433.28,1,1,1,0
24-May-2018 12:40:55,51.9,0.4691,0.522385714285714,0.743971428571429,1.433,1.65666666666667,0.315833333333333,3.601,-0.81776,0.08556,-0.57444,-60.7,-7.734375,-21.3875,92.953,0.751466666666667,0.525033333333333,-0.227033333333333,-1.326,0.1248,-0.386,2.494,-0.94995,0.05685,0.0326,3.567125,-0.30475,-1.09,433.28,1,1,1,0
24-May-2018 12:40:55,51.9,0.4691,0.522385714285714,0.743971428571429,1.433,1.65666666666667,0.315833333333333,3.601,-0.81776,0.08556,-0.57444,-60.7,-7.734375,-21.3875,92.953,0.751466666666667,0.525033333333333,-0.227033333333333,-1.326,0.1248,-0.386,2.494,-0.94995,0.05685,0.0326,3.567125,-0.30475,-1.09,433.28,1,1,1,0
24-May-2018 12:40:55,51.9,0.4691,0.522385714285714,0.743971428571429,1.433,1.65666666666667,0.315833333333333,3.601,-0.81776,0.08556,-0.57444,-60.7,-7.734375,-21.3875,92.953,0.751466666666667,0.525033333333333,-0.227033333333333,-1.326,0.1248,-0.386,2.494,-0.94995,0.05685,0.0326,3.567125,-0.30475,-1.09,433.28,1,1,1,0
24-May-2018 12:40:56,52.125,0.457757142857143,0.528971428571429,0.748385714285714,-0.0295,-0.615,0.739625,3.573,-0.8444,0.202375,-0.562475,-80.4833333333333,-24.35,-30.9333333333333,91.132,0.733825,0.5333,-0.21905,-4.83,14.34,16.6282,2.39933333333333,-1.12515,-0.0635166666666667,0.416383333333333,34.126,-18.6383333333333,-1.84966666666667,470.882,1,1,1,1
24-May-2018 12:40:56,52.125,0.457757142857143,0.528971428571429,0.748385714285714,-0.0295,-0.615,0.739625,3.573,-0.8444,0.202375,-0.562475,-80.4833333333333,-24.35,-30.9333333333333,91.132,0.733825,0.5333,-0.21905,-4.83,14.34,16.6282,2.39933333333333,-1.12515,-0.0635166666666667,0.416383333333333,34.126,-18.6383333333333,-1.84966666666667,470.882,1,1,1,1
24-May-2018 12:40:56,52.125,0.457757142857143,0.528971428571429,0.748385714285714,-0.0295,-0.615,0.739625,3.573,-0.8444,0.202375,-0.562475,-80.4833333333333,-24.35,-30.9333333333333,91.132,0.733825,0.5333,-0.21905,-4.83,14.34,16.6282,2.39933333333333,-1.12515,-0.0635166666666667,0.416383333333333,34.126,-18.6383333333333,-1.84966666666667,470.882,1,1,1,1
24-May-2018 12:40:56,52.125,0.457757142857143,0.528971428571429,0.748385714285714,-0.0295,-0.615,0.739625,3.573,-0.8444,0.202375,-0.562475,-80.4833333333333,-24.35,-30.9333333333333,91.132,0.733825,0.5333,-0.21905,-4.83,14.34,16.6282,2.39933333333333,-1.12515,-0.0635166666666667,0.416383333333333,34.126,-18.6383333333333,-1.84966666666667,470.882,1,1,1,1
24-May-2018 12:40:57,53,0.73756,0.3486,0.40597,-10.2178571428571,-17.5577142857143,16.2978571428571,3.573,-0.893283333333333,0.0837333333333333,-0.520416666666667,20.0255555555556,18.951,-15.2744444444444,74.06,0.993425,0.314825,0.375925,0.981714285714286,38.3467142857143,6.17042857142857,1.59375,-0.688075,-0.409975,0.341975,-54.938875,-18.041125,-36.9665,470.882,1,1,1,1
24-May-2018 12:40:57,53,0.73756,0.3486,0.40597,-10.2178571428571,-17.5577142857143,16.2978571428571,3.573,-0.893283333333333,0.0837333333333333,-0.520416666666667,20.0255555555556,18.951,-15.2744444444444,74.06,0.993425,0.314825,0.375925,0.981714285714286,38.3467142857143,6.17042857142857,1.59375,-0.688075,-0.409975,0.341975,-54.938875,-18.041125,-36.9665,470.882,1,1,1,1
24-May-2018 12:40:57,53,0.73756,0.3486,0.40597,-10.2178571428571,-17.5577142857143,16.2978571428571,3.573,-0.893283333333333,0.0837333333333333,-0.520416666666667,20.0255555555556,18.951,-15.2744444444444,74.06,0.993425,0.314825,0.375925,0.981714285714286,38.3467142857143,6.17042857142857,1.59375,-0.688075,-0.409975,0.341975,-54.938875,-18.041125,-36.9665,470.882,1,1,1,1
24-May-2018 12:40:57,53,0.73756,0.3486,0.40597,-10.2178571428571,-17.5577142857143,16.2978571428571,3.573,-0.893283333333333,0.0837333333333333,-0.520416666666667,20.0255555555556,18.951,-15.2744444444444,74.06,0.993425,0.314825,0.375925,0.981714285714286,38.3467142857143,6.17042857142857,1.59375,-0.688075,-0.409975,0.341975,-54.938875,-18.041125,-36.9665,0,1,1,1,1
24-May-2018 12:40:58,53,0.800875,0.1674625,0.3067,-0.992333333333333,3.05966666666667,5.04216666666667,3.573,-0.887175,-0.0604,-0.5159,0.284555555555555,-8.87588888888889,-25.8777777777778,74.06,0.886025,0.15645,0.47025,-10.4275,-45.9425,-1.202,1.516,-0.797242857142857,-0.4583,0.194757142857143,23.2235714285714,-0.0958571428571418,34.7474285714286,602.7985,1,1,1,1
24-May-2018 12:40:58,53,0.800875,0.1674625,0.3067,-0.992333333333333,3.05966666666667,5.04216666666667,3.573,-0.887175,-0.0604,-0.5159,0.284555555555555,-8.87588888888889,-25.8777777777778,74.06,0.886025,0.15645,0.47025,-10.4275,-45.9425,-1.202,1.516,-0.797242857142857,-0.4583,0.194757142857143,23.2235714285714,-0.0958571428571418,34.7474285714286,602.7985,1,1,1,1
24-May-2018 12:40:58,53,0.800875,0.1674625,0.3067,-0.992333333333333,3.05966666666667,5.04216666666667,3.573,-0.887175,-0.0604,-0.5159,0.284555555555555,-8.87588888888889,-25.8777777777778,74.06,0.886025,0.15645,0.47025,-10.4275,-45.9425,-1.202,1.516,-0.797242857142857,-0.4583,0.194757142857143,23.2235714285714,-0.0958571428571418,34.7474285714286,602.7985,1,1,1,1
24-May-2018 12:40:58,53,0.800875,0.1674625,0.3067,-0.992333333333333,3.05966666666667,5.04216666666667,3.573,-0.887175,-0.0604,-0.5159,0.284555555555555,-8.87588888888889,-25.8777777777778,74.06,0.886025,0.15645,0.47025,-10.4275,-45.9425,-1.202,1.516,-0.797242857142857,-0.4583,0.194757142857143,23.2235714285714,-0.0958571428571418,34.7474285714286,602.7985,1,1,1,1
24-May-2018 12:40:59,53,0.952325,-0.000125000000000004,0.4715875,-7.69875,3.133125,-1.248125,3.573,-0.834675,-0.059925,-0.513775,14.8136666666667,-4.67222222222222,-14.21,77.1213333333333,0.95718,0.14452,0.23788,-4.3552,-7.6198,0.5002,3.804,-0.95112,-0.03644,0.27696,0.975571428571429,-6.75085714285714,-7.94428571428571,591.074,1,1,1,0
24-May-2018 12:40:59,53,0.952325,-0.000125000000000004,0.4715875,-7.69875,3.133125,-1.248125,3.573,-0.834675,-0.059925,-0.513775,14.8136666666667,-4.67222222222222,-14.21,77.1213333333333,0.95718,0.14452,0.23788,-4.3552,-7.6198,0.5002,3.804,-0.95112,-0.03644,0.27696,0.975571428571429,-6.75085714285714,-7.94428571428571,591.074,1,1,1,0
24-May-2018 12:40:59,53,0.952325,-0.000125000000000004,0.4715875,-7.69875,3.133125,-1.248125,3.573,-0.834675,-0.059925,-0.513775,14.8136666666667,-4.67222222222222,-14.21,77.1213333333333,0.95718,0.14452,0.23788,-4.3552,-7.6198,0.5002,3.804,-0.95112,-0.03644,0.27696,0.975571428571429,-6.75085714285714,-7.94428571428571,591.074,1,1,1,0
24-May-2018 12:40:59,53,0.952325,-0.000125000000000004,0.4715875,-7.69875,3.133125,-1.248125,3.573,-0.834675,-0.059925,-0.513775,14.8136666666667,-4.67222222222222,-14.21,77.1213333333333,0.95718,0.14452,0.23788,-4.3552,-7.6198,0.5002,3.804,-0.95112,-0.03644,0.27696,0.975571428571429,-6.75085714285714,-7.94428571428571,591.074,1,1,1,0
24-May-2018 12:41:00,53.6,0.888966666666667,0.1065,0.383483333333333,0.675142857142857,0.794857142857143,-0.214,8.7208,-0.831875,-0.10495,-0.5921,29.815,10.4355,11.4208333333333,83.244,0.90798,0.22816,0.25724,7.38,3.60366666666667,-4.40666666666667,3.42833333333333,-0.87592,-0.29898,0.37558,-0.254166666666667,-4.7255,-23.069,608.593,1,1,1,0.5
24-May-2018 12:41:00,53.6,0.888966666666667,0.1065,0.383483333333333,0.675142857142857,0.794857142857143,-0.214,8.7208,-0.831875,-0.10495,-0.5921,29.815,10.4355,11.4208333333333,83.244,0.90798,0.22816,0.25724,7.38,3.60366666666667,-4.40666666666667,3.42833333333333,-0.87592,-0.29898,0.37558,-0.254166666666667,-4.7255,-23.069,608.593,1,1,1,0.5
24-May-2018 12:41:00,53.6,0.888966666666667,0.1065,0.383483333333333,0.675142857142857,0.794857142857143,-0.214,8.7208,-0.831875,-0.10495,-0.5921,29.815,10.4355,11.4208333333333,83.244,0.90798,0.22816,0.25724,7.38,3.60366666666667,-4.40666666666667,3.42833333333333,-0.87592,-0.29898,0.37558,-0.254166666666667,-4.7255,-23.069,608.593,1,1,1,0.5
24-May-2018 12:41:00,53.6,0.888966666666667,0.1065,0.383483333333333,0.675142857142857,0.794857142857143,-0.214,8.7208,-0.831875,-0.10495,-0.5921,29.815,10.4355,11.4208333333333,83.244,0.90798,0.22816,0.25724,7.38,3.60366666666667,-4.40666666666667,3.42833333333333,-0.87592,-0.29898,0.37558,-0.254166666666667,-4.7255,-23.069,608.593,1,1,1,0.5
24-May-2018 12:41:01,42.1111111111111,0.803966666666667,0.0989333333333333,0.499,0.736666666666667,-17.1593333333333,3.54183333333333,9.6868,-0.8936,-0.06725,-0.7444,-3.51177777777778,13.2984444444444,25.5711111111111,83.244,0.95,0.47332,0.07926,30.2166666666667,-83.8133333333333,-57.0333333333333,3.63,-1.08026,0.0806,0.28562,-7.02028571428571,40.7751428571429,33.9024285714286,672.535333333333,1,1,1,1
24-May-2018 12:41:01,42.1111111111111,0.803966666666667,0.0989333333333333,0.499,0.736666666666667,-17.1593333333333,3.54183333333333,9.6868,-0.8936,-0.06725,-0.7444,-3.51177777777778,13.2984444444444,25.5711111111111,83.244,0.95,0.47332,0.07926,30.2166666666667,-83.8133333333333,-57.0333333333333,3.63,-1.08026,0.0806,0.28562,-7.02028571428571,40.7751428571429,33.9024285714286,672.535333333333,1,1,1,1
24-May-2018 12:41:01,42.1111111111111,0.803966666666667,0.0989333333333333,0.499,0.736666666666667,-17.1593333333333,3.54183333333333,9.6868,-0.8936,-0.06725,-0.7444,-3.51177777777778,13.2984444444444,25.5711111111111,83.244,0.95,0.47332,0.07926,30.2166666666667,-83.8133333333333,-57.0333333333333,3.63,-1.08026,0.0806,0.28562,-7.02028571428571,40.7751428571429,33.9024285714286,672.535333333333,1,1,1,1
24-May-2018 12:41:01,42.1111111111111,0.803966666666667,0.0989333333333333,0.499,0.736666666666667,-17.1593333333333,3.54183333333333,9.6868,-0.8936,-0.06725,-0.7444,-3.51177777777778,13.2984444444444,25.5711111111111,83.244,0.95,0.47332,0.07926,30.2166666666667,-83.8133333333333,-57.0333333333333,3.63,-1.08026,0.0806,0.28562,-7.02028571428571,40.7751428571429,33.9024285714286,672.535333333333,1,1,1,1
24-May-2018 12:41:02,-329.2,0.449625,0.3736125,0.8322125,5.70166666666667,45.6816666666667,-20.44,7.82133333333333,-0.862325,0.060425,-0.52545,-28.63325,21.606,21.19125,86.7,0.20536,0.5345,-0.70458,0.686666666666669,-21.6316666666667,-1.85933333333333,2.74133333333333,-0.938866666666667,0.16455,0.10315,2.39557142857143,0.461428571428571,-4.72985714285714,427.54,0,0,1,0
24-May-2018 12:41:02,-329.2,0.449625,0.3736125,0.8322125,5.70166666666667,45.6816666666667,-20.44,7.82133333333333,-0.862325,0.060425,-0.52545,-28.63325,21.606,21.19125,86.7,0.20536,0.5345,-0.70458,0.686666666666669,-21.6316666666667,-1.85933333333333,2.74133333333333,-0.938866666666667,0.16455,0.10315,2.39557142857143,0.461428571428571,-4.72985714285714,427.54,0,0,1,0
24-May-2018 12:41:02,-329.2,0.449625,0.3736125,0.8322125,5.70166666666667,45.6816666666667,-20.44,7.82133333333333,-0.862325,0.060425,-0.52545,-28.63325,21.606,21.19125,86.7,0.20536,0.5345,-0.70458,0.686666666666669,-21.6316666666667,-1.85933333333333,2.74133333333333,-0.938866666666667,0.16455,0.10315,2.39557142857143,0.461428571428571,-4.72985714285714,427.54,0,0,1,0
24-May-2018 12:41:02,-329.2,0.449625,0.3736125,0.8322125,5.70166666666667,45.6816666666667,-20.44,7.82133333333333,-0.862325,0.060425,-0.52545,-28.63325,21.606,21.19125,86.7,0.20536,0.5345,-0.70458,0.686666666666669,-21.6316666666667,-1.85933333333333,2.74133333333333,-0.938866666666667,0.16455,0.10315,2.39557142857143,0.461428571428571,-4.72985714285714,427.54,0,0,1,0
24-May-2018 12:41:03,-1204,0.102,0.441228571428571,0.964985714285714,-20.61525,-0.425,0.915,6.79033333333333,-0.85424,0.05466,-0.5693,11.6262222222222,-8.55422222222222,-6.972,90.156,0.29315,0.6567,-0.587283333333333,-7.5095,-7.125,-0.333,2.658,-0.94025,0.116975,0.11115,0.0101666666666667,0.477833333333333,-2.7745,425.0665,0,0,1,0
24-May-2018 12:41:03,-1204,0.102,0.441228571428571,0.964985714285714,-20.61525,-0.425,0.915,6.79033333333333,-0.85424,0.05466,-0.5693,11.6262222222222,-8.55422222222222,-6.972,90.156,0.29315,0.6567,-0.587283333333333,-7.5095,-7.125,-0.333,2.658,-0.94025,0.116975,0.11115,0.0101666666666667,0.477833333333333,-2.7745,425.0665,0,0,1,0
24-May-2018 12:41:03,-1204,0.102,0.441228571428571,0.964985714285714,-20.61525,-0.425,0.915,6.79033333333333,-0.85424,0.05466,-0.5693,11.6262222222222,-8.55422222222222,-6.972,90.156,0.29315,0.6567,-0.587283333333333,-7.5095,-7.125,-0.333,2.658,-0.94025,0.116975,0.11115,0.0101666666666667,0.477833333333333,-2.7745,425.0665,0,0,1,0
24-May-2018 12:41:03,-1204,0.102,0.441228571428571,0.964985714285714,-20.61525,-0.425,0.915,6.79033333333333,-0.85424,0.05466,-0.5693,11.6262222222222,-8.55422222222222,-6.972,90.156,0.29315,0.6567,-0.587283333333333,-7.5095,-7.125,-0.333,2.658,-0.94025,0.116975,0.11115,0.0101666666666667,0.477833333333333,-2.7745,425.0665,0,0,1,0
24-May-2018 12:41:04,-1269.36363636364,0.105842857142857,0.405842857142857,0.954171428571429,4.5325,1.46383333333333,2.5405,8.35466666666667,-0.818075,0.024175,-0.593975,-49.2285714285714,-11.2157142857143,-42.3285714285714,90.156,0.27485,0.70705,-0.55905,-0.6328,-1.132,0.0872,2.86125,-0.942614285714286,0.0942857142857143,0.103514285714286,0.836285714285714,0.914571428571429,-0.923285714285714,414.188,1,0,1,0
24-May-2018 12:41:04,-1269.36363636364,0.105842857142857,0.405842857142857,0.954171428571429,4.5325,1.46383333333333,2.5405,8.35466666666667,-0.818075,0.024175,-0.593975,-49.2285714285714,-11.2157142857143,-42.3285714285714,90.156,0.27485,0.70705,-0.55905,-0.6328,-1.132,0.0872,2.86125,-0.942614285714286,0.0942857142857143,0.103514285714286,0.836285714285714,0.914571428571429,-0.923285714285714,414.188,1,0,1,0
24-May-2018 12:41:04,-1269.36363636364,0.105842857142857,0.405842857142857,0.954171428571429,4.5325,1.46383333333333,2.5405,8.35466666666667,-0.818075,0.024175,-0.593975,-49.2285714285714,-11.2157142857143,-42.3285714285714,90.156,0.27485,0.70705,-0.55905,-0.6328,-1.132,0.0872,2.86125,-0.942614285714286,0.0942857142857143,0.103514285714286,0.836285714285714,0.914571428571429,-0.923285714285714,414.188,1,0,1,0
24-May-2018 12:41:04,-1269.36363636364,0.105842857142857,0.405842857142857,0.954171428571429,4.5325,1.46383333333333,2.5405,8.35466666666667,-0.818075,0.024175,-0.593975,-49.2285714285714,-11.2157142857143,-42.3285714285714,90.156,0.27485,0.70705,-0.55905,-0.6328,-1.132,0.0872,2.86125,-0.942614285714286,0.0942857142857143,0.103514285714286,0.836285714285714,0.914571428571429,-0.923285714285714,414.188,1,0,1,0
