TIME,HELMET_RAW,BELT_ACC_X,BELT_ACC_Y,BELT_ACC_Z,BELT_ANG_X,BELT_ANG_Y,BELT_ANG_Z,BELT_LUMINOSITY,NECK_ACC_X,NECK_ACC_Y,NECK_ACC_Z,NECK_ANG_X,NECK_ANG_Y,NECK_ANG_Z,NECK_LUMINOSITY,PCKT_ACC_X,PCKT_ACC_Y,PCKT_ACC_Z,PCKT_ANG_X,PCKT_ANG_Y,PCKT_ANG_Z,PCKT_LUMINOSITY,WRST_ACC_X,WRST_ACC_Y,WRST_ACC_Z,WRST_ANG_X,WRST_ANG_Y,WRST_ANG_Z,WRST_LUMINOSITY,IR_1,IR_2,IR_3,IR_4
24-May-2018 12:41:08,569,0.074125,0.4170875,0.954425,0.483,-0.621444444444444,1.15255555555556,8.37833333333333,-0.7914,-0.118725,-0.6073,-58.9666666666667,-15.8333333333333,-44.8333333333333,98.027,0.2876,0.642933333333333,-0.6273,0.732,-1.217,2.622,2.684,-0.943571428571429,0.0461428571428571,0.127957142857143,0.470571428571429,0.383428571428571,0.226571428571429,413.896666666667,1,1,1,0
24-May-2018 12:41:08,569,0.074125,0.4170875,0.954425,0.483,-0.621444444444444,1.15255555555556,8.37833333333333,-0.7914,-0.118725,-0.6073,-58.9666666666667,-15.8333333333333,-44.8333333333333,98.027,0.2876,0.642933333333333,-0.6273,0.732,-1.217,2.622,2.684,-0.943571428571429,0.0461428571428571,0.127957142857143,0.470571428571429,0.383428571428571,0.226571428571429,413.896666666667,1,1,1,0
24-May-2018 12:41:08,569,0.074125,0.4170875,0.954425,0.483,-0.621444444444444,1.15255555555556,8.37833333333333,-0.7914,-0.118725,-0.6073,-58.9666666666667,-15.8333333333333,-44.8333333333333,98.027,0.2876,0.642933333333333,-0.6273,0.732,-1.217,2.622,2.684,-0.943571428571429,0.0461428571428571,0.127957142857143,0.470571428571429,0.383428571428571,0.226571428571429,413.896666666667,1,1,1,0
24-May-2018 12:41:08,569,0.074125,0.4170875,0.954425,0.483,-0.621444444444444,1.15255555555556,8.37833333333333,-0.7914,-0.118725,-0.6073,-58.9666666666667,-15.8333333333333,-44.8333333333333,98.027,0.2876,0.642933333333333,-0.6273,0.732,-1.217,2.622,2.684,-0.943571428571429,0.0461428571428571,0.127957142857143,0.470571428571429,0.383428571428571,0.226571428571429,413.896666666667,1,1,1,0
24-May-2018 12:41:09,587.8,0.0907428571428571,0.427057142857143,0.961485714285714,-0.328625,-5.889875,0.915625,7.3655,-0.87752,-0.1257,-0.58682,-34.1888888888889,-10.9173333333333,-27.3888888888889,98.027,0.308733333333333,0.6105,-0.6302,1.161,0.569666666666667,1.34166666666667,2.69,-0.945328571428571,0.0515571428571429,0.123057142857143,1.73357142857143,-8.92842857142857,-8.04885714285714,411.307,1,1,1,0
24-May-2018 12:41:09,587.8,0.0907428571428571,0.427057142857143,0.961485714285714,-0.328625,-5.889875,0.915625,7.3655,-0.87752,-0.1257,-0.58682,-34.1888888888889,-10.9173333333333,-27.3888888888889,98.027,0.308733333333333,0.6105,-0.6302,1.161,0.569666666666667,1.34166666666667,2.69,-0.945328571428571,0.0515571428571429,0.123057142857143,1.73357142857143,-8.92842857142857,-8.04885714285714,411.307,1,1,1,0
24-May-2018 12:41:09,587.8,0.0907428571428571,0.427057142857143,0.961485714285714,-0.328625,-5.889875,0.915625,7.3655,-0.87752,-0.1257,-0.58682,-34.1888888888889,-10.9173333333333,-27.3888888888889,98.027,0.308733333333333,0.6105,-0.6302,1.161,0.569666666666667,1.34166666666667,2.69,-0.945328571428571,0.0515571428571429,0.123057142857143,1.73357142857143,-8.92842857142857,-8.04885714285714,411.307,1,1,1,0
24-May-2018 12:41:09,587.8,0.0907428571428571,0.427057142857143,0.961485714285714,-0.328625,-5.889875,0.915625,7.3655,-0.87752,-0.1257,-0.58682,-34.1888888888889,-10.9173333333333,-27.3888888888889,98.027,0.308733333333333,0.6105,-0.6302,1.161,0.569666666666667,1.34166666666667,2.69,-0.945328571428571,0.0515571428571429,0.123057142857143,1.73357142857143,-8.92842857142857,-8.04885714285714,411.307,1,1,1,0
24-May-2018 12:41:10,539.625,0.50672,0.2669,0.68132,-3.389,-84.425,24.7075,5.3184,-0.859928571428571,-0.1323,-0.572328571428571,-54.9625,-0.570875,-24.675,105.254,0.307228571428571,0.633157142857143,-0.630871428571429,-0.54375,-0.69775,-0.0429999999999999,2.678,-1.13496,0.2691,-0.14048,34.5935,27.6626666666667,37.1341666666667,432.702333333333,1,0,1,0
24-May-2018 12:41:10,539.625,0.50672,0.2669,0.68132,-3.389,-84.425,24.7075,5.3184,-0.859928571428571,-0.1323,-0.572328571428571,-54.9625,-0.570875,-24.675,105.254,0.307228571428571,0.633157142857143,-0.630871428571429,-0.54375,-0.69775,-0.0429999999999999,2.678,-1.13496,0.2691,-0.14048,34.5935,27.6626666666667,37.1341666666667,432.702333333333,1,0,1,0
24-May-2018 12:41:10,539.625,0.50672,0.2669,0.68132,-3.389,-84.425,24.7075,5.3184,-0.859928571428571,-0.1323,-0.572328571428571,-54.9625,-0.570875,-24.675,105.254,0.307228571428571,0.633157142857143,-0.630871428571429,-0.54375,-0.69775,-0.0429999999999999,2.678,-1.13496,0.2691,-0.14048,34.5935,27.6626666666667,37.1341666666667,432.702333333333,1,0,1,0
24-May-2018 12:41:10,539.625,0.50672,0.2669,0.68132,-3.389,-84.425,24.7075,5.3184,-0.859928571428571,-0.1323,-0.572328571428571,-54.9625,-0.570875,-24.675,105.254,0.307228571428571,0.633157142857143,-0.630871428571429,-0.54375,-0.69775,-0.0429999999999999,2.678,-1.13496,0.2691,-0.14048,34.5935,27.6626666666667,37.1341666666667,432.702333333333,1,0,1,0
24-May-2018 12:41:11,413.6,0.922266666666667,0.10735,0.22915,-0.0618750000000006,8.01625,6.742,2.749,-0.851525,-0.047225,-0.5808,-59.02,-7.7988,-9.388,105.254,0.6807,0.47612,-0.16156,-0.19275,18.505,28.26,2.62466666666667,-0.830433333333333,-0.0564333333333333,0.2735,5.1358,-58.0976,-23.5852,510.3675,1,0,1,1
24-May-2018 12:41:11,413.6,0.922266666666667,0.10735,0.22915,-0.0618750000000006,8.01625,6.742,2.749,-0.851525,-0.047225,-0.5808,-59.02,-7.7988,-9.388,105.254,0.6807,0.47612,-0.16156,-0.19275,18.505,28.26,2.62466666666667,-0.830433333333333,-0.0564333333333333,0.2735,5.1358,-58.0976,-23.5852,510.3675,1,0,1,1
24-May-2018 12:41:11,413.6,0.922266666666667,0.10735,0.22915,-0.0618750000000006,8.01625,6.742,2.749,-0.851525,-0.047225,-0.5808,-59.02,-7.7988,-9.388,105.254,0.6807,0.47612,-0.16156,-0.19275,18.505,28.26,2.62466666666667,-0.830433333333333,-0.0564333333333333,0.2735,5.1358,-58.0976,-23.5852,510.3675,1,0,1,1
24-May-2018 12:41:11,413.6,0.922266666666667,0.10735,0.22915,-0.0618750000000006,8.01625,6.742,2.749,-0.851525,-0.047225,-0.5808,-59.02,-7.7988,-9.388,105.254,0.6807,0.47612,-0.16156,-0.19275,18.505,28.26,2.62466666666667,-0.830433333333333,-0.0564333333333333,0.2735,5.1358,-58.0976,-23.5852,510.3675,1,0,1,1
24-May-2018 12:41:12,303,0.866657142857143,0.0295428571428571,0.423242857142857,-4.90271428571428,-8.99114285714286,2.09028571428571,7.65966666666667,-0.836966666666667,0.314233333333333,-0.553483333333333,-44.6,-0.258,16.041125,102.638,0.79625,0.29415,0.1973,-1.374,13.885,4.6825,2.8375,-0.950366666666667,-0.14315,0.287616666666667,-23.07175,0.251625000000001,16.18125,543.217,1,1,1,1
24-May-2018 12:41:12,303,0.866657142857143,0.0295428571428571,0.423242857142857,-4.90271428571428,-8.99114285714286,2.09028571428571,7.65966666666667,-0.836966666666667,0.314233333333333,-0.553483333333333,-44.6,-0.258,16.041125,102.638,0.79625,0.29415,0.1973,-1.374,13.885,4.6825,2.8375,-0.950366666666667,-0.14315,0.287616666666667,-23.07175,0.251625000000001,16.18125,543.217,1,1,1,1
24-May-2018 12:41:12,303,0.866657142857143,0.0295428571428571,0.423242857142857,-4.90271428571428,-8.99114285714286,2.09028571428571,7.65966666666667,-0.836966666666667,0.314233333333333,-0.553483333333333,-44.6,-0.258,16.041125,102.638,0.79625,0.29415,0.1973,-1.374,13.885,4.6825,2.8375,-0.950366666666667,-0.14315,0.287616666666667,-23.07175,0.251625000000001,16.18125,543.217,1,1,1,1
24-May-2018 12:41:12,303,0.866657142857143,0.0295428571428571,0.423242857142857,-4.90271428571428,-8.99114285714286,2.09028571428571,7.65966666666667,-0.836966666666667,0.314233333333333,-0.553483333333333,-44.6,-0.258,16.041125,102.638,0.79625,0.29415,0.1973,-1.374,13.885,4.6825,2.8375,-0.950366666666667,-0.14315,0.287616666666667,-23.07175,0.251625000000001,16.18125,543.217,1,1,1,1
24-May-2018 12:41:13,224.7,0.891666666666667,0.0439,0.3903,-13.574,7.4622,-0.3736,8.679,-0.8064,0.3992,-0.54542,-22.1,5.98325,9.853375,99.6314,0.93944,0.1608,0.28208,-1.5825,-11.26,4.7425,2.432,-0.92238,-0.1197,0.25348,8.30142857142857,-4.99142857142857,-24.2768571428571,667.639333333333,1,1,1,1
24-May-2018 12:41:13,224.7,0.891666666666667,0.0439,0.3903,-13.574,7.4622,-0.3736,8.679,-0.8064,0.3992,-0.54542,-22.1,5.98325,9.853375,99.6314,0.93944,0.1608,0.28208,-1.5825,-11.26,4.7425,2.432,-0.92238,-0.1197,0.25348,8.30142857142857,-4.99142857142857,-24.2768571428571,667.639333333333,1,1,1,1
24-May-2018 12:41:13,224.7,0.891666666666667,0.0439,0.3903,-13.574,7.4622,-0.3736,8.679,-0.8064,0.3992,-0.54542,-22.1,5.98325,9.853375,99.6314,0.93944,0.1608,0.28208,-1.5825,-11.26,4.7425,2.432,-0.92238,-0.1197,0.25348,8.30142857142857,-4.99142857142857,-24.2768571428571,667.639333333333,1,1,1,1
24-May-2018 12:41:13,224.7,0.891666666666667,0.0439,0.3903,-13.574,7.4622,-0.3736,8.679,-0.8064,0.3992,-0.54542,-22.1,5.98325,9.853375,99.6314,0.93944,0.1608,0.28208,-1.5825,-11.26,4.7425,2.432,-0.92238,-0.1197,0.25348,8.30142857142857,-4.99142857142857,-24.2768571428571,667.639333333333,1,1,1,1
24-May-2018 12:41:14,171.2,0.86596,0.02756,0.47114,1.50766666666667,0.663166666666667,0.1655,9.25133333333333,-0.77972,0.38418,-0.57122,-10.3727777777778,3.62444444444444,-12.5211111111111,92.837,0.9254,0.21184,0.21914,-4.4315,-1.3395,-4.27825,2.62866666666667,-0.917333333333333,-0.112816666666667,0.246733333333333,-6.5246,0.4636,0.9144,611.003,1,1,1,1
24-May-2018 12:41:14,171.2,0.86596,0.02756,0.47114,1.50766666666667,0.663166666666667,0.1655,9.25133333333333,-0.77972,0.38418,-0.57122,-10.3727777777778,3.62444444444444,-12.5211111111111,92.837,0.9254,0.21184,0.21914,-4.4315,-1.3395,-4.27825,2.62866666666667,-0.917333333333333,-0.112816666666667,0.246733333333333,-6.5246,0.4636,0.9144,611.003,1,1,1,1
24-May-2018 12:41:14,171.2,0.86596,0.02756,0.47114,1.50766666666667,0.663166666666667,0.1655,9.25133333333333,-0.77972,0.38418,-0.57122,-10.3727777777778,3.62444444444444,-12.5211111111111,92.837,0.9254,0.21184,0.21914,-4.4315,-1.3395,-4.27825,2.62866666666667,-0.917333333333333,-0.112816666666667,0.246733333333333,-6.5246,0.4636,0.9144,611.003,1,1,1,1
24-May-2018 12:41:14,171.2,0.86596,0.02756,0.47114,1.50766666666667,0.663166666666667,0.1655,9.25133333333333,-0.77972,0.38418,-0.57122,-10.3727777777778,3.62444444444444,-12.5211111111111,92.837,0.9254,0.21184,0.21914,-4.4315,-1.3395,-4.27825,2.62866666666667,-0.917333333333333,-0.112816666666667,0.246733333333333,-6.5246,0.4636,0.9144,611.003,1,1,1,1
24-May-2018 12:41:15,134.4,0.873685714285714,0.0286571428571429,0.450657142857143,1.28214285714286,2.83957142857143,0.142142857142857,9.6705,-0.783575,0.394675,-0.54735,10.875,-3.516,-6.63625,92.837,0.932583333333333,0.229166666666667,0.207433333333333,0.459,-2.3145,1.008,2.579,-0.9161,-0.11554,0.2577,1.77833333333333,1.47366666666667,0.741833333333333,609.9154,1,1,1,1
24-May-2018 12:41:15,134.4,0.873685714285714,0.0286571428571429,0.450657142857143,1.28214285714286,2.83957142857143,0.142142857142857,9.6705,-0.783575,0.394675,-0.54735,10.875,-3.516,-6.63625,92.837,0.932583333333333,0.229166666666667,0.207433333333333,0.459,-2.3145,1.008,2.579,-0.9161,-0.11554,0.2577,1.77833333333333,1.47366666666667,0.741833333333333,609.9154,1,1,1,1
24-May-2018 12:41:15,134.4,0.873685714285714,0.0286571428571429,0.450657142857143,1.28214285714286,2.83957142857143,0.142142857142857,9.6705,-0.783575,0.394675,-0.54735,10.875,-3.516,-6.63625,92.837,0.932583333333333,0.229166666666667,0.207433333333333,0.459,-2.3145,1.008,2.579,-0.9161,-0.11554,0.2577,1.77833333333333,1.47366666666667,0.741833333333333,609.9154,1,1,1,1
24-May-2018 12:41:15,134.4,0.873685714285714,0.0286571428571429,0.450657142857143,1.28214285714286,2.83957142857143,0.142142857142857,9.6705,-0.783575,0.394675,-0.54735,10.875,-3.516,-6.63625,92.837,0.932583333333333,0.229166666666667,0.207433333333333,0.459,-2.3145,1.008,2.579,-0.9161,-0.11554,0.2577,1.77833333333333,1.47366666666667,0.741833333333333,609.9154,1,1,1,1
24-May-2018 12:41:16,112,0.7416875,0.0384125,0.373475,6.25466666666667,-5.82566666666667,-0.41,9.6705,-0.8846,0.339925,-0.53355,45.2828571428571,-15.0142857142857,0.193,91.987,0.932233333333333,0.229633333333333,0.220133333333333,-4.415,-2.285,-3.84,2.66,-0.739833333333333,-0.09855,0.407083333333333,8.51633333333333,-11.6156666666667,-1.15866666666667,644.624333333333,1,1,1,1
24-May-2018 12:41:16,112,0.7416875,0.0384125,0.373475,6.25466666666667,-5.82566666666667,-0.41,9.6705,-0.8846,0.339925,-0.53355,45.2828571428571,-15.0142857142857,0.193,91.987,0.932233333333333,0.229633333333333,0.220133333333333,-4.415,-2.285,-3.84,2.66,-0.739833333333333,-0.09855,0.407083333333333,8.51633333333333,-11.6156666666667,-1.15866666666667,644.624333333333,1,1,1,1
24-May-2018 12:41:16,112,0.7416875,0.0384125,0.373475,6.25466666666667,-5.82566666666667,-0.41,9.6705,-0.8846,0.339925,-0.53355,45.2828571428571,-15.0142857142857,0.193,91.987,0.932233333333333,0.229633333333333,0.220133333333333,-4.415,-2.285,-3.84,2.66,-0.739833333333333,-0.09855,0.407083333333333,8.51633333333333,-11.6156666666667,-1.15866666666667,644.624333333333,1,1,1,1
24-May-2018 12:41:16,112,0.7416875,0.0384125,0.373475,6.25466666666667,-5.82566666666667,-0.41,9.6705,-0.8846,0.339925,-0.53355,45.2828571428571,-15.0142857142857,0.193,91.987,0.932233333333333,0.229633333333333,0.220133333333333,-4.415,-2.285,-3.84,2.66,-0.739833333333333,-0.09855,0.407083333333333,8.51633333333333,-11.6156666666667,-1.15866666666667,644.624333333333,1,1,1,1
24-May-2018 12:41:17,96,0.359377777777778,0.41,1.05312222222222,20.84625,108.95125,-34.91125,9.6705,-0.942525,0.06965,-0.396825,23.4,-15.905625,-12.325125,91.987,0.923,0.2091,0.1892,-3.135,0.395,5.6095,2.66,-0.987625,0.145575,0.054675,0.2926,51.4028,28.439,553.6265,1,1,1,0
24-May-2018 12:41:17,96,0.359377777777778,0.41,1.05312222222222,20.84625,108.95125,-34.91125,9.6705,-0.942525,0.06965,-0.396825,23.4,-15.905625,-12.325125,91.987,0.923,0.2091,0.1892,-3.135,0.395,5.6095,2.66,-0.987625,0.145575,0.054675,0.2926,51.4028,28.439,553.6265,1,1,1,0
24-May-2018 12:41:17,96,0.359377777777778,0.41,1.05312222222222,20.84625,108.95125,-34.91125,9.6705,-0.942525,0.06965,-0.396825,23.4,-15.905625,-12.325125,91.987,0.923,0.2091,0.1892,-3.135,0.395,5.6095,2.66,-0.987625,0.145575,0.054675,0.2926,51.4028,28.439,553.6265,1,1,1,0
24-May-2018 12:41:17,96,0.359377777777778,0.41,1.05312222222222,20.84625,108.95125,-34.91125,9.6705,-0.942525,0.06965,-0.396825,23.4,-15.905625,-12.325125,91.987,0.923,0.2091,0.1892,-3.135,0.395,5.6095,0,-0.987625,0.145575,0.054675,0.2926,51.4028,28.439,553.6265,1,1,1,0
