TIME,HELMET_RAW,BELT_ACC_X,BELT_ACC_Y,BELT_ACC_Z,BELT_ANG_X,BELT_ANG_Y,BELT_ANG_Z,BELT_LUMINOSITY,NECK_ACC_X,NECK_ACC_Y,NECK_ACC_Z,NECK_ANG_X,NECK_ANG_Y,NECK_ANG_Z,NECK_LUMINOSITY,PCKT_ACC_X,PCKT_ACC_Y,PCKT_ACC_Z,PCKT_ANG_X,PCKT_ANG_Y,PCKT_ANG_Z,PCKT_LUMINOSITY,WRST_ACC_X,WRST_ACC_Y,WRST_ACC_Z,WRST_ANG_X,WRST_ANG_Y,WRST_ANG_Z,WRST_LUMINOSITY,IR_1,IR_2,IR_3,IR_4
24-May-2018 12:46:13,-335,0.93864,0.0237,0.43092,-44.916,2.468,-22.032,5.647,-0.91256,0.08504,-0.48478,1.61277777777778,0.110222222222222,-5.09122222222222,113.27,0.84785,0.3582,0.586175,10.24,9.146,-14,2.4645,-0.9714,-0.08894,0.2355,68.117375,-17.6065,-31.57775,726.173333333333,1,1,1,1
24-May-2018 12:46:13,-335,0.93864,0.0237,0.43092,-44.916,2.468,-22.032,5.647,-0.91256,0.08504,-0.48478,1.61277777777778,0.110222222222222,-5.09122222222222,113.27,0.84785,0.3582,0.586175,10.24,9.146,-14,2.4645,-0.9714,-0.08894,0.2355,68.117375,-17.6065,-31.57775,726.173333333333,1,1,1,1
24-May-2018 12:46:13,-335,0.93864,0.0237,0.43092,-44.916,2.468,-22.032,5.647,-0.91256,0.08504,-0.48478,1.61277777777778,0.110222222222222,-5.09122222222222,113.27,0.84785,0.3582,0.586175,10.24,9.146,-14,2.4645,-0.9714,-0.08894,0.2355,68.117375,-17.6065,-31.57775,726.173333333333,1,1,1,1
24-May-2018 12:46:13,-335,0.93864,0.0237,0.43092,-44.916,2.468,-22.032,5.647,-0.91256,0.08504,-0.48478,1.61277777777778,0.110222222222222,-5.09122222222222,113.27,0.84785,0.3582,0.586175,10.24,9.146,-14,2.4645,-0.9714,-0.08894,0.2355,68.117375,-17.6065,-31.57775,726.173333333333,1,1,1,1
24-May-2018 12:46:14,-178.222222222222,0.867166666666667,-0.0736666666666667,0.426916666666667,-42.9314285714286,-4.21185714285714,-10.63,5.62725,-0.91054,0.082,-0.4911,2.96755555555556,5.23044444444444,4.458,113.27,0.82255,0.3023,0.572616666666667,11.005,26.763,4.30925,2.349,-0.999283333333333,-0.0289,0.27465,27.63725,0.213375000000001,-4.276,509.941,1,1,1,1
24-May-2018 12:46:14,-178.222222222222,0.867166666666667,-0.0736666666666667,0.426916666666667,-42.9314285714286,-4.21185714285714,-10.63,5.62725,-0.91054,0.082,-0.4911,2.96755555555556,5.23044444444444,4.458,113.27,0.82255,0.3023,0.572616666666667,11.005,26.763,4.30925,2.349,-0.999283333333333,-0.0289,0.27465,27.63725,0.213375000000001,-4.276,509.941,1,1,1,1
24-May-2018 12:46:14,-178.222222222222,0.867166666666667,-0.0736666666666667,0.426916666666667,-42.9314285714286,-4.21185714285714,-10.63,5.62725,-0.91054,0.082,-0.4911,2.96755555555556,5.23044444444444,4.458,113.27,0.82255,0.3023,0.572616666666667,11.005,26.763,4.30925,2.349,-0.999283333333333,-0.0289,0.27465,27.63725,0.213375000000001,-4.276,509.941,1,1,1,1
24-May-2018 12:46:14,-178.222222222222,0.867166666666667,-0.0736666666666667,0.426916666666667,-42.9314285714286,-4.21185714285714,-10.63,5.62725,-0.91054,0.082,-0.4911,2.96755555555556,5.23044444444444,4.458,113.27,0.82255,0.3023,0.572616666666667,11.005,26.763,4.30925,2.349,-0.999283333333333,-0.0289,0.27465,27.63725,0.213375000000001,-4.276,509.941,1,1,1,1
24-May-2018 12:46:15,-812.222222222222,0.916928571428571,0.0208,0.380842857142857,26.53,-4.092,8.56133333333333,6.344,-0.9019,0.09385,-0.504375,1.090125,1.411625,0.952875,112.752666666667,0.880466666666667,0.291,0.469366666666667,49.5375,8.24675,27.1,2.2324,-0.982614285714286,0.0559285714285714,0.2772,-101.8522,23.049,41.915,627.3835,0,1,1,1
24-May-2018 12:46:15,-812.222222222222,0.916928571428571,0.0208,0.380842857142857,26.53,-4.092,8.56133333333333,6.344,-0.9019,0.09385,-0.504375,1.090125,1.411625,0.952875,112.752666666667,0.880466666666667,0.291,0.469366666666667,49.5375,8.24675,27.1,2.2324,-0.982614285714286,0.0559285714285714,0.2772,-101.8522,23.049,41.915,627.3835,0,1,1,1
24-May-2018 12:46:15,-812.222222222222,0.916928571428571,0.0208,0.380842857142857,26.53,-4.092,8.56133333333333,6.344,-0.9019,0.09385,-0.504375,1.090125,1.411625,0.952875,112.752666666667,0.880466666666667,0.291,0.469366666666667,49.5375,8.24675,27.1,2.2324,-0.982614285714286,0.0559285714285714,0.2772,-101.8522,23.049,41.915,627.3835,0,1,1,1
24-May-2018 12:46:15,-812.222222222222,0.916928571428571,0.0208,0.380842857142857,26.53,-4.092,8.56133333333333,6.344,-0.9019,0.09385,-0.504375,1.090125,1.411625,0.952875,112.752666666667,0.880466666666667,0.291,0.469366666666667,49.5375,8.24675,27.1,2.2324,-0.982614285714286,0.0559285714285714,0.2772,-101.8522,23.049,41.915,627.3835,0,1,1,1
24-May-2018 12:46:16,242,0.88385,0.0627875,0.429875,64.1942857142857,0.763428571428572,20.3548571428571,6.755,-0.90394,0.08602,-0.49908,0.611777777777778,-1.05466666666667,-0.808888888888889,111.161666666667,0.88994,0.2726,0.45756,69.245,4.115,36.5075,6.944,-0.94244,-0.02602,0.19102,-89.2487142857143,13.6324285714286,24.5034285714286,829.274333333333,0,1,1,1
24-May-2018 12:46:16,242,0.88385,0.0627875,0.429875,64.1942857142857,0.763428571428572,20.3548571428571,6.755,-0.90394,0.08602,-0.49908,0.611777777777778,-1.05466666666667,-0.808888888888889,111.161666666667,0.88994,0.2726,0.45756,69.245,4.115,36.5075,6.944,-0.94244,-0.02602,0.19102,-89.2487142857143,13.6324285714286,24.5034285714286,829.274333333333,0,1,1,1
24-May-2018 12:46:16,242,0.88385,0.0627875,0.429875,64.1942857142857,0.763428571428572,20.3548571428571,6.755,-0.90394,0.08602,-0.49908,0.611777777777778,-1.05466666666667,-0.808888888888889,111.161666666667,0.88994,0.2726,0.45756,69.245,4.115,36.5075,6.944,-0.94244,-0.02602,0.19102,-89.2487142857143,13.6324285714286,24.5034285714286,829.274333333333,0,1,1,1
24-May-2018 12:46:16,242,0.88385,0.0627875,0.429875,64.1942857142857,0.763428571428572,20.3548571428571,6.755,-0.90394,0.08602,-0.49908,0.611777777777778,-1.05466666666667,-0.808888888888889,111.161666666667,0.88994,0.2726,0.45756,69.245,4.115,36.5075,6.944,-0.94244,-0.02602,0.19102,-89.2487142857143,13.6324285714286,24.5034285714286,829.274333333333,0,1,1,1
24-May-2018 12:46:17,783.5,0.945022222222222,0.0249666666666667,0.359966666666667,69.13725,-1.639875,23.67125,6.755,-0.91124,0.08042,-0.48542,-0.1,-0.918555555555556,-0.519111111111111,110.049,0.914466666666667,0.402966666666667,0.4615,15.1675,1.4275,10.746,4.793,-0.978216666666667,-0.0529166666666667,0.22595,-12.522875,12.942,19.20025,673.754,1,1,0,1
24-May-2018 12:46:17,783.5,0.945022222222222,0.0249666666666667,0.359966666666667,69.13725,-1.639875,23.67125,6.755,-0.91124,0.08042,-0.48542,-0.1,-0.918555555555556,-0.519111111111111,110.049,0.914466666666667,0.402966666666667,0.4615,15.1675,1.4275,10.746,4.793,-0.978216666666667,-0.0529166666666667,0.22595,-12.522875,12.942,19.20025,673.754,1,1,0,1
24-May-2018 12:46:17,783.5,0.945022222222222,0.0249666666666667,0.359966666666667,69.13725,-1.639875,23.67125,6.755,-0.91124,0.08042,-0.48542,-0.1,-0.918555555555556,-0.519111111111111,110.049,0.914466666666667,0.402966666666667,0.4615,15.1675,1.4275,10.746,4.793,-0.978216666666667,-0.0529166666666667,0.22595,-12.522875,12.942,19.20025,673.754,1,1,0,1
24-May-2018 12:46:17,783.5,0.945022222222222,0.0249666666666667,0.359966666666667,69.13725,-1.639875,23.67125,6.755,-0.91124,0.08042,-0.48542,-0.1,-0.918555555555556,-0.519111111111111,110.049,0.914466666666667,0.402966666666667,0.4615,15.1675,1.4275,10.746,4.793,-0.978216666666667,-0.0529166666666667,0.22595,-12.522875,12.942,19.20025,673.754,1,1,0,1
24-May-2018 12:46:18,912.666666666667,0.846833333333333,-0.0253555555555556,0.493188888888889,16.4957777777778,0.125222222222222,7.30288888888889,6.755,-0.911016666666667,0.0816333333333333,-0.492366666666667,1.34822222222222,2.28322222222222,0.867555555555556,110.049,0.795233333333333,0.3043,0.541733333333333,-13.432,-5.648,-5.5688,6.27866666666667,-0.9416,-0.01778,0.1662,8.82625,-0.00774999999999995,-4.169125,828.831333333333,1,1,0,1
24-May-2018 12:46:18,912.666666666667,0.846833333333333,-0.0253555555555556,0.493188888888889,16.4957777777778,0.125222222222222,7.30288888888889,6.755,-0.911016666666667,0.0816333333333333,-0.492366666666667,1.34822222222222,2.28322222222222,0.867555555555556,110.049,0.795233333333333,0.3043,0.541733333333333,-13.432,-5.648,-5.5688,6.27866666666667,-0.9416,-0.01778,0.1662,8.82625,-0.00774999999999995,-4.169125,828.831333333333,1,1,0,1
24-May-2018 12:46:18,912.666666666667,0.846833333333333,-0.0253555555555556,0.493188888888889,16.4957777777778,0.125222222222222,7.30288888888889,6.755,-0.911016666666667,0.0816333333333333,-0.492366666666667,1.34822222222222,2.28322222222222,0.867555555555556,110.049,0.795233333333333,0.3043,0.541733333333333,-13.432,-5.648,-5.5688,6.27866666666667,-0.9416,-0.01778,0.1662,8.82625,-0.00774999999999995,-4.169125,828.831333333333,1,1,0,1
24-May-2018 12:46:18,912.666666666667,0.846833333333333,-0.0253555555555556,0.493188888888889,16.4957777777778,0.125222222222222,7.30288888888889,6.755,-0.911016666666667,0.0816333333333333,-0.492366666666667,1.34822222222222,2.28322222222222,0.867555555555556,110.049,0.795233333333333,0.3043,0.541733333333333,-13.432,-5.648,-5.5688,6.27866666666667,-0.9416,-0.01778,0.1662,8.82625,-0.00774999999999995,-4.169125,828.831333333333,1,1,0,1
24-May-2018 12:46:19,726.125,0.876366666666667,-0.0716111111111111,0.4479,-12.171125,-0.989,-1.97175,6.755,-0.9019,0.077175,-0.499425,0.282,1.4116,-0.4295,108.807,0.795514285714286,0.3157,0.550942857142857,-0.39,-0.508,-0.0452,5.949,-0.939314285714286,-0.0497,0.1817,4.5854,0.9148,-1.3172,763.102,1,1,1,1
24-May-2018 12:46:19,726.125,0.876366666666667,-0.0716111111111111,0.4479,-12.171125,-0.989,-1.97175,6.755,-0.9019,0.077175,-0.499425,0.282,1.4116,-0.4295,108.807,0.795514285714286,0.3157,0.550942857142857,-0.39,-0.508,-0.0452,5.949,-0.939314285714286,-0.0497,0.1817,4.5854,0.9148,-1.3172,763.102,1,1,1,1
24-May-2018 12:46:19,726.125,0.876366666666667,-0.0716111111111111,0.4479,-12.171125,-0.989,-1.97175,6.755,-0.9019,0.077175,-0.499425,0.282,1.4116,-0.4295,108.807,0.795514285714286,0.3157,0.550942857142857,-0.39,-0.508,-0.0452,5.949,-0.939314285714286,-0.0497,0.1817,4.5854,0.9148,-1.3172,763.102,1,1,1,1
24-May-2018 12:46:19,726.125,0.876366666666667,-0.0716111111111111,0.4479,-12.171125,-0.989,-1.97175,6.755,-0.9019,0.077175,-0.499425,0.282,1.4116,-0.4295,108.807,0.795514285714286,0.3157,0.550942857142857,-0.39,-0.508,-0.0452,5.949,-0.939314285714286,-0.0497,0.1817,4.5854,0.9148,-1.3172,763.102,1,1,1,1
24-May-2018 12:46:20,540,0.87268,-0.07424,0.43484,0.3342,-0.0698,0.7806,11.0077142857143,-0.909528571428572,0.0731285714285714,-0.493457142857143,3.28385714285714,-1.40685714285714,0.472,109.272,0.797166666666667,0.3162,0.543133333333333,-0.4356,-0.7646,-0.5224,5.824,-0.942325,-0.0482,0.1782,-0.12175,0.808,1.05175,761.2625,1,1,1,1
24-May-2018 12:46:20,540,0.87268,-0.07424,0.43484,0.3342,-0.0698,0.7806,11.0077142857143,-0.909528571428572,0.0731285714285714,-0.493457142857143,3.28385714285714,-1.40685714285714,0.472,109.272,0.797166666666667,0.3162,0.543133333333333,-0.4356,-0.7646,-0.5224,5.824,-0.942325,-0.0482,0.1782,-0.12175,0.808,1.05175,761.2625,1,1,1,1
24-May-2018 12:46:20,540,0.87268,-0.07424,0.43484,0.3342,-0.0698,0.7806,11.0077142857143,-0.909528571428572,0.0731285714285714,-0.493457142857143,3.28385714285714,-1.40685714285714,0.472,109.272,0.797166666666667,0.3162,0.543133333333333,-0.4356,-0.7646,-0.5224,5.824,-0.942325,-0.0482,0.1782,-0.12175,0.808,1.05175,761.2625,1,1,1,1
24-May-2018 12:46:20,540,0.87268,-0.07424,0.43484,0.3342,-0.0698,0.7806,11.0077142857143,-0.909528571428572,0.0731285714285714,-0.493457142857143,3.28385714285714,-1.40685714285714,0.472,109.272,0.797166666666667,0.3162,0.543133333333333,-0.4356,-0.7646,-0.5224,5.824,-0.942325,-0.0482,0.1782,-0.12175,0.808,1.05175,761.2625,1,1,1,1
24-May-2018 12:46:21,380.6,0.87152,-0.07902,0.43808,0.350571428571429,-0.658142857142857,-0.0761428571428571,11.7355,-0.91596,0.06938,-0.48232,2.012375,-0.85175,2.012,109.272,0.796,0.323866666666667,0.54385,1.71,-0.688,-0.119333333333333,5.81433333333333,-0.94165,0.047225,0.057575,-4.116,7.78466666666667,4.868,751.371,1,1,1,1
24-May-2018 12:46:21,380.6,0.87152,-0.07902,0.43808,0.350571428571429,-0.658142857142857,-0.0761428571428571,11.7355,-0.91596,0.06938,-0.48232,2.012375,-0.85175,2.012,109.272,0.796,0.323866666666667,0.54385,1.71,-0.688,-0.119333333333333,5.81433333333333,-0.94165,0.047225,0.057575,-4.116,7.78466666666667,4.868,751.371,1,1,1,1
24-May-2018 12:46:21,380.6,0.87152,-0.07902,0.43808,0.350571428571429,-0.658142857142857,-0.0761428571428571,11.7355,-0.91596,0.06938,-0.48232,2.012375,-0.85175,2.012,109.272,0.796,0.323866666666667,0.54385,1.71,-0.688,-0.119333333333333,5.81433333333333,-0.94165,0.047225,0.057575,-4.116,7.78466666666667,4.868,751.371,1,1,1,1
24-May-2018 12:46:21,380.6,0.87152,-0.07902,0.43808,0.350571428571429,-0.658142857142857,-0.0761428571428571,11.7355,-0.91596,0.06938,-0.48232,2.012375,-0.85175,2.012,109.272,0.796,0.323866666666667,0.54385,1.71,-0.688,-0.119333333333333,5.81433333333333,-0.94165,0.047225,0.057575,-4.116,7.78466666666667,4.868,751.371,1,1,1,1
24-May-2018 12:46:22,217.6,0.8726,-0.0718285714285714,0.436285714285714,0.57325,0.04725,0.306875,11.1785,-0.918,0.0771,-0.469466666666667,0.402428571428572,-2.934,2.21242857142857,107.862,0.791225,0.32265,0.55235,-1.14,-1.155,-0.87875,5.795,-0.951825,0.0352,-0.02335,-11.135625,5.518625,1.501625,582.676,1,1,1,1
24-May-2018 12:46:22,217.6,0.8726,-0.0718285714285714,0.436285714285714,0.57325,0.04725,0.306875,11.1785,-0.918,0.0771,-0.469466666666667,0.402428571428572,-2.934,2.21242857142857,107.862,0.791225,0.32265,0.55235,-1.14,-1.155,-0.87875,5.795,-0.951825,0.0352,-0.02335,-11.135625,5.518625,1.501625,582.676,1,1,1,1
24-May-2018 12:46:22,217.6,0.8726,-0.0718285714285714,0.436285714285714,0.57325,0.04725,0.306875,11.1785,-0.918,0.0771,-0.469466666666667,0.402428571428572,-2.934,2.21242857142857,107.862,0.791225,0.32265,0.55235,-1.14,-1.155,-0.87875,5.795,-0.951825,0.0352,-0.02335,-11.135625,5.518625,1.501625,582.676,1,1,1,1
24-May-2018 12:46:22,217.6,0.8726,-0.0718285714285714,0.436285714285714,0.57325,0.04725,0.306875,11.1785,-0.918,0.0771,-0.469466666666667,0.402428571428572,-2.934,2.21242857142857,107.862,0.791225,0.32265,0.55235,-1.14,-1.155,-0.87875,5.795,-0.951825,0.0352,-0.02335,-11.135625,5.518625,1.501625,582.676,1,1,1,1
24-May-2018 12:46:23,80.2857142857143,0.871683333333333,-0.07555,0.43285,-0.457142857142857,0.453,0.218142857142857,10.5325,-0.921675,0.084025,-0.465275,-0.5952,-0.4913,2.3477,107.157,0.79166,0.31642,0.57548,6.402875,5.89975,4.194875,5.67,-0.94448,-0.01272,0.14506,29.7561666666667,-37.1443333333333,-5.2335,544.271,1,1,1,1
24-May-2018 12:46:23,80.2857142857143,0.871683333333333,-0.07555,0.43285,-0.457142857142857,0.453,0.218142857142857,10.5325,-0.921675,0.084025,-0.465275,-0.5952,-0.4913,2.3477,107.157,0.79166,0.31642,0.57548,6.402875,5.89975,4.194875,5.67,-0.94448,-0.01272,0.14506,29.7561666666667,-37.1443333333333,-5.2335,544.271,1,1,1,1
24-May-2018 12:46:23,80.2857142857143,0.871683333333333,-0.07555,0.43285,-0.457142857142857,0.453,0.218142857142857,10.5325,-0.921675,0.084025,-0.465275,-0.5952,-0.4913,2.3477,107.157,0.79166,0.31642,0.57548,6.402875,5.89975,4.194875,5.67,-0.94448,-0.01272,0.14506,29.7561666666667,-37.1443333333333,-5.2335,544.271,1,1,1,1
24-May-2018 12:46:23,80.2857142857143,0.871683333333333,-0.07555,0.43285,-0.457142857142857,0.453,0.218142857142857,10.5325,-0.921675,0.084025,-0.465275,-0.5952,-0.4913,2.3477,107.157,0.79166,0.31642,0.57548,6.402875,5.89975,4.194875,5.67,-0.94448,-0.01272,0.14506,29.7561666666667,-37.1443333333333,-5.2335,544.271,1,1,1,1
24-May-2018 12:46:24,-74.2222222222222,0.87568,-0.07274,0.36844,6.12,-2.0336,5.475,9.925,-0.922,0.0983,-0.460866666666667,-0.142,-0.586166666666667,0.833666666666667,107.603,0.75855,0.287425,0.6348,8.58075,-23.58,6.525,5.73533333333333,-0.93398,-0.04286,0.2214,-40.803,21.7173333333333,30.7523333333333,834.168,1,1,1,1
24-May-2018 12:46:24,-74.2222222222222,0.87568,-0.07274,0.36844,6.12,-2.0336,5.475,9.925,-0.922,0.0983,-0.460866666666667,-0.142,-0.586166666666667,0.833666666666667,107.603,0.75855,0.287425,0.6348,8.58075,-23.58,6.525,5.73533333333333,-0.93398,-0.04286,0.2214,-40.803,21.7173333333333,30.7523333333333,834.168,1,1,1,1
24-May-2018 12:46:24,-74.2222222222222,0.87568,-0.07274,0.36844,6.12,-2.0336,5.475,9.925,-0.922,0.0983,-0.460866666666667,-0.142,-0.586166666666667,0.833666666666667,107.603,0.75855,0.287425,0.6348,8.58075,-23.58,6.525,5.73533333333333,-0.93398,-0.04286,0.2214,-40.803,21.7173333333333,30.7523333333333,834.168,1,1,1,1
24-May-2018 12:46:24,-74.2222222222222,0.87568,-0.07274,0.36844,6.12,-2.0336,5.475,9.925,-0.922,0.0983,-0.460866666666667,-0.142,-0.586166666666667,0.833666666666667,107.603,0.75855,0.287425,0.6348,8.58075,-23.58,6.525,5.73533333333333,-0.93398,-0.04286,0.2214,-40.803,21.7173333333333,30.7523333333333,834.168,1,1,1,1
24-May-2018 12:46:25,-1427.22222222222,0.81645,0.0192166666666667,0.399366666666667,14.3115,0.00812499999999974,1.6575,8.54633333333333,-0.92452,0.10008,-0.4538,2.08666666666667,-2.93577777777778,0.671,107.603,0.88092,0.25482,0.56304,35.9733333333333,17.3966666666667,27.6966666666667,6.28833333333333,-1.06998571428571,-0.0969571428571429,0.323857142857143,-59.25075,52.60675,76.189,668.966,1,1,1,1
24-May-2018 12:46:25,-1427.22222222222,0.81645,0.0192166666666667,0.399366666666667,14.3115,0.00812499999999974,1.6575,8.54633333333333,-0.92452,0.10008,-0.4538,2.08666666666667,-2.93577777777778,0.671,107.603,0.88092,0.25482,0.56304,35.9733333333333,17.3966666666667,27.6966666666667,6.28833333333333,-1.06998571428571,-0.0969571428571429,0.323857142857143,-59.25075,52.60675,76.189,668.966,1,1,1,1
24-May-2018 12:46:25,-1427.22222222222,0.81645,0.0192166666666667,0.399366666666667,14.3115,0.00812499999999974,1.6575,8.54633333333333,-0.92452,0.10008,-0.4538,2.08666666666667,-2.93577777777778,0.671,107.603,0.88092,0.25482,0.56304,35.9733333333333,17.3966666666667,27.6966666666667,6.28833333333333,-1.06998571428571,-0.0969571428571429,0.323857142857143,-59.25075,52.60675,76.189,668.966,1,1,1,1
24-May-2018 12:46:25,-1427.22222222222,0.81645,0.0192166666666667,0.399366666666667,14.3115,0.00812499999999974,1.6575,8.54633333333333,-0.92452,0.10008,-0.4538,2.08666666666667,-2.93577777777778,0.671,107.603,0.88092,0.25482,0.56304,35.9733333333333,17.3966666666667,27.6966666666667,6.28833333333333,-1.06998571428571,-0.0969571428571429,0.323857142857143,-59.25075,52.60675,76.189,668.966,1,1,1,1
24-May-2018 12:46:26,-2048,0.865033333333333,-0.0439333333333333,0.3921,19.9892857142857,-7.00814285714286,4.29785714285714,8.147,-0.93072,0.09436,-0.44032,3.91577777777778,-1.88477777777778,-0.0731111111111111,107.799,0.9025,0.31385,0.48285,-0.183333333333334,-28.6666666666667,-3.37133333333333,9.599,-1.01494,-0.10826,0.27758,-9.64416666666667,-7.51,-14.5116666666667,633.93,1,1,1,1
24-May-2018 12:46:26,-2048,0.865033333333333,-0.0439333333333333,0.3921,19.9892857142857,-7.00814285714286,4.29785714285714,8.147,-0.93072,0.09436,-0.44032,3.91577777777778,-1.88477777777778,-0.0731111111111111,107.799,0.9025,0.31385,0.48285,-0.183333333333334,-28.6666666666667,-3.37133333333333,9.599,-1.01494,-0.10826,0.27758,-9.64416666666667,-7.51,-14.5116666666667,633.93,1,1,1,1
24-May-2018 12:46:26,-2048,0.865033333333333,-0.0439333333333333,0.3921,19.9892857142857,-7.00814285714286,4.29785714285714,8.147,-0.93072,0.09436,-0.44032,3.91577777777778,-1.88477777777778,-0.0731111111111111,107.799,0.9025,0.31385,0.48285,-0.183333333333334,-28.6666666666667,-3.37133333333333,9.599,-1.01494,-0.10826,0.27758,-9.64416666666667,-7.51,-14.5116666666667,633.93,1,1,1,1
24-May-2018 12:46:26,-2048,0.865033333333333,-0.0439333333333333,0.3921,19.9892857142857,-7.00814285714286,4.29785714285714,8.147,-0.93072,0.09436,-0.44032,3.91577777777778,-1.88477777777778,-0.0731111111111111,107.799,0.9025,0.31385,0.48285,-0.183333333333334,-28.6666666666667,-3.37133333333333,9.599,-1.01494,-0.10826,0.27758,-9.64416666666667,-7.51,-14.5116666666667,633.93,1,1,1,1
24-May-2018 12:46:27,-2048,0.878828571428571,0.0122285714285714,0.460985714285714,32.78,-5.69333333333333,12.621,8.147,-0.929566666666667,0.0885666666666667,-0.4425,1.82966666666667,0.845833333333334,-0.84,107.799,0.86028,0.35162,0.49872,30.79,-2.4085,15.76,7.0062,-1.00458,-0.04114,0.3357,-34.243,-34.2074,-28.2316,596.044333333333,1,1,1,1
24-May-2018 12:46:27,-2048,0.878828571428571,0.0122285714285714,0.460985714285714,32.78,-5.69333333333333,12.621,8.147,-0.929566666666667,0.0885666666666667,-0.4425,1.82966666666667,0.845833333333334,-0.84,107.799,0.86028,0.35162,0.49872,30.79,-2.4085,15.76,7.0062,-1.00458,-0.04114,0.3357,-34.243,-34.2074,-28.2316,596.044333333333,1,1,1,1
24-May-2018 12:46:27,-2048,0.878828571428571,0.0122285714285714,0.460985714285714,32.78,-5.69333333333333,12.621,8.147,-0.929566666666667,0.0885666666666667,-0.4425,1.82966666666667,0.845833333333334,-0.84,107.799,0.86028,0.35162,0.49872,30.79,-2.4085,15.76,7.0062,-1.00458,-0.04114,0.3357,-34.243,-34.2074,-28.2316,596.044333333333,1,1,1,1
24-May-2018 12:46:27,-2048,0.878828571428571,0.0122285714285714,0.460985714285714,32.78,-5.69333333333333,12.621,8.147,-0.929566666666667,0.0885666666666667,-0.4425,1.82966666666667,0.845833333333334,-0.84,107.799,0.86028,0.35162,0.49872,30.79,-2.4085,15.76,7.0062,-1.00458,-0.04114,0.3357,-34.243,-34.2074,-28.2316,596.044333333333,1,1,1,1
24-May-2018 12:46:28,-1787.8,0.900585714285714,-0.0221857142857143,0.379471428571429,56.1888888888889,-0.0141111111111112,13.3117777777778,8.147,-0.925925,0.08535,-0.44785,-0.0596666666666667,2.41866666666667,-0.376555555555556,107.799,0.78405,0.22345,0.50125,38.5416666666667,13.8033333333333,17.9783333333333,2.755,-0.9675,-0.07444,0.21154,-110.546333333333,28.1603333333333,55.0813333333333,616.116,1,1,1,1
24-May-2018 12:46:28,-1787.8,0.900585714285714,-0.0221857142857143,0.379471428571429,56.1888888888889,-0.0141111111111112,13.3117777777778,8.147,-0.925925,0.08535,-0.44785,-0.0596666666666667,2.41866666666667,-0.376555555555556,107.799,0.78405,0.22345,0.50125,38.5416666666667,13.8033333333333,17.9783333333333,2.755,-0.9675,-0.07444,0.21154,-110.546333333333,28.1603333333333,55.0813333333333,616.116,1,1,1,1
24-May-2018 12:46:28,-1787.8,0.900585714285714,-0.0221857142857143,0.379471428571429,56.1888888888889,-0.0141111111111112,13.3117777777778,8.147,-0.925925,0.08535,-0.44785,-0.0596666666666667,2.41866666666667,-0.376555555555556,107.799,0.78405,0.22345,0.50125,38.5416666666667,13.8033333333333,17.9783333333333,2.755,-0.9675,-0.07444,0.21154,-110.546333333333,28.1603333333333,55.0813333333333,616.116,1,1,1,1
24-May-2018 12:46:28,-1787.8,0.900585714285714,-0.0221857142857143,0.379471428571429,56.1888888888889,-0.0141111111111112,13.3117777777778,8.147,-0.925925,0.08535,-0.44785,-0.0596666666666667,2.41866666666667,-0.376555555555556,107.799,0.78405,0.22345,0.50125,38.5416666666667,13.8033333333333,17.9783333333333,2.755,-0.9675,-0.07444,0.21154,-110.546333333333,28.1603333333333,55.0813333333333,616.116,1,1,1,1
24-May-2018 12:46:29,-1247,0.882,0.0844444444444444,0.430022222222222,76.2925,2.673375,30.40625,8.147,-0.92372,0.08278,-0.46108,-0.835333333333333,3.72044444444444,0.393222222222222,107.236,0.818275,0.22195,0.533375,29.204,27.1315,18.7175,3.60675,-0.90834,-0.0576,0.2614,-29.4425714285714,-0.592285714285714,7.16028571428572,623.52,1,1,1,1
24-May-2018 12:46:29,-1247,0.882,0.0844444444444444,0.430022222222222,76.2925,2.673375,30.40625,8.147,-0.92372,0.08278,-0.46108,-0.835333333333333,3.72044444444444,0.393222222222222,107.236,0.818275,0.22195,0.533375,29.204,27.1315,18.7175,3.60675,-0.90834,-0.0576,0.2614,-29.4425714285714,-0.592285714285714,7.16028571428572,623.52,1,1,1,1
24-May-2018 12:46:29,-1247,0.882,0.0844444444444444,0.430022222222222,76.2925,2.673375,30.40625,8.147,-0.92372,0.08278,-0.46108,-0.835333333333333,3.72044444444444,0.393222222222222,107.236,0.818275,0.22195,0.533375,29.204,27.1315,18.7175,3.60675,-0.90834,-0.0576,0.2614,-29.4425714285714,-0.592285714285714,7.16028571428572,623.52,1,1,1,1
24-May-2018 12:46:29,-1247,0.882,0.0844444444444444,0.430022222222222,76.2925,2.673375,30.40625,8.147,-0.92372,0.08278,-0.46108,-0.835333333333333,3.72044444444444,0.393222222222222,107.236,0.818275,0.22195,0.533375,29.204,27.1315,18.7175,3.60675,-0.90834,-0.0576,0.2614,-29.4425714285714,-0.592285714285714,7.16028571428572,623.52,1,1,1,1
24-May-2018 12:46:30,-861.5,0.96458,-0.02746,0.33522,30.486,3.2,8.4864,5.33014285714286,-0.91745,0.089175,-0.469525,-0.88075,3.9175,1.539375,107.236,0.756833333333333,0.338133333333333,0.485733333333333,-5.304,-15.102,-3.2828,3.1635,-0.91635,-0.09055,0.3288,1.19933333333333,-17.6118333333333,0.813000000000001,791.756,1,1,1,1
24-May-2018 12:46:30,-861.5,0.96458,-0.02746,0.33522,30.486,3.2,8.4864,5.33014285714286,-0.91745,0.089175,-0.469525,-0.88075,3.9175,1.539375,107.236,0.756833333333333,0.338133333333333,0.485733333333333,-5.304,-15.102,-3.2828,3.1635,-0.91635,-0.09055,0.3288,1.19933333333333,-17.6118333333333,0.813000000000001,791.756,1,1,1,1
24-May-2018 12:46:30,-861.5,0.96458,-0.02746,0.33522,30.486,3.2,8.4864,5.33014285714286,-0.91745,0.089175,-0.469525,-0.88075,3.9175,1.539375,107.236,0.756833333333333,0.338133333333333,0.485733333333333,-5.304,-15.102,-3.2828,3.1635,-0.91635,-0.09055,0.3288,1.19933333333333,-17.6118333333333,0.813000000000001,791.756,1,1,1,1
24-May-2018 12:46:30,-861.5,0.96458,-0.02746,0.33522,30.486,3.2,8.4864,5.33014285714286,-0.91745,0.089175,-0.469525,-0.88075,3.9175,1.539375,107.236,0.756833333333333,0.338133333333333,0.485733333333333,-5.304,-15.102,-3.2828,3.1635,-0.91635,-0.09055,0.3288,1.19933333333333,-17.6118333333333,0.813000000000001,791.756,1,1,1,1
24-May-2018 12:46:31,-588.666666666667,0.868925,-0.098025,0.5068625,-30.314,-3.7614,-5.2918,5.07625,-0.91795,0.092675,-0.4736,-0.943666666666667,0.219555555555556,0.549,107.236,1.00295,0.3668,0.44965,-20.335,10.06,-16.635,2.65033333333333,-0.9371,-0.000839999999999998,0.34328,10.6098333333333,9.67483333333333,-10.7725,748.372,1,1,1,1
24-May-2018 12:46:31,-588.666666666667,0.868925,-0.098025,0.5068625,-30.314,-3.7614,-5.2918,5.07625,-0.91795,0.092675,-0.4736,-0.943666666666667,0.219555555555556,0.549,107.236,1.00295,0.3668,0.44965,-20.335,10.06,-16.635,2.65033333333333,-0.9371,-0.000839999999999998,0.34328,10.6098333333333,9.67483333333333,-10.7725,748.372,1,1,1,1
24-May-2018 12:46:31,-588.666666666667,0.868925,-0.098025,0.5068625,-30.314,-3.7614,-5.2918,5.07625,-0.91795,0.092675,-0.4736,-0.943666666666667,0.219555555555556,0.549,107.236,1.00295,0.3668,0.44965,-20.335,10.06,-16.635,2.65033333333333,-0.9371,-0.000839999999999998,0.34328,10.6098333333333,9.67483333333333,-10.7725,748.372,1,1,1,1
24-May-2018 12:46:31,-588.666666666667,0.868925,-0.098025,0.5068625,-30.314,-3.7614,-5.2918,5.07625,-0.91795,0.092675,-0.4736,-0.943666666666667,0.219555555555556,0.549,107.236,1.00295,0.3668,0.44965,-20.335,10.06,-16.635,2.65033333333333,-0.9371,-0.000839999999999998,0.34328,10.6098333333333,9.67483333333333,-10.7725,748.372,1,1,1,1
24-May-2018 12:46:32,-398.3,0.90962,-0.0065,0.43046,-30.4273333333333,1.80111111111111,-9.85922222222222,5.451,-0.91856,0.09398,-0.47096,1.179,0.916222222222222,0.123777777777778,107.701,0.8684,0.3785,0.503833333333333,-35.1,-6.7275,-14.505,2.8022,-0.95375,-0.07365,0.231475,48.73475,-15.8995,-34.31425,642.403,1,1,1,1
24-May-2018 12:46:32,-398.3,0.90962,-0.0065,0.43046,-30.4273333333333,1.80111111111111,-9.85922222222222,5.451,-0.91856,0.09398,-0.47096,1.179,0.916222222222222,0.123777777777778,107.701,0.8684,0.3785,0.503833333333333,-35.1,-6.7275,-14.505,2.8022,-0.95375,-0.07365,0.231475,48.73475,-15.8995,-34.31425,642.403,1,1,1,1
24-May-2018 12:46:32,-398.3,0.90962,-0.0065,0.43046,-30.4273333333333,1.80111111111111,-9.85922222222222,5.451,-0.91856,0.09398,-0.47096,1.179,0.916222222222222,0.123777777777778,107.701,0.8684,0.3785,0.503833333333333,-35.1,-6.7275,-14.505,2.8022,-0.95375,-0.07365,0.231475,48.73475,-15.8995,-34.31425,642.403,1,1,1,1
24-May-2018 12:46:32,-398.3,0.90962,-0.0065,0.43046,-30.4273333333333,1.80111111111111,-9.85922222222222,5.451,-0.91856,0.09398,-0.47096,1.179,0.916222222222222,0.123777777777778,107.701,0.8684,0.3785,0.503833333333333,-35.1,-6.7275,-14.505,2.8022,-0.95375,-0.07365,0.231475,48.73475,-15.8995,-34.31425,642.403,1,1,1,1
24-May-2018 12:46:33,-257.1,0.879857142857143,0.0248571428571429,0.428814285714286,43.88,-4.97328571428571,15.3498571428571,5.521,-0.91488,0.08994,-0.47512,1.97155555555556,1.49911111111111,-1.08711111111111,107.701,0.78696,0.3405,0.52946,34.41,12.165,19.4595,2.516,-0.8643,-0.0325666666666667,0.2784,-18.0285,1.14833333333333,13.3231666666667,649.802,1,1,1,1
24-May-2018 12:46:33,-257.1,0.879857142857143,0.0248571428571429,0.428814285714286,43.88,-4.97328571428571,15.3498571428571,5.521,-0.91488,0.08994,-0.47512,1.97155555555556,1.49911111111111,-1.08711111111111,107.701,0.78696,0.3405,0.52946,34.41,12.165,19.4595,2.516,-0.8643,-0.0325666666666667,0.2784,-18.0285,1.14833333333333,13.3231666666667,649.802,1,1,1,1
24-May-2018 12:46:33,-257.1,0.879857142857143,0.0248571428571429,0.428814285714286,43.88,-4.97328571428571,15.3498571428571,5.521,-0.91488,0.08994,-0.47512,1.97155555555556,1.49911111111111,-1.08711111111111,107.701,0.78696,0.3405,0.52946,34.41,12.165,19.4595,2.516,-0.8643,-0.0325666666666667,0.2784,-18.0285,1.14833333333333,13.3231666666667,649.802,1,1,1,1
24-May-2018 12:46:33,-257.1,0.879857142857143,0.0248571428571429,0.428814285714286,43.88,-4.97328571428571,15.3498571428571,5.521,-0.91488,0.08994,-0.47512,1.97155555555556,1.49911111111111,-1.08711111111111,107.701,0.78696,0.3405,0.52946,34.41,12.165,19.4595,2.516,-0.8643,-0.0325666666666667,0.2784,-18.0285,1.14833333333333,13.3231666666667,649.802,1,1,1,1
24-May-2018 12:46:34,836.555555555556,0.901033333333333,0.0747833333333333,0.37665,36.1017142857143,-4.847,8.07714285714286,6.22933333333333,-0.91326,0.08012,-0.48336,-0.089375,2.72875,-0.64375,107.585,0.7871,0.29544,0.5462,14.1796,-9.0868,4.5436,4.9385,-0.918683333333333,-0.138666666666667,0.29895,-59.29725,9.61875,19.03975,680.8285,0,1,1,1
24-May-2018 12:46:34,836.555555555556,0.901033333333333,0.0747833333333333,0.37665,36.1017142857143,-4.847,8.07714285714286,6.22933333333333,-0.91326,0.08012,-0.48336,-0.089375,2.72875,-0.64375,107.585,0.7871,0.29544,0.5462,14.1796,-9.0868,4.5436,4.9385,-0.918683333333333,-0.138666666666667,0.29895,-59.29725,9.61875,19.03975,680.8285,0,1,1,1
24-May-2018 12:46:34,836.555555555556,0.901033333333333,0.0747833333333333,0.37665,36.1017142857143,-4.847,8.07714285714286,6.22933333333333,-0.91326,0.08012,-0.48336,-0.089375,2.72875,-0.64375,107.585,0.7871,0.29544,0.5462,14.1796,-9.0868,4.5436,4.9385,-0.918683333333333,-0.138666666666667,0.29895,-59.29725,9.61875,19.03975,680.8285,0,1,1,1
24-May-2018 12:46:34,836.555555555556,0.901033333333333,0.0747833333333333,0.37665,36.1017142857143,-4.847,8.07714285714286,6.22933333333333,-0.91326,0.08012,-0.48336,-0.089375,2.72875,-0.64375,107.585,0.7871,0.29544,0.5462,14.1796,-9.0868,4.5436,4.9385,-0.918683333333333,-0.138666666666667,0.29895,-59.29725,9.61875,19.03975,680.8285,0,1,1,1
24-May-2018 12:46:35,2047,0.859614285714286,0.0374571428571429,0.443085714285714,86.0557142857143,-2.64571428571429,27.7042857142857,6.11666666666667,-0.9062,0.084725,-0.4926,-0.817222222222222,1.34855555555556,1.68688888888889,107.3525,0.82742,0.23054,0.52154,80.972,23.446,32.372,5.3685,-0.971666666666667,-0.0819333333333333,0.170233333333333,-71.4216666666667,9.79666666666667,41.2193333333333,831.167,1,1,0,0
24-May-2018 12:46:35,2047,0.859614285714286,0.0374571428571429,0.443085714285714,86.0557142857143,-2.64571428571429,27.7042857142857,6.11666666666667,-0.9062,0.084725,-0.4926,-0.817222222222222,1.34855555555556,1.68688888888889,107.3525,0.82742,0.23054,0.52154,80.972,23.446,32.372,5.3685,-0.971666666666667,-0.0819333333333333,0.170233333333333,-71.4216666666667,9.79666666666667,41.2193333333333,831.167,1,1,0,0
24-May-2018 12:46:35,2047,0.859614285714286,0.0374571428571429,0.443085714285714,86.0557142857143,-2.64571428571429,27.7042857142857,6.11666666666667,-0.9062,0.084725,-0.4926,-0.817222222222222,1.34855555555556,1.68688888888889,107.3525,0.82742,0.23054,0.52154,80.972,23.446,32.372,5.3685,-0.971666666666667,-0.0819333333333333,0.170233333333333,-71.4216666666667,9.79666666666667,41.2193333333333,831.167,1,1,0,0
24-May-2018 12:46:35,2047,0.859614285714286,0.0374571428571429,0.443085714285714,86.0557142857143,-2.64571428571429,27.7042857142857,6.11666666666667,-0.9062,0.084725,-0.4926,-0.817222222222222,1.34855555555556,1.68688888888889,107.3525,0.82742,0.23054,0.52154,80.972,23.446,32.372,5.3685,-0.971666666666667,-0.0819333333333333,0.170233333333333,-71.4216666666667,9.79666666666667,41.2193333333333,831.167,1,1,0,0
24-May-2018 12:46:36,2047,0.9165375,-0.025675,0.41305,32.933,-1.5818,17.4728,6.11666666666667,-0.91352,0.09874,-0.4804,3.24588888888889,-1.58244444444444,0.205,107.157,0.85615,0.322375,0.380075,45.96,5.0736,18.216,3.9845,-0.939575,-0.0668,0.2541,-54.900625,1.517,5.05325,683.184,0.5,1,1,1
24-May-2018 12:46:36,2047,0.9165375,-0.025675,0.41305,32.933,-1.5818,17.4728,6.11666666666667,-0.91352,0.09874,-0.4804,3.24588888888889,-1.58244444444444,0.205,107.157,0.85615,0.322375,0.380075,45.96,5.0736,18.216,3.9845,-0.939575,-0.0668,0.2541,-54.900625,1.517,5.05325,683.184,0.5,1,1,1
24-May-2018 12:46:36,2047,0.9165375,-0.025675,0.41305,32.933,-1.5818,17.4728,6.11666666666667,-0.91352,0.09874,-0.4804,3.24588888888889,-1.58244444444444,0.205,107.157,0.85615,0.322375,0.380075,45.96,5.0736,18.216,3.9845,-0.939575,-0.0668,0.2541,-54.900625,1.517,5.05325,683.184,0.5,1,1,1
24-May-2018 12:46:36,2047,0.9165375,-0.025675,0.41305,32.933,-1.5818,17.4728,6.11666666666667,-0.91352,0.09874,-0.4804,3.24588888888889,-1.58244444444444,0.205,107.157,0.85615,0.322375,0.380075,45.96,5.0736,18.216,3.9845,-0.939575,-0.0668,0.2541,-54.900625,1.517,5.05325,683.184,0.5,1,1,1
24-May-2018 12:46:37,2046.90909090909,0.91185,0.0554666666666667,0.380083333333333,-18.2966666666667,3.0785,-17.967,6.11666666666667,-0.91922,0.08628,-0.47072,0.450125,0.489625,-0.248125,107.157,0.78868,0.35118,0.58946,-30.025,-18.395,-13.62,7.7945,-0.9043,-0.08815,0.31255,-1.90525,23.933,22.34775,571.962,1,1,1,1
24-May-2018 12:46:37,2046.90909090909,0.91185,0.0554666666666667,0.380083333333333,-18.2966666666667,3.0785,-17.967,6.11666666666667,-0.91922,0.08628,-0.47072,0.450125,0.489625,-0.248125,107.157,0.78868,0.35118,0.58946,-30.025,-18.395,-13.62,7.7945,-0.9043,-0.08815,0.31255,-1.90525,23.933,22.34775,571.962,1,1,1,1
24-May-2018 12:46:37,2046.90909090909,0.91185,0.0554666666666667,0.380083333333333,-18.2966666666667,3.0785,-17.967,6.11666666666667,-0.91922,0.08628,-0.47072,0.450125,0.489625,-0.248125,107.157,0.78868,0.35118,0.58946,-30.025,-18.395,-13.62,7.7945,-0.9043,-0.08815,0.31255,-1.90525,23.933,22.34775,571.962,1,1,1,1
24-May-2018 12:46:37,2046.90909090909,0.91185,0.0554666666666667,0.380083333333333,-18.2966666666667,3.0785,-17.967,6.11666666666667,-0.91922,0.08628,-0.47072,0.450125,0.489625,-0.248125,107.157,0.78868,0.35118,0.58946,-30.025,-18.395,-13.62,7.7945,-0.9043,-0.08815,0.31255,-1.90525,23.933,22.34775,571.962,1,1,1,1
24-May-2018 12:46:38,1664.09090909091,0.876157142857143,-0.0628714285714286,0.451,-13.504,0.725166666666667,12.4576666666667,6.11666666666667,-0.91435,0.087325,-0.4755,-2.56375,1.638625,-0.84375,107.157,0.7457,0.2958,0.693033333333333,-5.2124,20.6292,-4.564,7.445,-0.9174,0.0205,0.3018,10.1462,-19.6706,-34.5122,792.0155,0,0,1,1
24-May-2018 12:46:38,1664.09090909091,0.876157142857143,-0.0628714285714286,0.451,-13.504,0.725166666666667,12.4576666666667,6.11666666666667,-0.91435,0.087325,-0.4755,-2.56375,1.638625,-0.84375,107.157,0.7457,0.2958,0.693033333333333,-5.2124,20.6292,-4.564,7.445,-0.9174,0.0205,0.3018,10.1462,-19.6706,-34.5122,792.0155,0,0,1,1
24-May-2018 12:46:38,1664.09090909091,0.876157142857143,-0.0628714285714286,0.451,-13.504,0.725166666666667,12.4576666666667,6.11666666666667,-0.91435,0.087325,-0.4755,-2.56375,1.638625,-0.84375,107.157,0.7457,0.2958,0.693033333333333,-5.2124,20.6292,-4.564,7.445,-0.9174,0.0205,0.3018,10.1462,-19.6706,-34.5122,792.0155,0,0,1,1
24-May-2018 12:46:38,1664.09090909091,0.876157142857143,-0.0628714285714286,0.451,-13.504,0.725166666666667,12.4576666666667,6.11666666666667,-0.91435,0.087325,-0.4755,-2.56375,1.638625,-0.84375,107.157,0.7457,0.2958,0.693033333333333,-5.2124,20.6292,-4.564,7.445,-0.9174,0.0205,0.3018,10.1462,-19.6706,-34.5122,792.0155,0,0,1,1
24-May-2018 12:46:39,1142.6,0.91758,0.01186,0.34192,26.082,-2.221625,5.93375,6.11666666666667,-0.9165,0.0926,-0.4741,-1.9,-3.00444444444444,1.24655555555556,105.781,0.9122,0.3385,0.2596,15.7481666666667,0.413333333333334,11.6343333333333,8.995,-1.01116666666667,-0.0454666666666667,0.319666666666667,-39.57275,8.0335,19.49725,700.428666666667,0,0,1,1
24-May-2018 12:46:39,1142.6,0.91758,0.01186,0.34192,26.082,-2.221625,5.93375,6.11666666666667,-0.9165,0.0926,-0.4741,-1.9,-3.00444444444444,1.24655555555556,105.781,0.9122,0.3385,0.2596,15.7481666666667,0.413333333333334,11.6343333333333,8.995,-1.01116666666667,-0.0454666666666667,0.319666666666667,-39.57275,8.0335,19.49725,700.428666666667,0,0,1,1
24-May-2018 12:46:39,1142.6,0.91758,0.01186,0.34192,26.082,-2.221625,5.93375,6.11666666666667,-0.9165,0.0926,-0.4741,-1.9,-3.00444444444444,1.24655555555556,105.781,0.9122,0.3385,0.2596,15.7481666666667,0.413333333333334,11.6343333333333,8.995,-1.01116666666667,-0.0454666666666667,0.319666666666667,-39.57275,8.0335,19.49725,700.428666666667,0,0,1,1
24-May-2018 12:46:39,1142.6,0.91758,0.01186,0.34192,26.082,-2.221625,5.93375,0,-0.9165,0.0926,-0.4741,-1.9,-3.00444444444444,1.24655555555556,105.781,0.9122,0.3385,0.2596,15.7481666666667,0.413333333333334,11.6343333333333,8.995,-1.01116666666667,-0.0454666666666667,0.319666666666667,-39.57275,8.0335,19.49725,700.428666666667,0,0,1,1
24-May-2018 12:46:40,872.6,0.90042,-0.02056,0.3912,24.862,2.611,5.55,8.137,-0.93056,0.10092,-0.44064,3.148625,-5.304625,2.11875,105.781,0.783375,0.263625,0.6103,34.89,-7.087,23.49,7.655,-1.06813333333333,-0.143466666666667,0.252233333333333,-44.9683333333333,15.681,43.6076666666667,607.358,1,1,1,1
24-May-2018 12:46:40,872.6,0.90042,-0.02056,0.3912,24.862,2.611,5.55,8.137,-0.93056,0.10092,-0.44064,3.148625,-5.304625,2.11875,105.781,0.783375,0.263625,0.6103,34.89,-7.087,23.49,7.655,-1.06813333333333,-0.143466666666667,0.252233333333333,-44.9683333333333,15.681,43.6076666666667,607.358,1,1,1,1
24-May-2018 12:46:40,872.6,0.90042,-0.02056,0.3912,24.862,2.611,5.55,8.137,-0.93056,0.10092,-0.44064,3.148625,-5.304625,2.11875,105.781,0.783375,0.263625,0.6103,34.89,-7.087,23.49,7.655,-1.06813333333333,-0.143466666666667,0.252233333333333,-44.9683333333333,15.681,43.6076666666667,607.358,1,1,1,1
24-May-2018 12:46:40,872.6,0.90042,-0.02056,0.3912,24.862,2.611,5.55,8.137,-0.93056,0.10092,-0.44064,3.148625,-5.304625,2.11875,105.781,0.783375,0.263625,0.6103,34.89,-7.087,23.49,7.655,-1.06813333333333,-0.143466666666667,0.252233333333333,-44.9683333333333,15.681,43.6076666666667,607.358,1,1,1,1
24-May-2018 12:46:41,664.090909090909,0.939783333333333,0.00388333333333334,0.439233333333333,63.972,-1.1794,12.2272,4.70666666666667,-0.93504,0.09888,-0.43062,4.95266666666667,0.135666666666667,0.935555555555556,108.477,0.751428571428571,0.273514285714286,0.554328571428571,34.02,11.6466666666667,32.21,5.009,-0.9388125,-0.067175,0.275625,-59.4986,-1.8414,23.4404,472.29,1,1,1,1
24-May-2018 12:46:41,664.090909090909,0.939783333333333,0.00388333333333334,0.439233333333333,63.972,-1.1794,12.2272,4.70666666666667,-0.93504,0.09888,-0.43062,4.95266666666667,0.135666666666667,0.935555555555556,108.477,0.751428571428571,0.273514285714286,0.554328571428571,34.02,11.6466666666667,32.21,5.009,-0.9388125,-0.067175,0.275625,-59.4986,-1.8414,23.4404,472.29,1,1,1,1
24-May-2018 12:46:41,664.090909090909,0.939783333333333,0.00388333333333334,0.439233333333333,63.972,-1.1794,12.2272,4.70666666666667,-0.93504,0.09888,-0.43062,4.95266666666667,0.135666666666667,0.935555555555556,108.477,0.751428571428571,0.273514285714286,0.554328571428571,34.02,11.6466666666667,32.21,5.009,-0.9388125,-0.067175,0.275625,-59.4986,-1.8414,23.4404,472.29,1,1,1,1
24-May-2018 12:46:41,664.090909090909,0.939783333333333,0.00388333333333334,0.439233333333333,63.972,-1.1794,12.2272,4.70666666666667,-0.93504,0.09888,-0.43062,4.95266666666667,0.135666666666667,0.935555555555556,108.477,0.751428571428571,0.273514285714286,0.554328571428571,34.02,11.6466666666667,32.21,5.009,-0.9388125,-0.067175,0.275625,-59.4986,-1.8414,23.4404,472.29,1,1,1,1
24-May-2018 12:46:42,480.125,0.8301,-9.99999999999953e-05,0.465816666666667,82.0816666666667,-2.40166666666667,33.2566666666667,4.179,-0.94045,0.0804666666666667,-0.399333333333333,3.933,-0.000999999999999945,-1.9925,109.021,0.81485,0.313633333333333,0.5034,48.35,6.585,16.46,5.46,-0.96885,-0.1098,0.195016666666667,-67.936,-8.88216666666667,1.819,643.4785,1,1,1,1
24-May-2018 12:46:42,480.125,0.8301,-9.99999999999953e-05,0.465816666666667,82.0816666666667,-2.40166666666667,33.2566666666667,4.179,-0.94045,0.0804666666666667,-0.399333333333333,3.933,-0.000999999999999945,-1.9925,109.021,0.81485,0.313633333333333,0.5034,48.35,6.585,16.46,5.46,-0.96885,-0.1098,0.195016666666667,-67.936,-8.88216666666667,1.819,643.4785,1,1,1,1
24-May-2018 12:46:42,480.125,0.8301,-9.99999999999953e-05,0.465816666666667,82.0816666666667,-2.40166666666667,33.2566666666667,4.179,-0.94045,0.0804666666666667,-0.399333333333333,3.933,-0.000999999999999945,-1.9925,109.021,0.81485,0.313633333333333,0.5034,48.35,6.585,16.46,5.46,-0.96885,-0.1098,0.195016666666667,-67.936,-8.88216666666667,1.819,643.4785,1,1,1,1
24-May-2018 12:46:42,480.125,0.8301,-9.99999999999953e-05,0.465816666666667,82.0816666666667,-2.40166666666667,33.2566666666667,4.179,-0.94045,0.0804666666666667,-0.399333333333333,3.933,-0.000999999999999945,-1.9925,109.021,0.81485,0.313633333333333,0.5034,48.35,6.585,16.46,5.46,-0.96885,-0.1098,0.195016666666667,-67.936,-8.88216666666667,1.819,643.4785,1,1,1,1
24-May-2018 12:46:43,364.333333333333,0.86645,-0.0294666666666667,0.441166666666667,1.23516666666667,-4.90033333333333,0.0844999999999998,4.953,-0.93628,0.07046,-0.43764,-0.995111111111111,13.0456666666667,2.19555555555556,110.109,0.8307,0.28365,0.37575,73.2633333333333,10.1003333333333,36.48,2.927,-0.993925,-0.1296,0.290725,8.72175,-15.0455,-3.32325,680.1606,1,1,1,1
24-May-2018 12:46:43,364.333333333333,0.86645,-0.0294666666666667,0.441166666666667,1.23516666666667,-4.90033333333333,0.0844999999999998,4.953,-0.93628,0.07046,-0.43764,-0.995111111111111,13.0456666666667,2.19555555555556,110.109,0.8307,0.28365,0.37575,73.2633333333333,10.1003333333333,36.48,2.927,-0.993925,-0.1296,0.290725,8.72175,-15.0455,-3.32325,680.1606,1,1,1,1
24-May-2018 12:46:43,364.333333333333,0.86645,-0.0294666666666667,0.441166666666667,1.23516666666667,-4.90033333333333,0.0844999999999998,4.953,-0.93628,0.07046,-0.43764,-0.995111111111111,13.0456666666667,2.19555555555556,110.109,0.8307,0.28365,0.37575,73.2633333333333,10.1003333333333,36.48,2.927,-0.993925,-0.1296,0.290725,8.72175,-15.0455,-3.32325,680.1606,1,1,1,1
24-May-2018 12:46:43,364.333333333333,0.86645,-0.0294666666666667,0.441166666666667,1.23516666666667,-4.90033333333333,0.0844999999999998,4.953,-0.93628,0.07046,-0.43764,-0.995111111111111,13.0456666666667,2.19555555555556,110.109,0.8307,0.28365,0.37575,73.2633333333333,10.1003333333333,36.48,2.927,-0.993925,-0.1296,0.290725,8.72175,-15.0455,-3.32325,680.1606,1,1,1,1
24-May-2018 12:46:44,267.454545454545,0.92836,-0.00138,0.39842,-33.06,0.145833333333334,-17.1695,4.7345,-0.914025,0.100125,-0.477875,-6.89,12.8402,6.122,110.109,0.87205,0.40085,0.43125,-7.6,6.555,0.5525,2.026,-0.968183333333333,-0.057,0.333716666666667,20.0101666666667,11.4838333333333,27.1341666666667,731.739,1,1,1,1
24-May-2018 12:46:44,267.454545454545,0.92836,-0.00138,0.39842,-33.06,0.145833333333334,-17.1695,4.7345,-0.914025,0.100125,-0.477875,-6.89,12.8402,6.122,110.109,0.87205,0.40085,0.43125,-7.6,6.555,0.5525,2.026,-0.968183333333333,-0.057,0.333716666666667,20.0101666666667,11.4838333333333,27.1341666666667,731.739,1,1,1,1
24-May-2018 12:46:44,267.454545454545,0.92836,-0.00138,0.39842,-33.06,0.145833333333334,-17.1695,4.7345,-0.914025,0.100125,-0.477875,-6.89,12.8402,6.122,110.109,0.87205,0.40085,0.43125,-7.6,6.555,0.5525,2.026,-0.968183333333333,-0.057,0.333716666666667,20.0101666666667,11.4838333333333,27.1341666666667,731.739,1,1,1,1
24-May-2018 12:46:44,267.454545454545,0.92836,-0.00138,0.39842,-33.06,0.145833333333334,-17.1695,4.7345,-0.914025,0.100125,-0.477875,-6.89,12.8402,6.122,110.109,0.87205,0.40085,0.43125,-7.6,6.555,0.5525,2.026,-0.968183333333333,-0.057,0.333716666666667,20.0101666666667,11.4838333333333,27.1341666666667,731.739,1,1,1,1
24-May-2018 12:46:45,197.1,0.912483333333333,-0.0916166666666667,0.406416666666667,-33.0058,1.3084,-4.42,5.04666666666667,-0.88426,0.1253,-0.51478,-8.83222222222222,12.0785555555556,11.7377777777778,111.754,0.7554,0.308425,0.580225,-35.642,-12.656,-18.3292,1.89,-0.961525,0.00929999999999999,0.233,-24.5364,6.3536,-2.80480000000001,670.5274,1,1,1,1
24-May-2018 12:46:45,197.1,0.912483333333333,-0.0916166666666667,0.406416666666667,-33.0058,1.3084,-4.42,5.04666666666667,-0.88426,0.1253,-0.51478,-8.83222222222222,12.0785555555556,11.7377777777778,111.754,0.7554,0.308425,0.580225,-35.642,-12.656,-18.3292,1.89,-0.961525,0.00929999999999999,0.233,-24.5364,6.3536,-2.80480000000001,670.5274,1,1,1,1
24-May-2018 12:46:45,197.1,0.912483333333333,-0.0916166666666667,0.406416666666667,-33.0058,1.3084,-4.42,5.04666666666667,-0.88426,0.1253,-0.51478,-8.83222222222222,12.0785555555556,11.7377777777778,111.754,0.7554,0.308425,0.580225,-35.642,-12.656,-18.3292,1.89,-0.961525,0.00929999999999999,0.233,-24.5364,6.3536,-2.80480000000001,670.5274,1,1,1,1
24-May-2018 12:46:45,197.1,0.912483333333333,-0.0916166666666667,0.406416666666667,-33.0058,1.3084,-4.42,5.04666666666667,-0.88426,0.1253,-0.51478,-8.83222222222222,12.0785555555556,11.7377777777778,111.754,0.7554,0.308425,0.580225,-35.642,-12.656,-18.3292,1.89,-0.961525,0.00929999999999999,0.233,-24.5364,6.3536,-2.80480000000001,670.5274,1,1,1,1
24-May-2018 12:46:46,154.875,0.9045,0.01302,0.41477,48.5325,-2.036375,21.85475,5.04666666666667,-0.87905,0.180875,-0.564475,-2.94055555555556,13.8728888888889,1.39611111111111,111.754,0.7224,0.26865,0.55105,-11.2218,0.6606,-2.219,2.3402,-0.928216666666667,-0.0136,0.3283,-44.2247142857143,-2.88328571428571,9.89542857142857,624.62,1,1,1,1
24-May-2018 12:46:46,154.875,0.9045,0.01302,0.41477,48.5325,-2.036375,21.85475,5.04666666666667,-0.87905,0.180875,-0.564475,-2.94055555555556,13.8728888888889,1.39611111111111,111.754,0.7224,0.26865,0.55105,-11.2218,0.6606,-2.219,2.3402,-0.928216666666667,-0.0136,0.3283,-44.2247142857143,-2.88328571428571,9.89542857142857,624.62,1,1,1,1
24-May-2018 12:46:46,154.875,0.9045,0.01302,0.41477,48.5325,-2.036375,21.85475,5.04666666666667,-0.87905,0.180875,-0.564475,-2.94055555555556,13.8728888888889,1.39611111111111,111.754,0.7224,0.26865,0.55105,-11.2218,0.6606,-2.219,2.3402,-0.928216666666667,-0.0136,0.3283,-44.2247142857143,-2.88328571428571,9.89542857142857,624.62,1,1,1,1
24-May-2018 12:46:46,154.875,0.9045,0.01302,0.41477,48.5325,-2.036375,21.85475,5.04666666666667,-0.87905,0.180875,-0.564475,-2.94055555555556,13.8728888888889,1.39611111111111,111.754,0.7224,0.26865,0.55105,-11.2218,0.6606,-2.219,2.3402,-0.928216666666667,-0.0136,0.3283,-44.2247142857143,-2.88328571428571,9.89542857142857,624.62,1,1,1,1
24-May-2018 12:46:47,125.7,0.897211111111111,0.0117111111111111,0.408633333333333,61.725,0.1955,23.274375,5.04666666666667,-0.85138,0.14854,-0.59376,6.748,21.2297777777778,-13.7333333333333,111.754,0.85636,0.28768,0.52428,48.1585714285714,26.809,26.7885714285714,2.3402,-0.980525,-0.05445,0.298575,-22.8045,-34.3595,-39.36,682.442,1,1,1,1
24-May-2018 12:46:47,125.7,0.897211111111111,0.0117111111111111,0.408633333333333,61.725,0.1955,23.274375,5.04666666666667,-0.85138,0.14854,-0.59376,6.748,21.2297777777778,-13.7333333333333,111.754,0.85636,0.28768,0.52428,48.1585714285714,26.809,26.7885714285714,2.3402,-0.980525,-0.05445,0.298575,-22.8045,-34.3595,-39.36,682.442,1,1,1,1
24-May-2018 12:46:47,125.7,0.897211111111111,0.0117111111111111,0.408633333333333,61.725,0.1955,23.274375,5.04666666666667,-0.85138,0.14854,-0.59376,6.748,21.2297777777778,-13.7333333333333,111.754,0.85636,0.28768,0.52428,48.1585714285714,26.809,26.7885714285714,2.3402,-0.980525,-0.05445,0.298575,-22.8045,-34.3595,-39.36,682.442,1,1,1,1
24-May-2018 12:46:47,125.7,0.897211111111111,0.0117111111111111,0.408633333333333,61.725,0.1955,23.274375,5.04666666666667,-0.85138,0.14854,-0.59376,6.748,21.2297777777778,-13.7333333333333,111.754,0.85636,0.28768,0.52428,48.1585714285714,26.809,26.7885714285714,0,-0.980525,-0.05445,0.298575,-22.8045,-34.3595,-39.36,682.442,1,1,1,1
24-May-2018 12:46:48,102.1,0.892485714285714,0.0521142857142857,0.370285714285714,61.793125,-4.125,17.3555,5.04666666666667,-0.84505,0.0934,-0.652275,5.49433333333333,-2.67455555555556,-17.0555555555556,120.424666666667,0.76985,0.25015,0.5571,63.872,30.742,34.762,5.1786,-0.96706,-0.0895,0.18226,-88.1796666666667,4.7155,32.6218333333333,945.747,1,1,1,1
24-May-2018 12:46:48,102.1,0.892485714285714,0.0521142857142857,0.370285714285714,61.793125,-4.125,17.3555,5.04666666666667,-0.84505,0.0934,-0.652275,5.49433333333333,-2.67455555555556,-17.0555555555556,120.424666666667,0.76985,0.25015,0.5571,63.872,30.742,34.762,5.1786,-0.96706,-0.0895,0.18226,-88.1796666666667,4.7155,32.6218333333333,945.747,1,1,1,1
24-May-2018 12:46:48,102.1,0.892485714285714,0.0521142857142857,0.370285714285714,61.793125,-4.125,17.3555,5.04666666666667,-0.84505,0.0934,-0.652275,5.49433333333333,-2.67455555555556,-17.0555555555556,120.424666666667,0.76985,0.25015,0.5571,63.872,30.742,34.762,5.1786,-0.96706,-0.0895,0.18226,-88.1796666666667,4.7155,32.6218333333333,945.747,1,1,1,1
24-May-2018 12:46:48,102.1,0.892485714285714,0.0521142857142857,0.370285714285714,61.793125,-4.125,17.3555,5.04666666666667,-0.84505,0.0934,-0.652275,5.49433333333333,-2.67455555555556,-17.0555555555556,120.424666666667,0.76985,0.25015,0.5571,63.872,30.742,34.762,5.1786,-0.96706,-0.0895,0.18226,-88.1796666666667,4.7155,32.6218333333333,945.747,1,1,1,1
24-May-2018 12:46:49,86.7777777777778,0.892975,-0.0139625,0.43275,14.6218333333333,-2.1905,17.6803333333333,7.6375,-0.82325,0.0352,-0.59385,4.53922222222222,-5.438,-11.6122222222222,124.76,0.91365,0.310225,0.385925,15.8923333333333,12.9366666666667,3.06933333333333,4.82,-0.971333333333333,-0.0961833333333333,0.280966666666667,5.549,-12.8294,-22.9024,719.4572,1,1,1,1
24-May-2018 12:46:49,86.7777777777778,0.892975,-0.0139625,0.43275,14.6218333333333,-2.1905,17.6803333333333,7.6375,-0.82325,0.0352,-0.59385,4.53922222222222,-5.438,-11.6122222222222,124.76,0.91365,0.310225,0.385925,15.8923333333333,12.9366666666667,3.06933333333333,4.82,-0.971333333333333,-0.0961833333333333,0.280966666666667,5.549,-12.8294,-22.9024,719.4572,1,1,1,1
24-May-2018 12:46:49,86.7777777777778,0.892975,-0.0139625,0.43275,14.6218333333333,-2.1905,17.6803333333333,7.6375,-0.82325,0.0352,-0.59385,4.53922222222222,-5.438,-11.6122222222222,124.76,0.91365,0.310225,0.385925,15.8923333333333,12.9366666666667,3.06933333333333,4.82,-0.971333333333333,-0.0961833333333333,0.280966666666667,5.549,-12.8294,-22.9024,719.4572,1,1,1,1
24-May-2018 12:46:49,86.7777777777778,0.892975,-0.0139625,0.43275,14.6218333333333,-2.1905,17.6803333333333,7.6375,-0.82325,0.0352,-0.59385,4.53922222222222,-5.438,-11.6122222222222,124.76,0.91365,0.310225,0.385925,15.8923333333333,12.9366666666667,3.06933333333333,4.82,-0.971333333333333,-0.0961833333333333,0.280966666666667,5.549,-12.8294,-22.9024,719.4572,1,1,1,1
24-May-2018 12:46:50,76,0.95435,0.09145,0.34645,1.681,6.2195,-10.456,8.25566666666667,-0.89425,-0.000999999999999999,-0.53575,-5.8045,-20.5825,-5.0865,119.548,0.66985,0.2557,0.8102,16.452,24.4366,10.28,4.82,-0.9976,-0.1078,0.276733333333333,-106.7965,44.299,95.5185,739.208,1,1,0,1
24-May-2018 12:46:50,76,0.95435,0.09145,0.34645,1.681,6.2195,-10.456,8.25566666666667,-0.89425,-0.000999999999999999,-0.53575,-5.8045,-20.5825,-5.0865,119.548,0.66985,0.2557,0.8102,16.452,24.4366,10.28,4.82,-0.9976,-0.1078,0.276733333333333,-106.7965,44.299,95.5185,739.208,1,1,0,1
24-May-2018 12:46:50,76,0.95435,0.09145,0.34645,1.681,6.2195,-10.456,8.25566666666667,-0.89425,-0.000999999999999999,-0.53575,-5.8045,-20.5825,-5.0865,119.548,0.66985,0.2557,0.8102,16.452,24.4366,10.28,4.82,-0.9976,-0.1078,0.276733333333333,-106.7965,44.299,95.5185,739.208,1,1,0,1
24-May-2018 12:46:50,76,0.95435,0.09145,0.34645,1.681,6.2195,-10.456,8.25566666666667,-0.89425,-0.000999999999999999,-0.53575,-5.8045,-20.5825,-5.0865,119.548,0.66985,0.2557,0.8102,16.452,24.4366,10.28,0,-0.9976,-0.1078,0.276733333333333,-106.7965,44.299,95.5185,739.208,1,1,0,1
24-May-2018 12:46:51,68.2727272727273,0.863666666666667,-0.08265,0.449616666666667,29.1171428571429,-2.556,7.02,9.33975,-0.908625,-0.0023,-0.505725,-7.03,-4.68266666666667,8.22322222222222,114.336,0.871916666666667,0.29745,0.56375,11.0171428571429,-1.48,3.14285714285714,5.12525,-0.936725,-0.049975,0.2015,-15.860375,-3.97875,3.5365,703.443,0,0,1,1
24-May-2018 12:46:51,68.2727272727273,0.863666666666667,-0.08265,0.449616666666667,29.1171428571429,-2.556,7.02,9.33975,-0.908625,-0.0023,-0.505725,-7.03,-4.68266666666667,8.22322222222222,114.336,0.871916666666667,0.29745,0.56375,11.0171428571429,-1.48,3.14285714285714,5.12525,-0.936725,-0.049975,0.2015,-15.860375,-3.97875,3.5365,703.443,0,0,1,1
24-May-2018 12:46:51,68.2727272727273,0.863666666666667,-0.08265,0.449616666666667,29.1171428571429,-2.556,7.02,9.33975,-0.908625,-0.0023,-0.505725,-7.03,-4.68266666666667,8.22322222222222,114.336,0.871916666666667,0.29745,0.56375,11.0171428571429,-1.48,3.14285714285714,5.12525,-0.936725,-0.049975,0.2015,-15.860375,-3.97875,3.5365,703.443,0,0,1,1
24-May-2018 12:46:51,68.2727272727273,0.863666666666667,-0.08265,0.449616666666667,29.1171428571429,-2.556,7.02,9.33975,-0.908625,-0.0023,-0.505725,-7.03,-4.68266666666667,8.22322222222222,114.336,0.871916666666667,0.29745,0.56375,11.0171428571429,-1.48,3.14285714285714,5.12525,-0.936725,-0.049975,0.2015,-15.860375,-3.97875,3.5365,703.443,0,0,1,1
24-May-2018 12:46:52,63.8,0.915275,-0.0133625,0.4044,25.3238333333333,1.00533333333333,16.1063333333333,8.36266666666667,-0.90945,0.0635,-0.48105,2.36588888888889,-2.86333333333333,6.79522222222222,95.822,0.81114,0.3172,0.43392,28.9383333333333,24.7746666666667,16.0883333333333,10.837,-0.92802,-0.05912,0.24934,4.2684,-22.183,-31.0366,549.285,1,1,1,1
24-May-2018 12:46:52,63.8,0.915275,-0.0133625,0.4044,25.3238333333333,1.00533333333333,16.1063333333333,8.36266666666667,-0.90945,0.0635,-0.48105,2.36588888888889,-2.86333333333333,6.79522222222222,95.822,0.81114,0.3172,0.43392,28.9383333333333,24.7746666666667,16.0883333333333,10.837,-0.92802,-0.05912,0.24934,4.2684,-22.183,-31.0366,549.285,1,1,1,1
24-May-2018 12:46:52,63.8,0.915275,-0.0133625,0.4044,25.3238333333333,1.00533333333333,16.1063333333333,8.36266666666667,-0.90945,0.0635,-0.48105,2.36588888888889,-2.86333333333333,6.79522222222222,95.822,0.81114,0.3172,0.43392,28.9383333333333,24.7746666666667,16.0883333333333,10.837,-0.92802,-0.05912,0.24934,4.2684,-22.183,-31.0366,549.285,1,1,1,1
24-May-2018 12:46:52,63.8,0.915275,-0.0133625,0.4044,25.3238333333333,1.00533333333333,16.1063333333333,8.36266666666667,-0.90945,0.0635,-0.48105,2.36588888888889,-2.86333333333333,6.79522222222222,95.822,0.81114,0.3172,0.43392,28.9383333333333,24.7746666666667,16.0883333333333,10.837,-0.92802,-0.05912,0.24934,4.2684,-22.183,-31.0366,549.285,1,1,1,1
24-May-2018 12:46:53,59.2727272727273,0.83566,0.03044,0.42202,48.8014285714286,-0.285142857142857,17.8428571428571,5.7565,-0.9333,0.06918,-0.48848,11.7387142857143,-0.650285714285714,6.12357142857143,103.776,0.829083333333333,0.336516666666667,0.507516666666667,21.5075,-7.6575,12.8485,8.67633333333333,-1.02212,-0.05078,0.3069,-55.105375,-10.350625,0.0151250000000029,615.84875,1,1,1,0
24-May-2018 12:46:53,59.2727272727273,0.83566,0.03044,0.42202,48.8014285714286,-0.285142857142857,17.8428571428571,5.7565,-0.9333,0.06918,-0.48848,11.7387142857143,-0.650285714285714,6.12357142857143,103.776,0.829083333333333,0.336516666666667,0.507516666666667,21.5075,-7.6575,12.8485,8.67633333333333,-1.02212,-0.05078,0.3069,-55.105375,-10.350625,0.0151250000000029,615.84875,1,1,1,0
24-May-2018 12:46:53,59.2727272727273,0.83566,0.03044,0.42202,48.8014285714286,-0.285142857142857,17.8428571428571,5.7565,-0.9333,0.06918,-0.48848,11.7387142857143,-0.650285714285714,6.12357142857143,103.776,0.829083333333333,0.336516666666667,0.507516666666667,21.5075,-7.6575,12.8485,8.67633333333333,-1.02212,-0.05078,0.3069,-55.105375,-10.350625,0.0151250000000029,615.84875,1,1,1,0
24-May-2018 12:46:53,59.2727272727273,0.83566,0.03044,0.42202,48.8014285714286,-0.285142857142857,17.8428571428571,5.7565,-0.9333,0.06918,-0.48848,11.7387142857143,-0.650285714285714,6.12357142857143,103.776,0.829083333333333,0.336516666666667,0.507516666666667,21.5075,-7.6575,12.8485,8.67633333333333,-1.02212,-0.05078,0.3069,-55.105375,-10.350625,0.0151250000000029,615.84875,1,1,1,0
24-May-2018 12:46:54,56.625,0.90096,-0.01378,0.43042,109.5025,-12.0725,38.455,4.933,-0.9208,0.0812,-0.4938,6.1344,-4.7504,0.345,103.776,0.7674,0.2756,0.502066666666667,77.5875,38.9875,49.95,4.434,-0.90945,-0.09275,0.185,-122.68075,5.076,47.16475,532.816,1,1,1,1
24-May-2018 12:46:54,56.625,0.90096,-0.01378,0.43042,109.5025,-12.0725,38.455,4.933,-0.9208,0.0812,-0.4938,6.1344,-4.7504,0.345,103.776,0.7674,0.2756,0.502066666666667,77.5875,38.9875,49.95,4.434,-0.90945,-0.09275,0.185,-122.68075,5.076,47.16475,532.816,1,1,1,1
24-May-2018 12:46:54,56.625,0.90096,-0.01378,0.43042,109.5025,-12.0725,38.455,4.933,-0.9208,0.0812,-0.4938,6.1344,-4.7504,0.345,103.776,0.7674,0.2756,0.502066666666667,77.5875,38.9875,49.95,4.434,-0.90945,-0.09275,0.185,-122.68075,5.076,47.16475,532.816,1,1,1,1
24-May-2018 12:46:54,56.625,0.90096,-0.01378,0.43042,109.5025,-12.0725,38.455,4.933,-0.9208,0.0812,-0.4938,6.1344,-4.7504,0.345,103.776,0.7674,0.2756,0.502066666666667,77.5875,38.9875,49.95,4.434,-0.90945,-0.09275,0.185,-122.68075,5.076,47.16475,532.816,1,1,1,1
24-May-2018 12:46:55,55.1,0.877242857142857,0.0236857142857143,0.403914285714286,22.4955714285714,-0.545571428571428,13.7598571428571,5.321,-0.9355,0.0368,-0.532725,1.7209,15.3461,-4.306,106.078,0.91834,0.26858,0.38956,31.5714285714286,13.0251428571429,15.2592857142857,3.158,-0.987783333333333,-0.0841666666666667,0.249533333333333,-51.0178571428572,5.50528571428571,7.892,676.4535,1,1,1,1
24-May-2018 12:46:55,55.1,0.877242857142857,0.0236857142857143,0.403914285714286,22.4955714285714,-0.545571428571428,13.7598571428571,5.321,-0.9355,0.0368,-0.532725,1.7209,15.3461,-4.306,106.078,0.91834,0.26858,0.38956,31.5714285714286,13.0251428571429,15.2592857142857,3.158,-0.987783333333333,-0.0841666666666667,0.249533333333333,-51.0178571428572,5.50528571428571,7.892,676.4535,1,1,1,1
24-May-2018 12:46:55,55.1,0.877242857142857,0.0236857142857143,0.403914285714286,22.4955714285714,-0.545571428571428,13.7598571428571,5.321,-0.9355,0.0368,-0.532725,1.7209,15.3461,-4.306,106.078,0.91834,0.26858,0.38956,31.5714285714286,13.0251428571429,15.2592857142857,3.158,-0.987783333333333,-0.0841666666666667,0.249533333333333,-51.0178571428572,5.50528571428571,7.892,676.4535,1,1,1,1
24-May-2018 12:46:55,55.1,0.877242857142857,0.0236857142857143,0.403914285714286,22.4955714285714,-0.545571428571428,13.7598571428571,5.321,-0.9355,0.0368,-0.532725,1.7209,15.3461,-4.306,106.078,0.91834,0.26858,0.38956,31.5714285714286,13.0251428571429,15.2592857142857,3.158,-0.987783333333333,-0.0841666666666667,0.249533333333333,-51.0178571428572,5.50528571428571,7.892,676.4535,1,1,1,1
24-May-2018 12:46:56,53.7272727272727,0.870928571428571,0.0202857142857143,0.450028571428571,-22.996,-2.74355555555556,-15.3334444444444,5.113,-0.8444,0.0134,-0.5178,-16.2,8.132,-14.1333333333333,108.38,0.7684,0.319666666666667,0.618866666666667,-7.01466666666667,-21.4066666666667,-7.32666666666667,3.1905,-0.91602,-0.17836,0.26874,-27.7562,17.8174,14.073,716.454,1,1,1,1
24-May-2018 12:46:56,53.7272727272727,0.870928571428571,0.0202857142857143,0.450028571428571,-22.996,-2.74355555555556,-15.3334444444444,5.113,-0.8444,0.0134,-0.5178,-16.2,8.132,-14.1333333333333,108.38,0.7684,0.319666666666667,0.618866666666667,-7.01466666666667,-21.4066666666667,-7.32666666666667,3.1905,-0.91602,-0.17836,0.26874,-27.7562,17.8174,14.073,716.454,1,1,1,1
24-May-2018 12:46:56,53.7272727272727,0.870928571428571,0.0202857142857143,0.450028571428571,-22.996,-2.74355555555556,-15.3334444444444,5.113,-0.8444,0.0134,-0.5178,-16.2,8.132,-14.1333333333333,108.38,0.7684,0.319666666666667,0.618866666666667,-7.01466666666667,-21.4066666666667,-7.32666666666667,3.1905,-0.91602,-0.17836,0.26874,-27.7562,17.8174,14.073,716.454,1,1,1,1
24-May-2018 12:46:56,53.7272727272727,0.870928571428571,0.0202857142857143,0.450028571428571,-22.996,-2.74355555555556,-15.3334444444444,5.113,-0.8444,0.0134,-0.5178,-16.2,8.132,-14.1333333333333,108.38,0.7684,0.319666666666667,0.618866666666667,-7.01466666666667,-21.4066666666667,-7.32666666666667,3.1905,-0.91602,-0.17836,0.26874,-27.7562,17.8174,14.073,716.454,1,1,1,1
24-May-2018 12:46:57,52.75,0.8906125,-0.0460875,0.4094375,-28.663625,2.882875,-8.611875,5.113,-0.84642,0.03884,-0.46778,-23.3125,-11.387625,-8.10375,108.38,0.851133333333333,0.326966666666667,0.4546,-38.825,-16.286,-5.034,3.3445,-1.00716666666667,-0.0831833333333333,0.234366666666667,61.2095,-7.46966666666667,-23.7285,643.679333333333,1,0,1,1
24-May-2018 12:46:57,52.75,0.8906125,-0.0460875,0.4094375,-28.663625,2.882875,-8.611875,5.113,-0.84642,0.03884,-0.46778,-23.3125,-11.387625,-8.10375,108.38,0.851133333333333,0.326966666666667,0.4546,-38.825,-16.286,-5.034,3.3445,-1.00716666666667,-0.0831833333333333,0.234366666666667,61.2095,-7.46966666666667,-23.7285,643.679333333333,1,0,1,1
24-May-2018 12:46:57,52.75,0.8906125,-0.0460875,0.4094375,-28.663625,2.882875,-8.611875,5.113,-0.84642,0.03884,-0.46778,-23.3125,-11.387625,-8.10375,108.38,0.851133333333333,0.326966666666667,0.4546,-38.825,-16.286,-5.034,3.3445,-1.00716666666667,-0.0831833333333333,0.234366666666667,61.2095,-7.46966666666667,-23.7285,643.679333333333,1,0,1,1
24-May-2018 12:46:57,52.75,0.8906125,-0.0460875,0.4094375,-28.663625,2.882875,-8.611875,5.113,-0.84642,0.03884,-0.46778,-23.3125,-11.387625,-8.10375,108.38,0.851133333333333,0.326966666666667,0.4546,-38.825,-16.286,-5.034,3.3445,-1.00716666666667,-0.0831833333333333,0.234366666666667,61.2095,-7.46966666666667,-23.7285,643.679333333333,1,0,1,1
24-May-2018 12:46:58,52.2,0.896922222222222,-0.00482222222222223,0.444677777777778,25.272125,-5.217375,12.521,5.113,-0.98548,0.02864,-0.43112,-10.81,-10.3066666666667,-23.1666666666667,108.38,0.8120375,0.2621625,0.54335,-12,-10,-20.3,2.7205,-0.89364,0.01106,0.25794,12.5697142857143,1.06271428571429,0.810142857142859,674.51825,1,0,1,1
24-May-2018 12:46:58,52.2,0.896922222222222,-0.00482222222222223,0.444677777777778,25.272125,-5.217375,12.521,5.113,-0.98548,0.02864,-0.43112,-10.81,-10.3066666666667,-23.1666666666667,108.38,0.8120375,0.2621625,0.54335,-12,-10,-20.3,2.7205,-0.89364,0.01106,0.25794,12.5697142857143,1.06271428571429,0.810142857142859,674.51825,1,0,1,1
24-May-2018 12:46:58,52.2,0.896922222222222,-0.00482222222222223,0.444677777777778,25.272125,-5.217375,12.521,0,-0.98548,0.02864,-0.43112,-10.81,-10.3066666666667,-23.1666666666667,108.38,0.8120375,0.2621625,0.54335,-12,-10,-20.3,2.7205,-0.89364,0.01106,0.25794,12.5697142857143,1.06271428571429,0.810142857142859,674.51825,1,0,1,1
24-May-2018 12:46:58,52.2,0.896922222222222,-0.00482222222222223,0.444677777777778,25.272125,-5.217375,12.521,0,-0.98548,0.02864,-0.43112,-10.81,-10.3066666666667,-23.1666666666667,108.38,0.8120375,0.2621625,0.54335,-12,-10,-20.3,2.7205,-0.89364,0.01106,0.25794,12.5697142857143,1.06271428571429,0.810142857142859,674.51825,1,0,1,1
24-May-2018 12:46:59,52,0.860614285714286,0.0486571428571429,0.4324,50.1028571428571,-0.907142857142856,19.0224285714286,6.867,-0.94685,0.021375,-0.433075,8.04077777777778,11.7522222222222,5.21566666666667,96.722,0.7515,0.3172,0.55395,31.24625,16.3925,14.25,2.6305,-0.9432,-0.20558,0.22582,-87.7323333333333,-1.22966666666667,40.874,653.725,1,1,1,1
24-May-2018 12:46:59,52,0.860614285714286,0.0486571428571429,0.4324,50.1028571428571,-0.907142857142856,19.0224285714286,6.867,-0.94685,0.021375,-0.433075,8.04077777777778,11.7522222222222,5.21566666666667,96.722,0.7515,0.3172,0.55395,31.24625,16.3925,14.25,2.6305,-0.9432,-0.20558,0.22582,-87.7323333333333,-1.22966666666667,40.874,653.725,1,1,1,1
24-May-2018 12:46:59,52,0.860614285714286,0.0486571428571429,0.4324,50.1028571428571,-0.907142857142856,19.0224285714286,6.867,-0.94685,0.021375,-0.433075,8.04077777777778,11.7522222222222,5.21566666666667,96.722,0.7515,0.3172,0.55395,31.24625,16.3925,14.25,2.6305,-0.9432,-0.20558,0.22582,-87.7323333333333,-1.22966666666667,40.874,653.725,1,1,1,1
24-May-2018 12:46:59,52,0.860614285714286,0.0486571428571429,0.4324,50.1028571428571,-0.907142857142856,19.0224285714286,6.867,-0.94685,0.021375,-0.433075,8.04077777777778,11.7522222222222,5.21566666666667,96.722,0.7515,0.3172,0.55395,31.24625,16.3925,14.25,2.6305,-0.9432,-0.20558,0.22582,-87.7323333333333,-1.22966666666667,40.874,653.725,1,1,1,1
24-May-2018 12:47:00,52.0909090909091,0.9058,-0.06616,0.43434,85.655,-11.5275,28.67,6.98766666666667,-0.873175,0.0006,-0.472075,18.2477777777778,1.82355555555556,10.7008888888889,96.722,0.792766666666667,0.330033333333333,0.528683333333333,56.214,24.922,35.342,3.29875,-0.93396,-0.06,0.193,-83.4115,-15.13725,-7.11750000000001,725.469,1,1,0,0
24-May-2018 12:47:00,52.0909090909091,0.9058,-0.06616,0.43434,85.655,-11.5275,28.67,6.98766666666667,-0.873175,0.0006,-0.472075,18.2477777777778,1.82355555555556,10.7008888888889,96.722,0.792766666666667,0.330033333333333,0.528683333333333,56.214,24.922,35.342,3.29875,-0.93396,-0.06,0.193,-83.4115,-15.13725,-7.11750000000001,725.469,1,1,0,0
24-May-2018 12:47:00,52.0909090909091,0.9058,-0.06616,0.43434,85.655,-11.5275,28.67,6.98766666666667,-0.873175,0.0006,-0.472075,18.2477777777778,1.82355555555556,10.7008888888889,96.722,0.792766666666667,0.330033333333333,0.528683333333333,56.214,24.922,35.342,3.29875,-0.93396,-0.06,0.193,-83.4115,-15.13725,-7.11750000000001,725.469,1,1,0,0
24-May-2018 12:47:00,52.0909090909091,0.9058,-0.06616,0.43434,85.655,-11.5275,28.67,6.98766666666667,-0.873175,0.0006,-0.472075,18.2477777777778,1.82355555555556,10.7008888888889,96.722,0.792766666666667,0.330033333333333,0.528683333333333,56.214,24.922,35.342,3.29875,-0.93396,-0.06,0.193,-83.4115,-15.13725,-7.11750000000001,725.469,1,1,0,0
24-May-2018 12:47:01,51.3333333333333,0.87852,0.02214,0.44128,60.094,-0.314,32.1916,7.51533333333333,-0.89395,0.010875,-0.514025,8.62288888888889,4.57,10.3697777777778,97.622,0.854266666666667,0.3133,0.460033333333333,70.7783333333333,29.369,32.0583333333333,3.86133333333333,-0.95596,-0.17532,0.23688,-70.2611428571429,8.98957142857143,12.8048571428571,797.157,0,1,0,0
24-May-2018 12:47:01,51.3333333333333,0.87852,0.02214,0.44128,60.094,-0.314,32.1916,7.51533333333333,-0.89395,0.010875,-0.514025,8.62288888888889,4.57,10.3697777777778,97.622,0.854266666666667,0.3133,0.460033333333333,70.7783333333333,29.369,32.0583333333333,3.86133333333333,-0.95596,-0.17532,0.23688,-70.2611428571429,8.98957142857143,12.8048571428571,797.157,0,1,0,0
24-May-2018 12:47:01,51.3333333333333,0.87852,0.02214,0.44128,60.094,-0.314,32.1916,7.51533333333333,-0.89395,0.010875,-0.514025,8.62288888888889,4.57,10.3697777777778,97.622,0.854266666666667,0.3133,0.460033333333333,70.7783333333333,29.369,32.0583333333333,3.86133333333333,-0.95596,-0.17532,0.23688,-70.2611428571429,8.98957142857143,12.8048571428571,797.157,0,1,0,0
24-May-2018 12:47:01,51.3333333333333,0.87852,0.02214,0.44128,60.094,-0.314,32.1916,7.51533333333333,-0.89395,0.010875,-0.514025,8.62288888888889,4.57,10.3697777777778,97.622,0.854266666666667,0.3133,0.460033333333333,70.7783333333333,29.369,32.0583333333333,3.86133333333333,-0.95596,-0.17532,0.23688,-70.2611428571429,8.98957142857143,12.8048571428571,797.157,0,1,0,0
24-May-2018 12:47:02,51.5,0.7971,-0.0952333333333333,0.471966666666667,18.0116,-6.2032,-5.1044,8.562,-0.933966666666667,0.0456666666666667,-0.546133333333333,0.155,16.5346666666667,5.5795,100.322,0.8675,0.4335,0.593966666666667,-7.4,-3.5245,-7.42,6.921,-0.86975,-0.0493,0.24785,-36.1115,-1.6005,11.66175,700.523,1,1,1,1
24-May-2018 12:47:02,51.5,0.7971,-0.0952333333333333,0.471966666666667,18.0116,-6.2032,-5.1044,8.562,-0.933966666666667,0.0456666666666667,-0.546133333333333,0.155,16.5346666666667,5.5795,100.322,0.8675,0.4335,0.593966666666667,-7.4,-3.5245,-7.42,6.921,-0.86975,-0.0493,0.24785,-36.1115,-1.6005,11.66175,700.523,1,1,1,1
24-May-2018 12:47:02,51.5,0.7971,-0.0952333333333333,0.471966666666667,18.0116,-6.2032,-5.1044,8.562,-0.933966666666667,0.0456666666666667,-0.546133333333333,0.155,16.5346666666667,5.5795,100.322,0.8675,0.4335,0.593966666666667,-7.4,-3.5245,-7.42,6.921,-0.86975,-0.0493,0.24785,-36.1115,-1.6005,11.66175,700.523,1,1,1,1
24-May-2018 12:47:02,51.5,0.7971,-0.0952333333333333,0.471966666666667,18.0116,-6.2032,-5.1044,8.562,-0.933966666666667,0.0456666666666667,-0.546133333333333,0.155,16.5346666666667,5.5795,100.322,0.8675,0.4335,0.593966666666667,-7.4,-3.5245,-7.42,6.921,-0.86975,-0.0493,0.24785,-36.1115,-1.6005,11.66175,700.523,1,1,1,1
24-May-2018 12:47:03,53.1818181818182,0.90335,0.04025,0.283,-22.5,4.2985,-6.651,7.798,-0.8659,0.0414,-0.5262,0.1255,1.435,2.165,100.322,0.8675,0.4335,0.593966666666667,-27.6,-22.1,0.061,8.046,-0.968566666666667,-0.147233333333333,0.385,51.707,31.341,14.146,604.621,1,1,1,0
24-May-2018 12:47:03,53.1818181818182,0.90335,0.04025,0.283,-22.5,4.2985,-6.651,7.798,-0.8659,0.0414,-0.5262,0.1255,1.435,2.165,100.322,0.8675,0.4335,0.593966666666667,-27.6,-22.1,0.061,8.046,-0.968566666666667,-0.147233333333333,0.385,51.707,31.341,14.146,604.621,1,1,1,0
24-May-2018 12:47:03,53.1818181818182,0.90335,0.04025,0.283,-22.5,4.2985,-6.651,7.798,-0.8659,0.0414,-0.5262,0.1255,1.435,2.165,100.322,0.8675,0.4335,0.593966666666667,-27.6,-22.1,0.061,8.046,-0.968566666666667,-0.147233333333333,0.385,51.707,31.341,14.146,604.621,1,1,1,0
24-May-2018 12:47:03,53.1818181818182,0.90335,0.04025,0.283,-22.5,4.2985,-6.651,7.798,-0.8659,0.0414,-0.5262,0.1255,1.435,2.165,100.322,0,0,0,-27.6,-22.1,0.061,8.046,-0.968566666666667,-0.147233333333333,0.385,51.707,31.341,14.146,604.621,1,1,1,0
24-May-2018 12:47:04,-104.571428571429,0.953433333333333,-0.125566666666667,0.344966666666667,-16.06,-4.8652,10.7012,8.1265,-0.87596,0.0386,-0.54302,0.74125,9.426125,1.295625,100.322,0.760616666666667,0.306466666666667,0.569516666666667,2.14828571428572,3.92428571428571,-1.21,7.037,-0.987042857142857,-0.0107285714285714,0.218042857142857,-29.342,-4.32244444444444,12.7576666666667,604.621,1,1,1,1
24-May-2018 12:47:04,-104.571428571429,0.953433333333333,-0.125566666666667,0.344966666666667,-16.06,-4.8652,10.7012,8.1265,-0.87596,0.0386,-0.54302,0.74125,9.426125,1.295625,100.322,0.760616666666667,0.306466666666667,0.569516666666667,2.14828571428572,3.92428571428571,-1.21,7.037,-0.987042857142857,-0.0107285714285714,0.218042857142857,-29.342,-4.32244444444444,12.7576666666667,604.621,1,1,1,1
24-May-2018 12:47:04,-104.571428571429,0.953433333333333,-0.125566666666667,0.344966666666667,-16.06,-4.8652,10.7012,8.1265,-0.87596,0.0386,-0.54302,0.74125,9.426125,1.295625,100.322,0.760616666666667,0.306466666666667,0.569516666666667,2.14828571428572,3.92428571428571,-1.21,7.037,-0.987042857142857,-0.0107285714285714,0.218042857142857,-29.342,-4.32244444444444,12.7576666666667,604.621,1,1,1,1
24-May-2018 12:47:04,-104.571428571429,0.953433333333333,-0.125566666666667,0.344966666666667,-16.06,-4.8652,10.7012,8.1265,-0.87596,0.0386,-0.54302,0.74125,9.426125,1.295625,100.322,0.760616666666667,0.306466666666667,0.569516666666667,2.14828571428572,3.92428571428571,-1.21,7.037,-0.987042857142857,-0.0107285714285714,0.218042857142857,-29.342,-4.32244444444444,12.7576666666667,0,1,1,1,1
24-May-2018 12:47:05,-1283.5,0.93014,0.06256,0.37658,24.547,-1.7418,4.976,9.87166666666667,-0.880275,0.054075,-0.549975,-3.396625,-4.148125,0.82325,106.856,0.784744444444444,0.2798,0.527466666666667,39.7525,25.365,23.3675,8.72233333333333,-0.902557142857143,0.000942857142857142,0.263885714285714,-57.4898571428571,14.6252857142857,30.7152857142857,642.178,1,1,1,1
24-May-2018 12:47:05,-1283.5,0.93014,0.06256,0.37658,24.547,-1.7418,4.976,9.87166666666667,-0.880275,0.054075,-0.549975,-3.396625,-4.148125,0.82325,106.856,0.784744444444444,0.2798,0.527466666666667,39.7525,25.365,23.3675,8.72233333333333,-0.902557142857143,0.000942857142857142,0.263885714285714,-57.4898571428571,14.6252857142857,30.7152857142857,642.178,1,1,1,1
24-May-2018 12:47:05,-1283.5,0.93014,0.06256,0.37658,24.547,-1.7418,4.976,9.87166666666667,-0.880275,0.054075,-0.549975,-3.396625,-4.148125,0.82325,106.856,0.784744444444444,0.2798,0.527466666666667,39.7525,25.365,23.3675,8.72233333333333,-0.902557142857143,0.000942857142857142,0.263885714285714,-57.4898571428571,14.6252857142857,30.7152857142857,642.178,1,1,1,1
24-May-2018 12:47:05,-1283.5,0.93014,0.06256,0.37658,24.547,-1.7418,4.976,9.87166666666667,-0.880275,0.054075,-0.549975,-3.396625,-4.148125,0.82325,106.856,0.784744444444444,0.2798,0.527466666666667,39.7525,25.365,23.3675,8.72233333333333,-0.902557142857143,0.000942857142857142,0.263885714285714,-57.4898571428571,14.6252857142857,30.7152857142857,642.178,1,1,1,1
24-May-2018 12:47:06,-2048,0.916166666666667,0.0999333333333333,0.35485,50.324,2.3114,13.118,8.20466666666667,-0.89104,0.06532,-0.52242,-2.55666666666667,-7.06111111111111,2.11377777777778,109.034,0.712366666666667,0.213033333333333,0.536866666666667,61.5433333333333,17.1936666666667,39.3033333333333,7.511,-0.97115,-0.07485,0.23355,-51.4972857142857,0.139428571428573,19.3291428571429,531.2654,1,1,1,1
24-May-2018 12:47:06,-2048,0.916166666666667,0.0999333333333333,0.35485,50.324,2.3114,13.118,8.20466666666667,-0.89104,0.06532,-0.52242,-2.55666666666667,-7.06111111111111,2.11377777777778,109.034,0.712366666666667,0.213033333333333,0.536866666666667,61.5433333333333,17.1936666666667,39.3033333333333,7.511,-0.97115,-0.07485,0.23355,-51.4972857142857,0.139428571428573,19.3291428571429,531.2654,1,1,1,1
24-May-2018 12:47:06,-2048,0.916166666666667,0.0999333333333333,0.35485,50.324,2.3114,13.118,8.20466666666667,-0.89104,0.06532,-0.52242,-2.55666666666667,-7.06111111111111,2.11377777777778,109.034,0.712366666666667,0.213033333333333,0.536866666666667,61.5433333333333,17.1936666666667,39.3033333333333,7.511,-0.97115,-0.07485,0.23355,-51.4972857142857,0.139428571428573,19.3291428571429,531.2654,1,1,1,1
24-May-2018 12:47:06,-2048,0.916166666666667,0.0999333333333333,0.35485,50.324,2.3114,13.118,8.20466666666667,-0.89104,0.06532,-0.52242,-2.55666666666667,-7.06111111111111,2.11377777777778,109.034,0.712366666666667,0.213033333333333,0.536866666666667,61.5433333333333,17.1936666666667,39.3033333333333,7.511,-0.97115,-0.07485,0.23355,-51.4972857142857,0.139428571428573,19.3291428571429,531.2654,1,1,1,1
24-May-2018 12:47:07,-2048,0.843875,0.0154125,0.49155,107.671428571429,-7.498,27.1742857142857,4.4705,-0.91688,0.07808,-0.4755,-4.6073,-5.8782,-1.8691,110.257,0.886566666666667,0.143833333333333,0.4403,84.8266666666667,4.73566666666667,36.81,3.463,-0.9091,-0.003,0.3672,-36.507,-27.63725,-42.865,644.0145,1,1,1,1
24-May-2018 12:47:07,-2048,0.843875,0.0154125,0.49155,107.671428571429,-7.498,27.1742857142857,4.4705,-0.91688,0.07808,-0.4755,-4.6073,-5.8782,-1.8691,110.257,0.886566666666667,0.143833333333333,0.4403,84.8266666666667,4.73566666666667,36.81,3.463,-0.9091,-0.003,0.3672,-36.507,-27.63725,-42.865,644.0145,1,1,1,1
24-May-2018 12:47:07,-2048,0.843875,0.0154125,0.49155,107.671428571429,-7.498,27.1742857142857,4.4705,-0.91688,0.07808,-0.4755,-4.6073,-5.8782,-1.8691,110.257,0.886566666666667,0.143833333333333,0.4403,84.8266666666667,4.73566666666667,36.81,3.463,-0.9091,-0.003,0.3672,-36.507,-27.63725,-42.865,644.0145,1,1,1,1
24-May-2018 12:47:07,-2048,0.843875,0.0154125,0.49155,107.671428571429,-7.498,27.1742857142857,4.4705,-0.91688,0.07808,-0.4755,-4.6073,-5.8782,-1.8691,110.257,0.886566666666667,0.143833333333333,0.4403,84.8266666666667,4.73566666666667,36.81,3.463,-0.9091,-0.003,0.3672,-36.507,-27.63725,-42.865,644.0145,1,1,1,1
24-May-2018 12:47:08,-1701.36363636364,0.902,-0.03505,0.3716125,32.7325,-0.501125,19.175,4.4705,-0.93538,0.0743,-0.43022,4.50488888888889,7.43166666666667,-0.459555555555556,111.504,0.80315,0.40305,0.54835,25.60625,8.307,16.34275,3.01,-0.8898,-0.113625,0.320875,-7.2155,14.9998333333333,23.1403333333333,762.709,1,1,1,1
24-May-2018 12:47:08,-1701.36363636364,0.902,-0.03505,0.3716125,32.7325,-0.501125,19.175,4.4705,-0.93538,0.0743,-0.43022,4.50488888888889,7.43166666666667,-0.459555555555556,111.504,0.80315,0.40305,0.54835,25.60625,8.307,16.34275,3.01,-0.8898,-0.113625,0.320875,-7.2155,14.9998333333333,23.1403333333333,762.709,1,1,1,1
24-May-2018 12:47:08,-1701.36363636364,0.902,-0.03505,0.3716125,32.7325,-0.501125,19.175,4.4705,-0.93538,0.0743,-0.43022,4.50488888888889,7.43166666666667,-0.459555555555556,111.504,0.80315,0.40305,0.54835,25.60625,8.307,16.34275,3.01,-0.8898,-0.113625,0.320875,-7.2155,14.9998333333333,23.1403333333333,762.709,1,1,1,1
24-May-2018 12:47:08,-1701.36363636364,0.902,-0.03505,0.3716125,32.7325,-0.501125,19.175,4.4705,-0.93538,0.0743,-0.43022,4.50488888888889,7.43166666666667,-0.459555555555556,111.504,0.80315,0.40305,0.54835,25.60625,8.307,16.34275,3.01,-0.8898,-0.113625,0.320875,-7.2155,14.9998333333333,23.1403333333333,762.709,1,1,1,1
24-May-2018 12:47:09,-315.571428571429,0.860025,0.0136875,0.41215,-36.1688888888889,-4.60655555555556,-13.14,4.4705,-0.9084,0.055875,-0.466425,3.872375,7.264625,0.9995,111.022,0.7254,0.2004,0.8501,-35.6157142857143,-6.75142857142857,-11.3271428571429,3.34533333333333,-0.993583333333333,-0.0560333333333333,0.2164,3.23183333333333,-4.04483333333333,-8.23183333333334,739.376,1,0,1,1
24-May-2018 12:47:09,-315.571428571429,0.860025,0.0136875,0.41215,-36.1688888888889,-4.60655555555556,-13.14,4.4705,-0.9084,0.055875,-0.466425,3.872375,7.264625,0.9995,111.022,0.7254,0.2004,0.8501,-35.6157142857143,-6.75142857142857,-11.3271428571429,3.34533333333333,-0.993583333333333,-0.0560333333333333,0.2164,3.23183333333333,-4.04483333333333,-8.23183333333334,739.376,1,0,1,1
24-May-2018 12:47:09,-315.571428571429,0.860025,0.0136875,0.41215,-36.1688888888889,-4.60655555555556,-13.14,4.4705,-0.9084,0.055875,-0.466425,3.872375,7.264625,0.9995,111.022,0.7254,0.2004,0.8501,-35.6157142857143,-6.75142857142857,-11.3271428571429,3.34533333333333,-0.993583333333333,-0.0560333333333333,0.2164,3.23183333333333,-4.04483333333333,-8.23183333333334,739.376,1,0,1,1
24-May-2018 12:47:09,-315.571428571429,0.860025,0.0136875,0.41215,-36.1688888888889,-4.60655555555556,-13.14,4.4705,-0.9084,0.055875,-0.466425,3.872375,7.264625,0.9995,111.022,0.7254,0.2004,0.8501,-35.6157142857143,-6.75142857142857,-11.3271428571429,3.34533333333333,-0.993583333333333,-0.0560333333333333,0.2164,3.23183333333333,-4.04483333333333,-8.23183333333334,739.376,1,0,1,1
24-May-2018 12:47:10,1570.90909090909,0.893718181818182,-0.0103636363636364,0.410072727272727,-5.51,4.80785714285714,-2.66371428571429,4.4705,-0.911633333333333,0.0477666666666667,-0.4802,-1.1705,1.4185,-0.142375,110.299,0.946833333333333,0.261066666666667,0.484633333333333,9.374,26.416,4.744,2.62925,-1.00786666666667,-0.06545,0.240783333333333,-17.1218,-15.3782,1.7926,565.062,1,0,1,1
24-May-2018 12:47:10,1570.90909090909,0.893718181818182,-0.0103636363636364,0.410072727272727,-5.51,4.80785714285714,-2.66371428571429,4.4705,-0.911633333333333,0.0477666666666667,-0.4802,-1.1705,1.4185,-0.142375,110.299,0.946833333333333,0.261066666666667,0.484633333333333,9.374,26.416,4.744,2.62925,-1.00786666666667,-0.06545,0.240783333333333,-17.1218,-15.3782,1.7926,565.062,1,0,1,1
24-May-2018 12:47:10,1570.90909090909,0.893718181818182,-0.0103636363636364,0.410072727272727,-5.51,4.80785714285714,-2.66371428571429,4.4705,-0.911633333333333,0.0477666666666667,-0.4802,-1.1705,1.4185,-0.142375,110.299,0.946833333333333,0.261066666666667,0.484633333333333,9.374,26.416,4.744,2.62925,-1.00786666666667,-0.06545,0.240783333333333,-17.1218,-15.3782,1.7926,565.062,1,0,1,1
24-May-2018 12:47:10,1570.90909090909,0.893718181818182,-0.0103636363636364,0.410072727272727,-5.51,4.80785714285714,-2.66371428571429,4.4705,-0.911633333333333,0.0477666666666667,-0.4802,-1.1705,1.4185,-0.142375,110.299,0.946833333333333,0.261066666666667,0.484633333333333,9.374,26.416,4.744,2.62925,-1.00786666666667,-0.06545,0.240783333333333,-17.1218,-15.3782,1.7926,565.062,1,0,1,1
24-May-2018 12:47:11,2047,0.9445,-0.01076,0.41668,44.6985714285714,-3.29328571428571,19.8001428571429,5.8338,-0.91328,0.06162,-0.49376,-3.8,2.5,0.306,110.563,0.89974,0.28352,0.44834,40.575,30.94,30.085,3.5042,-1.0048,-0.0643833333333333,0.276283333333333,-16.98175,-28.10975,-21.43325,719.8905,1,1,1,1
24-May-2018 12:47:11,2047,0.9445,-0.01076,0.41668,44.6985714285714,-3.29328571428571,19.8001428571429,5.8338,-0.91328,0.06162,-0.49376,-3.8,2.5,0.306,110.563,0.89974,0.28352,0.44834,40.575,30.94,30.085,3.5042,-1.0048,-0.0643833333333333,0.276283333333333,-16.98175,-28.10975,-21.43325,719.8905,1,1,1,1
24-May-2018 12:47:11,2047,0.9445,-0.01076,0.41668,44.6985714285714,-3.29328571428571,19.8001428571429,5.8338,-0.91328,0.06162,-0.49376,-3.8,2.5,0.306,110.563,0.89974,0.28352,0.44834,40.575,30.94,30.085,3.5042,-1.0048,-0.0643833333333333,0.276283333333333,-16.98175,-28.10975,-21.43325,719.8905,1,1,1,1
24-May-2018 12:47:11,2047,0.9445,-0.01076,0.41668,44.6985714285714,-3.29328571428571,19.8001428571429,5.8338,-0.91328,0.06162,-0.49376,-3.8,2.5,0.306,110.563,0.89974,0.28352,0.44834,40.575,30.94,30.085,3.5042,-1.0048,-0.0643833333333333,0.276283333333333,-16.98175,-28.10975,-21.43325,719.8905,1,1,1,1
24-May-2018 12:47:12,2030.63636363636,0.890571428571429,-0.00482857142857143,0.4401,61.1971428571429,2.20871428571429,27.2671428571429,5.9905,-0.91352,0.06834,-0.48174,1.19911111111111,0.605111111111111,2.07411111111111,112.8025,0.7783,0.205542857142857,0.530728571428571,76.505,9.92125,35.82,7.644,-0.905675,-0.02755,0.21535,-121.2902,22.5732,44.9756,816.0855,0,1,1,1
24-May-2018 12:47:12,2030.63636363636,0.890571428571429,-0.00482857142857143,0.4401,61.1971428571429,2.20871428571429,27.2671428571429,5.9905,-0.91352,0.06834,-0.48174,1.19911111111111,0.605111111111111,2.07411111111111,112.8025,0.7783,0.205542857142857,0.530728571428571,76.505,9.92125,35.82,7.644,-0.905675,-0.02755,0.21535,-121.2902,22.5732,44.9756,816.0855,0,1,1,1
24-May-2018 12:47:12,2030.63636363636,0.890571428571429,-0.00482857142857143,0.4401,61.1971428571429,2.20871428571429,27.2671428571429,5.9905,-0.91352,0.06834,-0.48174,1.19911111111111,0.605111111111111,2.07411111111111,112.8025,0.7783,0.205542857142857,0.530728571428571,76.505,9.92125,35.82,7.644,-0.905675,-0.02755,0.21535,-121.2902,22.5732,44.9756,816.0855,0,1,1,1
24-May-2018 12:47:12,2030.63636363636,0.890571428571429,-0.00482857142857143,0.4401,61.1971428571429,2.20871428571429,27.2671428571429,5.9905,-0.91352,0.06834,-0.48174,1.19911111111111,0.605111111111111,2.07411111111111,112.8025,0.7783,0.205542857142857,0.530728571428571,76.505,9.92125,35.82,7.644,-0.905675,-0.02755,0.21535,-121.2902,22.5732,44.9756,816.0855,0,1,1,1
