TIME,HELMET_RAW,BELT_ACC_X,BELT_ACC_Y,BELT_ACC_Z,BELT_ANG_X,BELT_ANG_Y,BELT_ANG_Z,BELT_LUMINOSITY,NECK_ACC_X,NECK_ACC_Y,NECK_ACC_Z,NECK_ANG_X,NECK_ANG_Y,NECK_ANG_Z,NECK_LUMINOSITY,PCKT_ACC_X,PCKT_ACC_Y,PCKT_ACC_Z,PCKT_ANG_X,PCKT_ANG_Y,PCKT_ANG_Z,PCKT_LUMINOSITY,WRST_ACC_X,WRST_ACC_Y,WRST_ACC_Z,WRST_ANG_X,WRST_ANG_Y,WRST_ANG_Z,WRST_LUMINOSITY,IR_1,IR_2,IR_3,IR_4
24-May-2018 12:47:13,1824.5,0.872085714285714,0.0438285714285714,0.446742857142857,48.675,-4.51533333333333,22.4655,6.63175,-0.913475,0.078525,-0.485975,-0.362888888888889,-1.37244444444444,-2.151,114.976,0.840116666666667,0.264433333333333,0.497083333333333,37.0322,23.1094,23.8504,4.627,-0.900166666666667,-0.0711,0.292666666666667,-30.386,-14.126,13.0896666666667,860.243,1,1,1,1
24-May-2018 12:47:13,1824.5,0.872085714285714,0.0438285714285714,0.446742857142857,48.675,-4.51533333333333,22.4655,6.63175,-0.913475,0.078525,-0.485975,-0.362888888888889,-1.37244444444444,-2.151,114.976,0.840116666666667,0.264433333333333,0.497083333333333,37.0322,23.1094,23.8504,4.627,-0.900166666666667,-0.0711,0.292666666666667,-30.386,-14.126,13.0896666666667,860.243,1,1,1,1
24-May-2018 12:47:13,1824.5,0.872085714285714,0.0438285714285714,0.446742857142857,48.675,-4.51533333333333,22.4655,6.63175,-0.913475,0.078525,-0.485975,-0.362888888888889,-1.37244444444444,-2.151,114.976,0.840116666666667,0.264433333333333,0.497083333333333,37.0322,23.1094,23.8504,4.627,-0.900166666666667,-0.0711,0.292666666666667,-30.386,-14.126,13.0896666666667,860.243,1,1,1,1
24-May-2018 12:47:13,1824.5,0.872085714285714,0.0438285714285714,0.446742857142857,48.675,-4.51533333333333,22.4655,6.63175,-0.913475,0.078525,-0.485975,-0.362888888888889,-1.37244444444444,-2.151,114.976,0.840116666666667,0.264433333333333,0.497083333333333,37.0322,23.1094,23.8504,4.627,-0.900166666666667,-0.0711,0.292666666666667,-30.386,-14.126,13.0896666666667,860.243,1,1,1,1
24-May-2018 12:47:14,1455.18181818182,0.8461,-0.0925,0.349383333333333,6.016,-6.448125,-4.281375,6.23933333333333,-0.911275,0.066175,-0.488125,3.24533333333333,5.04066666666667,-1.73233333333333,114.976,0.79445,0.28695,0.531116666666667,14.97,-8.971,5.8825,4.805,-0.90674,-0.14912,0.3103,-34.3526,-9.0732,-4.756,860.243,1,1,1,1
24-May-2018 12:47:14,1455.18181818182,0.8461,-0.0925,0.349383333333333,6.016,-6.448125,-4.281375,6.23933333333333,-0.911275,0.066175,-0.488125,3.24533333333333,5.04066666666667,-1.73233333333333,114.976,0.79445,0.28695,0.531116666666667,14.97,-8.971,5.8825,4.805,-0.90674,-0.14912,0.3103,-34.3526,-9.0732,-4.756,860.243,1,1,1,1
24-May-2018 12:47:14,1455.18181818182,0.8461,-0.0925,0.349383333333333,6.016,-6.448125,-4.281375,6.23933333333333,-0.911275,0.066175,-0.488125,3.24533333333333,5.04066666666667,-1.73233333333333,114.976,0.79445,0.28695,0.531116666666667,14.97,-8.971,5.8825,4.805,-0.90674,-0.14912,0.3103,-34.3526,-9.0732,-4.756,860.243,1,1,1,1
24-May-2018 12:47:14,1455.18181818182,0.8461,-0.0925,0.349383333333333,6.016,-6.448125,-4.281375,6.23933333333333,-0.911275,0.066175,-0.488125,3.24533333333333,5.04066666666667,-1.73233333333333,114.976,0.79445,0.28695,0.531116666666667,14.97,-8.971,5.8825,4.805,-0.90674,-0.14912,0.3103,-34.3526,-9.0732,-4.756,0,1,1,1,1
24-May-2018 12:47:15,1001.7,0.8712,-0.01904,0.42474,-10.72,1.05414285714286,3.35342857142857,7.02275,-0.9053,0.05986,-0.4983,3.620375,2.097125,0.93075,113.692666666667,0.859425,0.447375,0.512325,-17.7,5.854,-20.525,8.13366666666667,-0.951625,-0.067725,0.252775,-14.6746666666667,0.609833333333333,-23.099,473.663,1,1,1,1
24-May-2018 12:47:15,1001.7,0.8712,-0.01904,0.42474,-10.72,1.05414285714286,3.35342857142857,7.02275,-0.9053,0.05986,-0.4983,3.620375,2.097125,0.93075,113.692666666667,0.859425,0.447375,0.512325,-17.7,5.854,-20.525,8.13366666666667,-0.951625,-0.067725,0.252775,-14.6746666666667,0.609833333333333,-23.099,473.663,1,1,1,1
24-May-2018 12:47:15,1001.7,0.8712,-0.01904,0.42474,-10.72,1.05414285714286,3.35342857142857,7.02275,-0.9053,0.05986,-0.4983,3.620375,2.097125,0.93075,113.692666666667,0.859425,0.447375,0.512325,-17.7,5.854,-20.525,8.13366666666667,-0.951625,-0.067725,0.252775,-14.6746666666667,0.609833333333333,-23.099,473.663,1,1,1,1
24-May-2018 12:47:15,1001.7,0.8712,-0.01904,0.42474,-10.72,1.05414285714286,3.35342857142857,7.02275,-0.9053,0.05986,-0.4983,3.620375,2.097125,0.93075,113.692666666667,0.859425,0.447375,0.512325,-17.7,5.854,-20.525,8.13366666666667,-0.951625,-0.067725,0.252775,-14.6746666666667,0.609833333333333,-23.099,473.663,1,1,1,1
24-May-2018 12:47:16,694.636363636364,0.930714285714286,-0.0396571428571429,0.458771428571429,11.91475,-3.703375,8.332125,7.975,-0.906975,0.068325,-0.496475,2.65577777777778,-2.02688888888889,2.81166666666667,113.051,0.812066666666667,0.423266666666667,0.3809,1.85271428571428,-7.36228571428571,-2.10942857142857,7.36675,-1.01018,-0.05762,0.14054,-16.81375,29.32925,19.1615,581.827,1,1,1,1
24-May-2018 12:47:16,694.636363636364,0.930714285714286,-0.0396571428571429,0.458771428571429,11.91475,-3.703375,8.332125,7.975,-0.906975,0.068325,-0.496475,2.65577777777778,-2.02688888888889,2.81166666666667,113.051,0.812066666666667,0.423266666666667,0.3809,1.85271428571428,-7.36228571428571,-2.10942857142857,7.36675,-1.01018,-0.05762,0.14054,-16.81375,29.32925,19.1615,581.827,1,1,1,1
24-May-2018 12:47:16,694.636363636364,0.930714285714286,-0.0396571428571429,0.458771428571429,11.91475,-3.703375,8.332125,7.975,-0.906975,0.068325,-0.496475,2.65577777777778,-2.02688888888889,2.81166666666667,113.051,0.812066666666667,0.423266666666667,0.3809,1.85271428571428,-7.36228571428571,-2.10942857142857,7.36675,-1.01018,-0.05762,0.14054,-16.81375,29.32925,19.1615,581.827,1,1,1,1
24-May-2018 12:47:16,694.636363636364,0.930714285714286,-0.0396571428571429,0.458771428571429,11.91475,-3.703375,8.332125,7.975,-0.906975,0.068325,-0.496475,2.65577777777778,-2.02688888888889,2.81166666666667,113.051,0.812066666666667,0.423266666666667,0.3809,1.85271428571428,-7.36228571428571,-2.10942857142857,7.36675,-1.01018,-0.05762,0.14054,-16.81375,29.32925,19.1615,581.827,1,1,1,1
24-May-2018 12:47:17,493.444444444444,0.84535,-0.0875875,0.4659125,-109.5,8.44766666666667,-39.9,7.975,-0.9117,0.0732,-0.487975,2.05977777777778,-3.44,3.42833333333333,113.051,0.798275,0.4136,0.522575,-33.245,-29.645,-13.4075,7.304,-0.970442857142857,-0.103728571428571,0.203314285714286,40.2562,5.7072,11.9146,523.76,1,0,1,1
24-May-2018 12:47:17,493.444444444444,0.84535,-0.0875875,0.4659125,-109.5,8.44766666666667,-39.9,7.975,-0.9117,0.0732,-0.487975,2.05977777777778,-3.44,3.42833333333333,113.051,0.798275,0.4136,0.522575,-33.245,-29.645,-13.4075,7.304,-0.970442857142857,-0.103728571428571,0.203314285714286,40.2562,5.7072,11.9146,523.76,1,0,1,1
24-May-2018 12:47:17,493.444444444444,0.84535,-0.0875875,0.4659125,-109.5,8.44766666666667,-39.9,7.975,-0.9117,0.0732,-0.487975,2.05977777777778,-3.44,3.42833333333333,113.051,0.798275,0.4136,0.522575,-33.245,-29.645,-13.4075,7.304,-0.970442857142857,-0.103728571428571,0.203314285714286,40.2562,5.7072,11.9146,523.76,1,0,1,1
24-May-2018 12:47:17,493.444444444444,0.84535,-0.0875875,0.4659125,-109.5,8.44766666666667,-39.9,7.975,-0.9117,0.0732,-0.487975,2.05977777777778,-3.44,3.42833333333333,113.051,0.798275,0.4136,0.522575,-33.245,-29.645,-13.4075,7.304,-0.970442857142857,-0.103728571428571,0.203314285714286,40.2562,5.7072,11.9146,523.76,1,0,1,1
24-May-2018 12:47:18,582.2,0.848657142857143,-0.0776857142857143,0.419257142857143,-58.1144444444444,-2.17011111111111,-29.0555555555556,7.975,-0.91792,0.07198,-0.47274,4.22755555555556,-1.42,2.80488888888889,111.086333333333,0.72925,0.38845,0.64715,-54.6918,-26.688,-28.754,3.875,-1.0917,-0.117066666666667,0.118333333333333,95.0612,9.8538,5.378,965.83725,1,1,1,1
24-May-2018 12:47:18,582.2,0.848657142857143,-0.0776857142857143,0.419257142857143,-58.1144444444444,-2.17011111111111,-29.0555555555556,7.975,-0.91792,0.07198,-0.47274,4.22755555555556,-1.42,2.80488888888889,111.086333333333,0.72925,0.38845,0.64715,-54.6918,-26.688,-28.754,3.875,-1.0917,-0.117066666666667,0.118333333333333,95.0612,9.8538,5.378,965.83725,1,1,1,1
24-May-2018 12:47:18,582.2,0.848657142857143,-0.0776857142857143,0.419257142857143,-58.1144444444444,-2.17011111111111,-29.0555555555556,7.975,-0.91792,0.07198,-0.47274,4.22755555555556,-1.42,2.80488888888889,111.086333333333,0.72925,0.38845,0.64715,-54.6918,-26.688,-28.754,3.875,-1.0917,-0.117066666666667,0.118333333333333,95.0612,9.8538,5.378,965.83725,1,1,1,1
24-May-2018 12:47:18,582.2,0.848657142857143,-0.0776857142857143,0.419257142857143,-58.1144444444444,-2.17011111111111,-29.0555555555556,7.975,-0.91792,0.07198,-0.47274,4.22755555555556,-1.42,2.80488888888889,111.086333333333,0.72925,0.38845,0.64715,-54.6918,-26.688,-28.754,3.875,-1.0917,-0.117066666666667,0.118333333333333,95.0612,9.8538,5.378,965.83725,1,1,1,1
24-May-2018 12:47:19,755,0.940685714285714,-0.0491857142857143,0.401814285714286,-55.2333333333333,-0.474833333333333,-8.34333333333333,7.975,-0.916125,0.0682,-0.47555,3.042,3.23844444444444,0.372888888888889,110.104,0.862,0.240675,0.48,-75.95,-33.9,-35.25,4.201,-0.989466666666667,-0.1116,0.17,50.744,-50.8902,-49.6464,965.83725,1,1,1,1
24-May-2018 12:47:19,755,0.940685714285714,-0.0491857142857143,0.401814285714286,-55.2333333333333,-0.474833333333333,-8.34333333333333,7.975,-0.916125,0.0682,-0.47555,3.042,3.23844444444444,0.372888888888889,110.104,0.862,0.240675,0.48,-75.95,-33.9,-35.25,4.201,-0.989466666666667,-0.1116,0.17,50.744,-50.8902,-49.6464,965.83725,1,1,1,1
24-May-2018 12:47:19,755,0.940685714285714,-0.0491857142857143,0.401814285714286,-55.2333333333333,-0.474833333333333,-8.34333333333333,7.975,-0.916125,0.0682,-0.47555,3.042,3.23844444444444,0.372888888888889,110.104,0.862,0.240675,0.48,-75.95,-33.9,-35.25,4.201,-0.989466666666667,-0.1116,0.17,50.744,-50.8902,-49.6464,965.83725,1,1,1,1
24-May-2018 12:47:19,755,0.940685714285714,-0.0491857142857143,0.401814285714286,-55.2333333333333,-0.474833333333333,-8.34333333333333,7.975,-0.916125,0.0682,-0.47555,3.042,3.23844444444444,0.372888888888889,110.104,0.862,0.240675,0.48,-75.95,-33.9,-35.25,4.201,-0.989466666666667,-0.1116,0.17,50.744,-50.8902,-49.6464,0,1,1,1,1
24-May-2018 12:47:20,720.222222222222,0.90965,-3.33333333333378e-05,0.364983333333333,-11.5254285714286,-0.225142857142857,-6.99857142857143,4.675,-0.91446,0.06866,-0.48186,-0.8255,-0.6909,0.7564,110.104,0.853566666666667,0.421966666666667,0.5072,-40.4666666666667,-11.97,-20.2766666666667,3.662,-0.956833333333333,-0.0551166666666667,0.361133333333333,-11.4146,15.7804,6.2684,673.873333333333,1,1,1,1
24-May-2018 12:47:20,720.222222222222,0.90965,-3.33333333333378e-05,0.364983333333333,-11.5254285714286,-0.225142857142857,-6.99857142857143,4.675,-0.91446,0.06866,-0.48186,-0.8255,-0.6909,0.7564,110.104,0.853566666666667,0.421966666666667,0.5072,-40.4666666666667,-11.97,-20.2766666666667,3.662,-0.956833333333333,-0.0551166666666667,0.361133333333333,-11.4146,15.7804,6.2684,673.873333333333,1,1,1,1
24-May-2018 12:47:20,720.222222222222,0.90965,-3.33333333333378e-05,0.364983333333333,-11.5254285714286,-0.225142857142857,-6.99857142857143,4.675,-0.91446,0.06866,-0.48186,-0.8255,-0.6909,0.7564,110.104,0.853566666666667,0.421966666666667,0.5072,-40.4666666666667,-11.97,-20.2766666666667,3.662,-0.956833333333333,-0.0551166666666667,0.361133333333333,-11.4146,15.7804,6.2684,673.873333333333,1,1,1,1
24-May-2018 12:47:20,720.222222222222,0.90965,-3.33333333333378e-05,0.364983333333333,-11.5254285714286,-0.225142857142857,-6.99857142857143,4.675,-0.91446,0.06866,-0.48186,-0.8255,-0.6909,0.7564,110.104,0.853566666666667,0.421966666666667,0.5072,-40.4666666666667,-11.97,-20.2766666666667,3.662,-0.956833333333333,-0.0551166666666667,0.361133333333333,-11.4146,15.7804,6.2684,673.873333333333,1,1,1,1
24-May-2018 12:47:21,761.666666666667,0.87392,0.0259,0.3639,31.3076666666667,-0.780166666666667,6.73733333333333,5.4644,-0.91436,0.07256,-0.48224,-0.81275,1.8145,0.518625,108.93925,0.7897,0.281133333333333,0.60645,-16.82,15.4266666666667,-14.2033333333333,2.882,-0.941675,-0.1377,0.2079,-44.8594285714286,3.64128571428571,22.3955714285714,582.307,1,1,1,1
24-May-2018 12:47:21,761.666666666667,0.87392,0.0259,0.3639,31.3076666666667,-0.780166666666667,6.73733333333333,5.4644,-0.91436,0.07256,-0.48224,-0.81275,1.8145,0.518625,108.93925,0.7897,0.281133333333333,0.60645,-16.82,15.4266666666667,-14.2033333333333,2.882,-0.941675,-0.1377,0.2079,-44.8594285714286,3.64128571428571,22.3955714285714,582.307,1,1,1,1
24-May-2018 12:47:21,761.666666666667,0.87392,0.0259,0.3639,31.3076666666667,-0.780166666666667,6.73733333333333,5.4644,-0.91436,0.07256,-0.48224,-0.81275,1.8145,0.518625,108.93925,0.7897,0.281133333333333,0.60645,-16.82,15.4266666666667,-14.2033333333333,2.882,-0.941675,-0.1377,0.2079,-44.8594285714286,3.64128571428571,22.3955714285714,582.307,1,1,1,1
24-May-2018 12:47:21,761.666666666667,0.87392,0.0259,0.3639,31.3076666666667,-0.780166666666667,6.73733333333333,5.4644,-0.91436,0.07256,-0.48224,-0.81275,1.8145,0.518625,108.93925,0.7897,0.281133333333333,0.60645,-16.82,15.4266666666667,-14.2033333333333,2.882,-0.941675,-0.1377,0.2079,-44.8594285714286,3.64128571428571,22.3955714285714,582.307,1,1,1,1
24-May-2018 12:47:22,743.375,0.869714285714286,-0.0172285714285714,0.435242857142857,40.585,-4.9245,19.832,6.746,-0.9167,0.0774666666666667,-0.4775,1.030125,-3.425,1.974,108.551,0.794166666666667,0.301266666666667,0.513666666666667,21.50375,-8.6925,8.41275,2.549,-0.8854,-0.10434,0.30198,-17.905,-11.2703333333333,1.55483333333334,626.519333333333,1,1,1,1
24-May-2018 12:47:22,743.375,0.869714285714286,-0.0172285714285714,0.435242857142857,40.585,-4.9245,19.832,6.746,-0.9167,0.0774666666666667,-0.4775,1.030125,-3.425,1.974,108.551,0.794166666666667,0.301266666666667,0.513666666666667,21.50375,-8.6925,8.41275,2.549,-0.8854,-0.10434,0.30198,-17.905,-11.2703333333333,1.55483333333334,626.519333333333,1,1,1,1
24-May-2018 12:47:22,743.375,0.869714285714286,-0.0172285714285714,0.435242857142857,40.585,-4.9245,19.832,6.746,-0.9167,0.0774666666666667,-0.4775,1.030125,-3.425,1.974,108.551,0.794166666666667,0.301266666666667,0.513666666666667,21.50375,-8.6925,8.41275,2.549,-0.8854,-0.10434,0.30198,-17.905,-11.2703333333333,1.55483333333334,626.519333333333,1,1,1,1
24-May-2018 12:47:22,743.375,0.869714285714286,-0.0172285714285714,0.435242857142857,40.585,-4.9245,19.832,6.746,-0.9167,0.0774666666666667,-0.4775,1.030125,-3.425,1.974,108.551,0.794166666666667,0.301266666666667,0.513666666666667,21.50375,-8.6925,8.41275,2.549,-0.8854,-0.10434,0.30198,-17.905,-11.2703333333333,1.55483333333334,626.519333333333,1,1,1,1
24-May-2018 12:47:23,727.777777777778,0.8578,0.0389333333333333,0.453566666666667,41.7025714285714,0.283571428571428,11.116,6.3045,-0.917075,0.07515,-0.47805,0.924125,1.327,0.13025,110.104,0.8579,0.32175,0.62775,40.144,13.7676,23.0442,2.542,-0.9153,-0.11425,0.289483333333333,-16.0732,-2.805,8.4512,716.761666666667,1,1,1,1
24-May-2018 12:47:23,727.777777777778,0.8578,0.0389333333333333,0.453566666666667,41.7025714285714,0.283571428571428,11.116,6.3045,-0.917075,0.07515,-0.47805,0.924125,1.327,0.13025,110.104,0.8579,0.32175,0.62775,40.144,13.7676,23.0442,2.542,-0.9153,-0.11425,0.289483333333333,-16.0732,-2.805,8.4512,716.761666666667,1,1,1,1
24-May-2018 12:47:23,727.777777777778,0.8578,0.0389333333333333,0.453566666666667,41.7025714285714,0.283571428571428,11.116,6.3045,-0.917075,0.07515,-0.47805,0.924125,1.327,0.13025,110.104,0.8579,0.32175,0.62775,40.144,13.7676,23.0442,2.542,-0.9153,-0.11425,0.289483333333333,-16.0732,-2.805,8.4512,716.761666666667,1,1,1,1
24-May-2018 12:47:23,727.777777777778,0.8578,0.0389333333333333,0.453566666666667,41.7025714285714,0.283571428571428,11.116,6.3045,-0.917075,0.07515,-0.47805,0.924125,1.327,0.13025,110.104,0.8579,0.32175,0.62775,40.144,13.7676,23.0442,2.542,-0.9153,-0.11425,0.289483333333333,-16.0732,-2.805,8.4512,716.761666666667,1,1,1,1
24-May-2018 12:47:24,419.6,0.863516666666667,-0.0167833333333333,0.451133333333333,24.6137142857143,-2.70857142857143,11.4798571428571,7.4615,-0.91644,0.07528,-0.47552,0.4668,-1.0819,0.8424,110.299333333333,0.82196,0.3337,0.44838,24.4483333333333,11.6966666666667,13.9306666666667,5.709,-0.7292,-0.27186,0.42692,-29.5596,-85.0348,-225.448,843.669,1,1,1,1
24-May-2018 12:47:24,419.6,0.863516666666667,-0.0167833333333333,0.451133333333333,24.6137142857143,-2.70857142857143,11.4798571428571,7.4615,-0.91644,0.07528,-0.47552,0.4668,-1.0819,0.8424,110.299333333333,0.82196,0.3337,0.44838,24.4483333333333,11.6966666666667,13.9306666666667,5.709,-0.7292,-0.27186,0.42692,-29.5596,-85.0348,-225.448,843.669,1,1,1,1
24-May-2018 12:47:24,419.6,0.863516666666667,-0.0167833333333333,0.451133333333333,24.6137142857143,-2.70857142857143,11.4798571428571,7.4615,-0.91644,0.07528,-0.47552,0.4668,-1.0819,0.8424,110.299333333333,0.82196,0.3337,0.44838,24.4483333333333,11.6966666666667,13.9306666666667,5.709,-0.7292,-0.27186,0.42692,-29.5596,-85.0348,-225.448,843.669,1,1,1,1
24-May-2018 12:47:24,419.6,0.863516666666667,-0.0167833333333333,0.451133333333333,24.6137142857143,-2.70857142857143,11.4798571428571,7.4615,-0.91644,0.07528,-0.47552,0.4668,-1.0819,0.8424,110.299333333333,0.82196,0.3337,0.44838,24.4483333333333,11.6966666666667,13.9306666666667,5.709,-0.7292,-0.27186,0.42692,-29.5596,-85.0348,-225.448,843.669,1,1,1,1
24-May-2018 12:47:25,416.727272727273,0.875814285714286,-0.0252857142857143,0.434785714285714,16.2158571428571,-0.903428571428571,5.11171428571429,24.2703333333333,-0.91664,0.07608,-0.47374,1.013875,-1.460375,1.219375,110.397,0.8144,0.284685714285714,0.525285714285714,15.806,4.2365,8.108,6.353,0.807575,0.191125,0.5429,6.41971428571429,12.4215714285714,0.635857142857143,900.088,1,1,1,1
24-May-2018 12:47:25,416.727272727273,0.875814285714286,-0.0252857142857143,0.434785714285714,16.2158571428571,-0.903428571428571,5.11171428571429,24.2703333333333,-0.91664,0.07608,-0.47374,1.013875,-1.460375,1.219375,110.397,0.8144,0.284685714285714,0.525285714285714,15.806,4.2365,8.108,6.353,0.807575,0.191125,0.5429,6.41971428571429,12.4215714285714,0.635857142857143,900.088,1,1,1,1
24-May-2018 12:47:25,416.727272727273,0.875814285714286,-0.0252857142857143,0.434785714285714,16.2158571428571,-0.903428571428571,5.11171428571429,24.2703333333333,-0.91664,0.07608,-0.47374,1.013875,-1.460375,1.219375,110.397,0.8144,0.284685714285714,0.525285714285714,15.806,4.2365,8.108,6.353,0.807575,0.191125,0.5429,6.41971428571429,12.4215714285714,0.635857142857143,900.088,1,1,1,1
24-May-2018 12:47:25,416.727272727273,0.875814285714286,-0.0252857142857143,0.434785714285714,16.2158571428571,-0.903428571428571,5.11171428571429,24.2703333333333,-0.91664,0.07608,-0.47374,1.013875,-1.460375,1.219375,110.397,0.8144,0.284685714285714,0.525285714285714,15.806,4.2365,8.108,6.353,0.807575,0.191125,0.5429,6.41971428571429,12.4215714285714,0.635857142857143,900.088,1,1,1,1
24-May-2018 12:47:26,387.1,0.885214285714286,-0.0172,0.403571428571429,33.4808333333333,0.448,16.5805,25.6246666666667,-0.917766666666667,0.08075,-0.47165,-1.604,0.4975,1.631125,110.1925,0.8774,0.25342,0.41386,20.83925,13.36825,12.37575,6.758,0.808933333333333,0.350066666666667,0.2693,55.2033333333333,53.994,58.8008333333333,557.546,1,1,1,1
24-May-2018 12:47:26,387.1,0.885214285714286,-0.0172,0.403571428571429,33.4808333333333,0.448,16.5805,25.6246666666667,-0.917766666666667,0.08075,-0.47165,-1.604,0.4975,1.631125,110.1925,0.8774,0.25342,0.41386,20.83925,13.36825,12.37575,6.758,0.808933333333333,0.350066666666667,0.2693,55.2033333333333,53.994,58.8008333333333,557.546,1,1,1,1
24-May-2018 12:47:26,387.1,0.885214285714286,-0.0172,0.403571428571429,33.4808333333333,0.448,16.5805,25.6246666666667,-0.917766666666667,0.08075,-0.47165,-1.604,0.4975,1.631125,110.1925,0.8774,0.25342,0.41386,20.83925,13.36825,12.37575,6.758,0.808933333333333,0.350066666666667,0.2693,55.2033333333333,53.994,58.8008333333333,557.546,1,1,1,1
24-May-2018 12:47:26,387.1,0.885214285714286,-0.0172,0.403571428571429,33.4808333333333,0.448,16.5805,25.6246666666667,-0.917766666666667,0.08075,-0.47165,-1.604,0.4975,1.631125,110.1925,0.8774,0.25342,0.41386,20.83925,13.36825,12.37575,6.758,0.808933333333333,0.350066666666667,0.2693,55.2033333333333,53.994,58.8008333333333,557.546,1,1,1,1
24-May-2018 12:47:27,407.833333333333,0.8761625,-0.0669,0.4397,7.40055555555555,2.26988888888889,0.702111111111111,25.6246666666667,-0.92025,0.09835,-0.469675,-2.66555555555556,0.069222222222222,1.19288888888889,109.988,0.754216666666667,0.318583333333333,0.589783333333333,21.2975,7.6725,8.6735,4.546,-0.311625,-0.340075,0.8232,-2.23014285714286,89.6081428571429,45.1221428571429,635.062,1,1,1,1
24-May-2018 12:47:27,407.833333333333,0.8761625,-0.0669,0.4397,7.40055555555555,2.26988888888889,0.702111111111111,25.6246666666667,-0.92025,0.09835,-0.469675,-2.66555555555556,0.069222222222222,1.19288888888889,109.988,0.754216666666667,0.318583333333333,0.589783333333333,21.2975,7.6725,8.6735,4.546,-0.311625,-0.340075,0.8232,-2.23014285714286,89.6081428571429,45.1221428571429,635.062,1,1,1,1
24-May-2018 12:47:27,407.833333333333,0.8761625,-0.0669,0.4397,7.40055555555555,2.26988888888889,0.702111111111111,25.6246666666667,-0.92025,0.09835,-0.469675,-2.66555555555556,0.069222222222222,1.19288888888889,109.988,0.754216666666667,0.318583333333333,0.589783333333333,21.2975,7.6725,8.6735,4.546,-0.311625,-0.340075,0.8232,-2.23014285714286,89.6081428571429,45.1221428571429,635.062,1,1,1,1
24-May-2018 12:47:27,407.833333333333,0.8761625,-0.0669,0.4397,7.40055555555555,2.26988888888889,0.702111111111111,25.6246666666667,-0.92025,0.09835,-0.469675,-2.66555555555556,0.069222222222222,1.19288888888889,109.988,0.754216666666667,0.318583333333333,0.589783333333333,21.2975,7.6725,8.6735,4.546,-0.311625,-0.340075,0.8232,-2.23014285714286,89.6081428571429,45.1221428571429,635.062,1,1,1,1
24-May-2018 12:47:28,383.636363636364,0.9313625,-0.00585,0.36955,5.991,-4.18075,-3.740625,25.6246666666667,-0.92348,0.10242,-0.45426,-1.94777777777778,-5.09666666666667,-0.566666666666667,111.131,0.81605,0.2863875,0.50285,-3.91166666666667,-9.09216666666667,-1.01416666666667,5.386,-0.8979,0.0364428571428572,0.363242857142857,-71.5525,-1.2195,33.11,943.0695,1,1,1,1
24-May-2018 12:47:28,383.636363636364,0.9313625,-0.00585,0.36955,5.991,-4.18075,-3.740625,25.6246666666667,-0.92348,0.10242,-0.45426,-1.94777777777778,-5.09666666666667,-0.566666666666667,111.131,0.81605,0.2863875,0.50285,-3.91166666666667,-9.09216666666667,-1.01416666666667,5.386,-0.8979,0.0364428571428572,0.363242857142857,-71.5525,-1.2195,33.11,943.0695,1,1,1,1
24-May-2018 12:47:28,383.636363636364,0.9313625,-0.00585,0.36955,5.991,-4.18075,-3.740625,25.6246666666667,-0.92348,0.10242,-0.45426,-1.94777777777778,-5.09666666666667,-0.566666666666667,111.131,0.81605,0.2863875,0.50285,-3.91166666666667,-9.09216666666667,-1.01416666666667,5.386,-0.8979,0.0364428571428572,0.363242857142857,-71.5525,-1.2195,33.11,943.0695,1,1,1,1
24-May-2018 12:47:28,383.636363636364,0.9313625,-0.00585,0.36955,5.991,-4.18075,-3.740625,25.6246666666667,-0.92348,0.10242,-0.45426,-1.94777777777778,-5.09666666666667,-0.566666666666667,111.131,0.81605,0.2863875,0.50285,-3.91166666666667,-9.09216666666667,-1.01416666666667,5.386,-0.8979,0.0364428571428572,0.363242857142857,-71.5525,-1.2195,33.11,943.0695,1,1,1,1
24-May-2018 12:47:29,452.272727272727,0.8728,-0.0601142857142857,0.439414285714286,-1.07333333333333,2.24666666666667,19.1841666666667,25.6246666666667,-0.925425,0.109825,-0.444225,-1.999,6.88014285714286,-0.465714285714286,111.131,0.88535,0.36675,0.658375,17.875,19.20575,1.75825,4.7718,-1.02998,-0.13006,0.2566,78.01825,-31.35675,-46.5855,765.963,1,1,1,1
24-May-2018 12:47:29,452.272727272727,0.8728,-0.0601142857142857,0.439414285714286,-1.07333333333333,2.24666666666667,19.1841666666667,25.6246666666667,-0.925425,0.109825,-0.444225,-1.999,6.88014285714286,-0.465714285714286,111.131,0.88535,0.36675,0.658375,17.875,19.20575,1.75825,4.7718,-1.02998,-0.13006,0.2566,78.01825,-31.35675,-46.5855,765.963,1,1,1,1
24-May-2018 12:47:29,452.272727272727,0.8728,-0.0601142857142857,0.439414285714286,-1.07333333333333,2.24666666666667,19.1841666666667,25.6246666666667,-0.925425,0.109825,-0.444225,-1.999,6.88014285714286,-0.465714285714286,111.131,0.88535,0.36675,0.658375,17.875,19.20575,1.75825,4.7718,-1.02998,-0.13006,0.2566,78.01825,-31.35675,-46.5855,765.963,1,1,1,1
24-May-2018 12:47:29,452.272727272727,0.8728,-0.0601142857142857,0.439414285714286,-1.07333333333333,2.24666666666667,19.1841666666667,25.6246666666667,-0.925425,0.109825,-0.444225,-1.999,6.88014285714286,-0.465714285714286,111.131,0.88535,0.36675,0.658375,17.875,19.20575,1.75825,4.7718,-1.02998,-0.13006,0.2566,78.01825,-31.35675,-46.5855,765.963,1,1,1,1
24-May-2018 12:47:30,366.666666666667,0.8849,0.0486833333333333,0.436683333333333,9.33,-4.44166666666667,-5.86866666666667,25.6246666666667,-0.9145,0.0991,-0.475825,0.0491111111111111,6.91033333333333,-2.53,111.131,0.879433333333333,0.398433333333333,0.463,-3.591,-30.35,-1.47525,7.865,-0.969428571428571,-0.111028571428571,0.313014285714286,-34.1708,24.4148,33.9878,973.108,1,1,0,1
24-May-2018 12:47:30,366.666666666667,0.8849,0.0486833333333333,0.436683333333333,9.33,-4.44166666666667,-5.86866666666667,25.6246666666667,-0.9145,0.0991,-0.475825,0.0491111111111111,6.91033333333333,-2.53,111.131,0.879433333333333,0.398433333333333,0.463,-3.591,-30.35,-1.47525,7.865,-0.969428571428571,-0.111028571428571,0.313014285714286,-34.1708,24.4148,33.9878,973.108,1,1,0,1
24-May-2018 12:47:30,366.666666666667,0.8849,0.0486833333333333,0.436683333333333,9.33,-4.44166666666667,-5.86866666666667,25.6246666666667,-0.9145,0.0991,-0.475825,0.0491111111111111,6.91033333333333,-2.53,111.131,0.879433333333333,0.398433333333333,0.463,-3.591,-30.35,-1.47525,7.865,-0.969428571428571,-0.111028571428571,0.313014285714286,-34.1708,24.4148,33.9878,973.108,1,1,0,1
24-May-2018 12:47:30,366.666666666667,0.8849,0.0486833333333333,0.436683333333333,9.33,-4.44166666666667,-5.86866666666667,0,-0.9145,0.0991,-0.475825,0.0491111111111111,6.91033333333333,-2.53,111.131,0.879433333333333,0.398433333333333,0.463,-3.591,-30.35,-1.47525,7.865,-0.969428571428571,-0.111028571428571,0.313014285714286,-34.1708,24.4148,33.9878,973.108,1,1,0,1
24-May-2018 12:47:31,325,0.9305,-0.015925,0.359125,33.5616666666667,0.439,10.8466666666667,10.0101666666667,-0.91354,0.09438,-0.4781,0.01075,0.13325,-2.1,113.075,0.6637,0.1871,0.56935,17.3025,37.255,12.819,8.763,-0.935566666666667,-0.05705,0.244066666666667,-29.13875,9.718,17.446625,876.026,0,0,1,1
24-May-2018 12:47:31,325,0.9305,-0.015925,0.359125,33.5616666666667,0.439,10.8466666666667,10.0101666666667,-0.91354,0.09438,-0.4781,0.01075,0.13325,-2.1,113.075,0.6637,0.1871,0.56935,17.3025,37.255,12.819,8.763,-0.935566666666667,-0.05705,0.244066666666667,-29.13875,9.718,17.446625,876.026,0,0,1,1
24-May-2018 12:47:31,325,0.9305,-0.015925,0.359125,33.5616666666667,0.439,10.8466666666667,10.0101666666667,-0.91354,0.09438,-0.4781,0.01075,0.13325,-2.1,113.075,0.6637,0.1871,0.56935,17.3025,37.255,12.819,8.763,-0.935566666666667,-0.05705,0.244066666666667,-29.13875,9.718,17.446625,876.026,0,0,1,1
24-May-2018 12:47:31,325,0.9305,-0.015925,0.359125,33.5616666666667,0.439,10.8466666666667,10.0101666666667,-0.91354,0.09438,-0.4781,0.01075,0.13325,-2.1,113.075,0.6637,0.1871,0.56935,17.3025,37.255,12.819,8.763,-0.935566666666667,-0.05705,0.244066666666667,-29.13875,9.718,17.446625,876.026,0,0,1,1
24-May-2018 12:47:32,375,0.89086,0.03702,0.5409,36.3357142857143,-0.110285714285714,23.629,8.906,-0.912725,0.08975,-0.483525,1.90366666666667,1.25544444444444,0.09,114.047,0.95402,0.3312,0.46238,29.0334,-9.688,20.522,10.174,-0.901916666666667,0.00651666666666667,0.2945,-23.4941666666667,-18.3841666666667,14.2276666666667,693.419,0,1,1,1
24-May-2018 12:47:32,375,0.89086,0.03702,0.5409,36.3357142857143,-0.110285714285714,23.629,8.906,-0.912725,0.08975,-0.483525,1.90366666666667,1.25544444444444,0.09,114.047,0.95402,0.3312,0.46238,29.0334,-9.688,20.522,10.174,-0.901916666666667,0.00651666666666667,0.2945,-23.4941666666667,-18.3841666666667,14.2276666666667,693.419,0,1,1,1
24-May-2018 12:47:32,375,0.89086,0.03702,0.5409,36.3357142857143,-0.110285714285714,23.629,8.906,-0.912725,0.08975,-0.483525,1.90366666666667,1.25544444444444,0.09,114.047,0.95402,0.3312,0.46238,29.0334,-9.688,20.522,10.174,-0.901916666666667,0.00651666666666667,0.2945,-23.4941666666667,-18.3841666666667,14.2276666666667,693.419,0,1,1,1
24-May-2018 12:47:32,375,0.89086,0.03702,0.5409,36.3357142857143,-0.110285714285714,23.629,8.906,-0.912725,0.08975,-0.483525,1.90366666666667,1.25544444444444,0.09,114.047,0.95402,0.3312,0.46238,29.0334,-9.688,20.522,10.174,-0.901916666666667,0.00651666666666667,0.2945,-23.4941666666667,-18.3841666666667,14.2276666666667,693.419,0,1,1,1
24-May-2018 12:47:33,339.285714285714,0.915785714285714,0.0486142857142857,0.460942857142857,72.6566666666667,-15.8333333333333,29.6933333333333,6.008,-0.91142,0.08436,-0.48334,2.20275,-0.538875,0.7625,113.90625,0.80715,0.32495,0.55335,26.9666666666667,-5.49033333333333,8.71766666666667,7.7265,-0.840016666666667,-0.0798,0.309166666666667,13.8902,-28.1218,-39.2184,567.529,1,1,1,1
24-May-2018 12:47:33,339.285714285714,0.915785714285714,0.0486142857142857,0.460942857142857,72.6566666666667,-15.8333333333333,29.6933333333333,6.008,-0.91142,0.08436,-0.48334,2.20275,-0.538875,0.7625,113.90625,0.80715,0.32495,0.55335,26.9666666666667,-5.49033333333333,8.71766666666667,7.7265,-0.840016666666667,-0.0798,0.309166666666667,13.8902,-28.1218,-39.2184,567.529,1,1,1,1
24-May-2018 12:47:33,339.285714285714,0.915785714285714,0.0486142857142857,0.460942857142857,72.6566666666667,-15.8333333333333,29.6933333333333,6.008,-0.91142,0.08436,-0.48334,2.20275,-0.538875,0.7625,113.90625,0.80715,0.32495,0.55335,26.9666666666667,-5.49033333333333,8.71766666666667,7.7265,-0.840016666666667,-0.0798,0.309166666666667,13.8902,-28.1218,-39.2184,567.529,1,1,1,1
24-May-2018 12:47:33,339.285714285714,0.915785714285714,0.0486142857142857,0.460942857142857,72.6566666666667,-15.8333333333333,29.6933333333333,6.008,-0.91142,0.08436,-0.48334,2.20275,-0.538875,0.7625,113.90625,0.80715,0.32495,0.55335,26.9666666666667,-5.49033333333333,8.71766666666667,7.7265,-0.840016666666667,-0.0798,0.309166666666667,13.8902,-28.1218,-39.2184,567.529,1,1,1,1
24-May-2018 12:47:34,166.9,0.8860125,0.0676875,0.438625,73.766,-1.0644,11.96,5.49833333333333,-0.909633333333333,0.0552,-0.4892,1.7441,0.1124,-1.6548,113.62325,0.816375,0.27215,0.485075,47.07,25.61,25.7295,4.9565,-0.978,-0.12794,0.16276,-109.49375,16.653875,56.638625,624.86,1,1,1,1
24-May-2018 12:47:34,166.9,0.8860125,0.0676875,0.438625,73.766,-1.0644,11.96,5.49833333333333,-0.909633333333333,0.0552,-0.4892,1.7441,0.1124,-1.6548,113.62325,0.816375,0.27215,0.485075,47.07,25.61,25.7295,4.9565,-0.978,-0.12794,0.16276,-109.49375,16.653875,56.638625,624.86,1,1,1,1
24-May-2018 12:47:34,166.9,0.8860125,0.0676875,0.438625,73.766,-1.0644,11.96,5.49833333333333,-0.909633333333333,0.0552,-0.4892,1.7441,0.1124,-1.6548,113.62325,0.816375,0.27215,0.485075,47.07,25.61,25.7295,4.9565,-0.978,-0.12794,0.16276,-109.49375,16.653875,56.638625,624.86,1,1,1,1
24-May-2018 12:47:34,166.9,0.8860125,0.0676875,0.438625,73.766,-1.0644,11.96,5.49833333333333,-0.909633333333333,0.0552,-0.4892,1.7441,0.1124,-1.6548,113.62325,0.816375,0.27215,0.485075,47.07,25.61,25.7295,4.9565,-0.978,-0.12794,0.16276,-109.49375,16.653875,56.638625,624.86,1,1,1,1
24-May-2018 12:47:35,55.4444444444444,0.93036,-0.07144,0.43406,-11.8268571428571,-3.06857142857143,-2.21085714285714,5.273,-0.9102,0.0717,-0.48828,1.05011111111111,-1.32511111111111,2.16144444444444,114.041,0.857966666666667,0.2484,0.3852,61.13,3.31366666666667,27.9033333333333,3.407,-1.0325,-0.0366666666666667,0.197166666666667,28.0286666666667,-12.3986666666667,-40.142,690.5344,1,1,1,1
24-May-2018 12:47:35,55.4444444444444,0.93036,-0.07144,0.43406,-11.8268571428571,-3.06857142857143,-2.21085714285714,5.273,-0.9102,0.0717,-0.48828,1.05011111111111,-1.32511111111111,2.16144444444444,114.041,0.857966666666667,0.2484,0.3852,61.13,3.31366666666667,27.9033333333333,3.407,-1.0325,-0.0366666666666667,0.197166666666667,28.0286666666667,-12.3986666666667,-40.142,690.5344,1,1,1,1
24-May-2018 12:47:35,55.4444444444444,0.93036,-0.07144,0.43406,-11.8268571428571,-3.06857142857143,-2.21085714285714,5.273,-0.9102,0.0717,-0.48828,1.05011111111111,-1.32511111111111,2.16144444444444,114.041,0.857966666666667,0.2484,0.3852,61.13,3.31366666666667,27.9033333333333,3.407,-1.0325,-0.0366666666666667,0.197166666666667,28.0286666666667,-12.3986666666667,-40.142,690.5344,1,1,1,1
24-May-2018 12:47:35,55.4444444444444,0.93036,-0.07144,0.43406,-11.8268571428571,-3.06857142857143,-2.21085714285714,5.273,-0.9102,0.0717,-0.48828,1.05011111111111,-1.32511111111111,2.16144444444444,114.041,0.857966666666667,0.2484,0.3852,61.13,3.31366666666667,27.9033333333333,3.407,-1.0325,-0.0366666666666667,0.197166666666667,28.0286666666667,-12.3986666666667,-40.142,690.5344,1,1,1,1
24-May-2018 12:47:36,-61.6,0.97176,0.04632,0.3812,-37.2943333333333,6.12683333333333,1.161,5.52233333333333,-0.893566666666667,0.07515,-0.50605,1.45485714285714,10.8614285714286,0.819,112.801666666667,0.8071,0.42012,0.47386,-13.4,-17.8,-7.92,2.6395,-0.9754,-0.10612,0.2634,63.1708333333333,-33.2828333333333,-31.5955,639.081,1,1,1,1
24-May-2018 12:47:36,-61.6,0.97176,0.04632,0.3812,-37.2943333333333,6.12683333333333,1.161,5.52233333333333,-0.893566666666667,0.07515,-0.50605,1.45485714285714,10.8614285714286,0.819,112.801666666667,0.8071,0.42012,0.47386,-13.4,-17.8,-7.92,2.6395,-0.9754,-0.10612,0.2634,63.1708333333333,-33.2828333333333,-31.5955,639.081,1,1,1,1
24-May-2018 12:47:36,-61.6,0.97176,0.04632,0.3812,-37.2943333333333,6.12683333333333,1.161,5.52233333333333,-0.893566666666667,0.07515,-0.50605,1.45485714285714,10.8614285714286,0.819,112.801666666667,0.8071,0.42012,0.47386,-13.4,-17.8,-7.92,2.6395,-0.9754,-0.10612,0.2634,63.1708333333333,-33.2828333333333,-31.5955,639.081,1,1,1,1
24-May-2018 12:47:36,-61.6,0.97176,0.04632,0.3812,-37.2943333333333,6.12683333333333,1.161,5.52233333333333,-0.893566666666667,0.07515,-0.50605,1.45485714285714,10.8614285714286,0.819,112.801666666667,0.8071,0.42012,0.47386,-13.4,-17.8,-7.92,2.6395,-0.9754,-0.10612,0.2634,63.1708333333333,-33.2828333333333,-31.5955,639.081,1,1,1,1
24-May-2018 12:47:37,-74.1111111111111,0.884283333333333,0.0239666666666667,0.421866666666667,28.12375,-5.34425,4.879375,6.281,-0.89406,0.07942,-0.52994,1.02014285714286,-1.96685714285714,0.0442857142857144,113.214,0.806166666666667,0.2743,0.5308,-36.4,-28.245,-4.3375,1.955,-0.9201,-0.1133,0.3421,-4.2175,1.992,-17.5305,661.639,1,1,1,1
24-May-2018 12:47:37,-74.1111111111111,0.884283333333333,0.0239666666666667,0.421866666666667,28.12375,-5.34425,4.879375,6.281,-0.89406,0.07942,-0.52994,1.02014285714286,-1.96685714285714,0.0442857142857144,113.214,0.806166666666667,0.2743,0.5308,-36.4,-28.245,-4.3375,1.955,-0.9201,-0.1133,0.3421,-4.2175,1.992,-17.5305,661.639,1,1,1,1
24-May-2018 12:47:37,-74.1111111111111,0.884283333333333,0.0239666666666667,0.421866666666667,28.12375,-5.34425,4.879375,6.281,-0.89406,0.07942,-0.52994,1.02014285714286,-1.96685714285714,0.0442857142857144,113.214,0.806166666666667,0.2743,0.5308,-36.4,-28.245,-4.3375,1.955,-0.9201,-0.1133,0.3421,-4.2175,1.992,-17.5305,661.639,1,1,1,1
24-May-2018 12:47:37,-74.1111111111111,0.884283333333333,0.0239666666666667,0.421866666666667,28.12375,-5.34425,4.879375,6.281,-0.89406,0.07942,-0.52994,1.02014285714286,-1.96685714285714,0.0442857142857144,113.214,0.806166666666667,0.2743,0.5308,-36.4,-28.245,-4.3375,1.955,-0.9201,-0.1133,0.3421,-4.2175,1.992,-17.5305,661.639,1,1,1,1
24-May-2018 12:47:38,34.8,0.891266666666667,-0.0480555555555556,0.391622222222222,40.7366666666667,-4.68416666666667,7.894,6.281,-0.89935,0.0732166666666667,-0.506633333333333,2.69044444444444,-0.504888888888889,0.474444444444444,113.558,0.762766666666667,0.3268,0.6092,22.7034,3.2094,14.5702,2.6895,-0.893866666666667,0.0302666666666667,0.201766666666667,-43.1903333333333,0.3355,5.44716666666667,623.665,1,1,1,1
24-May-2018 12:47:38,34.8,0.891266666666667,-0.0480555555555556,0.391622222222222,40.7366666666667,-4.68416666666667,7.894,6.281,-0.89935,0.0732166666666667,-0.506633333333333,2.69044444444444,-0.504888888888889,0.474444444444444,113.558,0.762766666666667,0.3268,0.6092,22.7034,3.2094,14.5702,2.6895,-0.893866666666667,0.0302666666666667,0.201766666666667,-43.1903333333333,0.3355,5.44716666666667,623.665,1,1,1,1
24-May-2018 12:47:38,34.8,0.891266666666667,-0.0480555555555556,0.391622222222222,40.7366666666667,-4.68416666666667,7.894,6.281,-0.89935,0.0732166666666667,-0.506633333333333,2.69044444444444,-0.504888888888889,0.474444444444444,113.558,0.762766666666667,0.3268,0.6092,22.7034,3.2094,14.5702,2.6895,-0.893866666666667,0.0302666666666667,0.201766666666667,-43.1903333333333,0.3355,5.44716666666667,623.665,1,1,1,1
24-May-2018 12:47:38,34.8,0.891266666666667,-0.0480555555555556,0.391622222222222,40.7366666666667,-4.68416666666667,7.894,6.281,-0.89935,0.0732166666666667,-0.506633333333333,2.69044444444444,-0.504888888888889,0.474444444444444,113.558,0.762766666666667,0.3268,0.6092,22.7034,3.2094,14.5702,2.6895,-0.893866666666667,0.0302666666666667,0.201766666666667,-43.1903333333333,0.3355,5.44716666666667,623.665,1,1,1,1
24-May-2018 12:47:39,123.625,0.8856,0.0670333333333333,0.443333333333333,62.8971428571429,-0.749428571428571,18.4891428571429,6.281,-0.908,0.0674,-0.49392,1.90828571428571,-7.14714285714286,-0.721285714285714,111.131,0.806933333333333,0.2287,0.503333333333333,29.8133333333333,16.0783333333333,13.8796666666667,4.4095,-0.938133333333333,-0.119633333333333,0.302,16.768,-28.6786666666667,-34.39,699.932,1,1,1,1
24-May-2018 12:47:39,123.625,0.8856,0.0670333333333333,0.443333333333333,62.8971428571429,-0.749428571428571,18.4891428571429,6.281,-0.908,0.0674,-0.49392,1.90828571428571,-7.14714285714286,-0.721285714285714,111.131,0.806933333333333,0.2287,0.503333333333333,29.8133333333333,16.0783333333333,13.8796666666667,4.4095,-0.938133333333333,-0.119633333333333,0.302,16.768,-28.6786666666667,-34.39,699.932,1,1,1,1
24-May-2018 12:47:39,123.625,0.8856,0.0670333333333333,0.443333333333333,62.8971428571429,-0.749428571428571,18.4891428571429,6.281,-0.908,0.0674,-0.49392,1.90828571428571,-7.14714285714286,-0.721285714285714,111.131,0.806933333333333,0.2287,0.503333333333333,29.8133333333333,16.0783333333333,13.8796666666667,4.4095,-0.938133333333333,-0.119633333333333,0.302,16.768,-28.6786666666667,-34.39,699.932,1,1,1,1
24-May-2018 12:47:39,123.625,0.8856,0.0670333333333333,0.443333333333333,62.8971428571429,-0.749428571428571,18.4891428571429,6.281,-0.908,0.0674,-0.49392,1.90828571428571,-7.14714285714286,-0.721285714285714,111.131,0.806933333333333,0.2287,0.503333333333333,29.8133333333333,16.0783333333333,13.8796666666667,4.4095,-0.938133333333333,-0.119633333333333,0.302,16.768,-28.6786666666667,-34.39,699.932,1,1,1,1
24-May-2018 12:47:40,309.2,0.893088888888889,0.0496777777777778,0.435411111111111,66.6422222222222,0.702444444444445,29.109,6.281,-0.915475,0.066225,-0.485,-1.7399,-0.4549,0.0705,111.131,0.919275,0.2586,0.43815,62.4871428571429,2.36442857142857,34.9081428571429,5.592,-1.01418,-0.02928,0.1454,-137.211833333333,19.2175,59.9286666666667,871.207,1,1,1,1
24-May-2018 12:47:40,309.2,0.893088888888889,0.0496777777777778,0.435411111111111,66.6422222222222,0.702444444444445,29.109,6.281,-0.915475,0.066225,-0.485,-1.7399,-0.4549,0.0705,111.131,0.919275,0.2586,0.43815,62.4871428571429,2.36442857142857,34.9081428571429,5.592,-1.01418,-0.02928,0.1454,-137.211833333333,19.2175,59.9286666666667,871.207,1,1,1,1
24-May-2018 12:47:40,309.2,0.893088888888889,0.0496777777777778,0.435411111111111,66.6422222222222,0.702444444444445,29.109,6.281,-0.915475,0.066225,-0.485,-1.7399,-0.4549,0.0705,111.131,0.919275,0.2586,0.43815,62.4871428571429,2.36442857142857,34.9081428571429,5.592,-1.01418,-0.02928,0.1454,-137.211833333333,19.2175,59.9286666666667,871.207,1,1,1,1
24-May-2018 12:47:40,309.2,0.893088888888889,0.0496777777777778,0.435411111111111,66.6422222222222,0.702444444444445,29.109,6.281,-0.915475,0.066225,-0.485,-1.7399,-0.4549,0.0705,111.131,0.919275,0.2586,0.43815,62.4871428571429,2.36442857142857,34.9081428571429,5.592,-1.01418,-0.02928,0.1454,-137.211833333333,19.2175,59.9286666666667,871.207,1,1,1,1
24-May-2018 12:47:41,205.5,0.80575,-0.06235,0.425325,20.1335,3.4125,5.34125,6.171,-0.914425,0.078025,-0.4761,-4.6975,-3.026625,3.368875,108.343,0.82594,0.33234,0.49498,71.09,54.08,22.37,3.851,-0.8686,-0.05695,0.2964,-39.5854,-8.4878,4.9512,631.91575,1,1,1,1
24-May-2018 12:47:41,205.5,0.80575,-0.06235,0.425325,20.1335,3.4125,5.34125,6.171,-0.914425,0.078025,-0.4761,-4.6975,-3.026625,3.368875,108.343,0.82594,0.33234,0.49498,71.09,54.08,22.37,3.851,-0.8686,-0.05695,0.2964,-39.5854,-8.4878,4.9512,631.91575,1,1,1,1
24-May-2018 12:47:41,205.5,0.80575,-0.06235,0.425325,20.1335,3.4125,5.34125,6.171,-0.914425,0.078025,-0.4761,-4.6975,-3.026625,3.368875,108.343,0.82594,0.33234,0.49498,71.09,54.08,22.37,3.851,-0.8686,-0.05695,0.2964,-39.5854,-8.4878,4.9512,631.91575,1,1,1,1
24-May-2018 12:47:41,205.5,0.80575,-0.06235,0.425325,20.1335,3.4125,5.34125,6.171,-0.914425,0.078025,-0.4761,-4.6975,-3.026625,3.368875,108.343,0.82594,0.33234,0.49498,71.09,54.08,22.37,3.851,-0.8686,-0.05695,0.2964,-39.5854,-8.4878,4.9512,631.91575,1,1,1,1
24-May-2018 12:47:42,92.6,0.865333333333333,-0.02015,0.401916666666667,-43.9166666666667,-1.79,-7.355,6.898,-0.9214,0.08205,-0.46945,-0.073375,-0.363375,2.431375,108.343,0.883833333333333,0.362666666666667,0.327033333333333,-25.9166666666667,-16.2866666666667,-11.9998333333333,6.235,-0.9404,-0.06104,0.3293,41.6098,-9.7804,-2.7306,562.55275,1,1,0,1
24-May-2018 12:47:42,92.6,0.865333333333333,-0.02015,0.401916666666667,-43.9166666666667,-1.79,-7.355,6.898,-0.9214,0.08205,-0.46945,-0.073375,-0.363375,2.431375,108.343,0.883833333333333,0.362666666666667,0.327033333333333,-25.9166666666667,-16.2866666666667,-11.9998333333333,6.235,-0.9404,-0.06104,0.3293,41.6098,-9.7804,-2.7306,562.55275,1,1,0,1
24-May-2018 12:47:42,92.6,0.865333333333333,-0.02015,0.401916666666667,-43.9166666666667,-1.79,-7.355,6.898,-0.9214,0.08205,-0.46945,-0.073375,-0.363375,2.431375,108.343,0.883833333333333,0.362666666666667,0.327033333333333,-25.9166666666667,-16.2866666666667,-11.9998333333333,6.235,-0.9404,-0.06104,0.3293,41.6098,-9.7804,-2.7306,562.55275,1,1,0,1
24-May-2018 12:47:42,92.6,0.865333333333333,-0.02015,0.401916666666667,-43.9166666666667,-1.79,-7.355,6.898,-0.9214,0.08205,-0.46945,-0.073375,-0.363375,2.431375,108.343,0.883833333333333,0.362666666666667,0.327033333333333,-25.9166666666667,-16.2866666666667,-11.9998333333333,6.235,-0.9404,-0.06104,0.3293,41.6098,-9.7804,-2.7306,562.55275,1,1,0,1
24-May-2018 12:47:43,-210.6,0.95358,-0.12884,0.39146,13.577,1.21133333333333,-14.6233333333333,9.2255,-0.91876,0.08636,-0.46824,0.346555555555556,0.882,0.0556666666666667,108.343,0.752766666666667,0.291766666666667,0.671066666666667,-20.065,15.785,-8.7295,6.1295,-0.9029,-0.032,0.23025,-14.9512,28.4022,3.878,919.512,0,0,1,1
24-May-2018 12:47:43,-210.6,0.95358,-0.12884,0.39146,13.577,1.21133333333333,-14.6233333333333,9.2255,-0.91876,0.08636,-0.46824,0.346555555555556,0.882,0.0556666666666667,108.343,0.752766666666667,0.291766666666667,0.671066666666667,-20.065,15.785,-8.7295,6.1295,-0.9029,-0.032,0.23025,-14.9512,28.4022,3.878,919.512,0,0,1,1
24-May-2018 12:47:43,-210.6,0.95358,-0.12884,0.39146,13.577,1.21133333333333,-14.6233333333333,9.2255,-0.91876,0.08636,-0.46824,0.346555555555556,0.882,0.0556666666666667,108.343,0.752766666666667,0.291766666666667,0.671066666666667,-20.065,15.785,-8.7295,6.1295,-0.9029,-0.032,0.23025,-14.9512,28.4022,3.878,919.512,0,0,1,1
24-May-2018 12:47:43,-210.6,0.95358,-0.12884,0.39146,13.577,1.21133333333333,-14.6233333333333,9.2255,-0.91876,0.08636,-0.46824,0.346555555555556,0.882,0.0556666666666667,108.343,0.752766666666667,0.291766666666667,0.671066666666667,-20.065,15.785,-8.7295,6.1295,-0.9029,-0.032,0.23025,-14.9512,28.4022,3.878,919.512,0,0,1,1
24-May-2018 12:47:44,-666.1,0.92168,-0.0452,0.3903,24.028875,-0.182125,13.567125,9.362,-0.919175,0.0866,-0.470375,-2.24633333333333,0.767777777777778,1.05144444444444,110.146,0.757033333333333,0.2195,0.487566666666667,-14.3585,-31.1365,-9.217,7.436,-0.85012,-0.00726,0.27644,-34.99975,2.309625,17.782,783.20875,1,1,1,1
24-May-2018 12:47:44,-666.1,0.92168,-0.0452,0.3903,24.028875,-0.182125,13.567125,9.362,-0.919175,0.0866,-0.470375,-2.24633333333333,0.767777777777778,1.05144444444444,110.146,0.757033333333333,0.2195,0.487566666666667,-14.3585,-31.1365,-9.217,7.436,-0.85012,-0.00726,0.27644,-34.99975,2.309625,17.782,783.20875,1,1,1,1
24-May-2018 12:47:44,-666.1,0.92168,-0.0452,0.3903,24.028875,-0.182125,13.567125,9.362,-0.919175,0.0866,-0.470375,-2.24633333333333,0.767777777777778,1.05144444444444,110.146,0.757033333333333,0.2195,0.487566666666667,-14.3585,-31.1365,-9.217,7.436,-0.85012,-0.00726,0.27644,-34.99975,2.309625,17.782,783.20875,1,1,1,1
24-May-2018 12:47:44,-666.1,0.92168,-0.0452,0.3903,24.028875,-0.182125,13.567125,9.362,-0.919175,0.0866,-0.470375,-2.24633333333333,0.767777777777778,1.05144444444444,110.146,0.757033333333333,0.2195,0.487566666666667,-14.3585,-31.1365,-9.217,7.436,-0.85012,-0.00726,0.27644,-34.99975,2.309625,17.782,783.20875,1,1,1,1
24-May-2018 12:47:45,-895.5,0.833483333333333,0.102616666666667,0.44595,39.336,2.549,17.827,7.193,-0.91292,0.08926,-0.47912,-0.410444444444444,3.334,-0.0787777777777778,110.146,0.8823,0.264933333333333,0.541866666666667,22.156,20.2422,14.974,7.436,-0.9141,-0.09676,0.26054,22.317,-47.6016666666667,-30.7923333333333,539.941833333333,1,1,1,1
24-May-2018 12:47:45,-895.5,0.833483333333333,0.102616666666667,0.44595,39.336,2.549,17.827,7.193,-0.91292,0.08926,-0.47912,-0.410444444444444,3.334,-0.0787777777777778,110.146,0.8823,0.264933333333333,0.541866666666667,22.156,20.2422,14.974,7.436,-0.9141,-0.09676,0.26054,22.317,-47.6016666666667,-30.7923333333333,539.941833333333,1,1,1,1
24-May-2018 12:47:45,-895.5,0.833483333333333,0.102616666666667,0.44595,39.336,2.549,17.827,7.193,-0.91292,0.08926,-0.47912,-0.410444444444444,3.334,-0.0787777777777778,110.146,0.8823,0.264933333333333,0.541866666666667,22.156,20.2422,14.974,7.436,-0.9141,-0.09676,0.26054,22.317,-47.6016666666667,-30.7923333333333,539.941833333333,1,1,1,1
24-May-2018 12:47:45,-895.5,0.833483333333333,0.102616666666667,0.44595,39.336,2.549,17.827,7.193,-0.91292,0.08926,-0.47912,-0.410444444444444,3.334,-0.0787777777777778,110.146,0.8823,0.264933333333333,0.541866666666667,22.156,20.2422,14.974,7.436,-0.9141,-0.09676,0.26054,22.317,-47.6016666666667,-30.7923333333333,539.941833333333,1,1,1,1
24-May-2018 12:47:46,439.3,0.92284,-0.05186,0.3867,60.5575,-0.33225,10.2,5.127,-0.91695,0.093625,-0.47715,1.132,-3.19222222222222,0.0624444444444444,110.06825,0.847066666666667,0.346716666666667,0.522466666666667,32.8733333333333,-9.41333333333333,24.1023333333333,7.436,-0.90165,-0.10305,0.296775,-86.0045,19.1766666666667,36.2906666666667,519.694,1,1,1,1
24-May-2018 12:47:46,439.3,0.92284,-0.05186,0.3867,60.5575,-0.33225,10.2,5.127,-0.91695,0.093625,-0.47715,1.132,-3.19222222222222,0.0624444444444444,110.06825,0.847066666666667,0.346716666666667,0.522466666666667,32.8733333333333,-9.41333333333333,24.1023333333333,7.436,-0.90165,-0.10305,0.296775,-86.0045,19.1766666666667,36.2906666666667,519.694,1,1,1,1
24-May-2018 12:47:46,439.3,0.92284,-0.05186,0.3867,60.5575,-0.33225,10.2,5.127,-0.91695,0.093625,-0.47715,1.132,-3.19222222222222,0.0624444444444444,110.06825,0.847066666666667,0.346716666666667,0.522466666666667,32.8733333333333,-9.41333333333333,24.1023333333333,7.436,-0.90165,-0.10305,0.296775,-86.0045,19.1766666666667,36.2906666666667,519.694,1,1,1,1
24-May-2018 12:47:46,439.3,0.92284,-0.05186,0.3867,60.5575,-0.33225,10.2,5.127,-0.91695,0.093625,-0.47715,1.132,-3.19222222222222,0.0624444444444444,110.06825,0.847066666666667,0.346716666666667,0.522466666666667,32.8733333333333,-9.41333333333333,24.1023333333333,0,-0.90165,-0.10305,0.296775,-86.0045,19.1766666666667,36.2906666666667,519.694,1,1,1,1
24-May-2018 12:47:47,962.3,0.861266666666667,0.0449,0.47225,79.695,-6.7561,30.495,4.136,-0.9214,0.090975,-0.462675,4.13875,-1.529375,1.829125,109.835,0.84374,0.32968,0.52634,56.7271428571429,30.7798571428571,25.5387142857143,7.4095,-0.860366666666667,-0.0982,0.290133333333333,-49.00925,-26.00625,-17.66775,604.173,1,1,1,1
24-May-2018 12:47:47,962.3,0.861266666666667,0.0449,0.47225,79.695,-6.7561,30.495,4.136,-0.9214,0.090975,-0.462675,4.13875,-1.529375,1.829125,109.835,0.84374,0.32968,0.52634,56.7271428571429,30.7798571428571,25.5387142857143,7.4095,-0.860366666666667,-0.0982,0.290133333333333,-49.00925,-26.00625,-17.66775,604.173,1,1,1,1
24-May-2018 12:47:47,962.3,0.861266666666667,0.0449,0.47225,79.695,-6.7561,30.495,4.136,-0.9214,0.090975,-0.462675,4.13875,-1.529375,1.829125,109.835,0.84374,0.32968,0.52634,56.7271428571429,30.7798571428571,25.5387142857143,7.4095,-0.860366666666667,-0.0982,0.290133333333333,-49.00925,-26.00625,-17.66775,604.173,1,1,1,1
24-May-2018 12:47:47,962.3,0.861266666666667,0.0449,0.47225,79.695,-6.7561,30.495,4.136,-0.9214,0.090975,-0.462675,4.13875,-1.529375,1.829125,109.835,0.84374,0.32968,0.52634,56.7271428571429,30.7798571428571,25.5387142857143,7.4095,-0.860366666666667,-0.0982,0.290133333333333,-49.00925,-26.00625,-17.66775,604.173,1,1,1,1
24-May-2018 12:47:48,619.4,0.89548,0.08292,0.43508,29.72375,-3.48625,9.54175,4.136,-0.92095,0.0876,-0.4586,3.4605,0.30775,2.1645,109.835,0.944766666666667,0.2885,0.380633333333333,41.44425,1.50125,21.4475,7.4095,-1.00063333333333,-0.165533333333333,0.205466666666667,-112.2065,17.72875,71.55475,745.055,1,1,1,1
24-May-2018 12:47:48,619.4,0.89548,0.08292,0.43508,29.72375,-3.48625,9.54175,4.136,-0.92095,0.0876,-0.4586,3.4605,0.30775,2.1645,109.835,0.944766666666667,0.2885,0.380633333333333,41.44425,1.50125,21.4475,7.4095,-1.00063333333333,-0.165533333333333,0.205466666666667,-112.2065,17.72875,71.55475,745.055,1,1,1,1
24-May-2018 12:47:48,619.4,0.89548,0.08292,0.43508,29.72375,-3.48625,9.54175,4.136,-0.92095,0.0876,-0.4586,3.4605,0.30775,2.1645,109.835,0.944766666666667,0.2885,0.380633333333333,41.44425,1.50125,21.4475,7.4095,-1.00063333333333,-0.165533333333333,0.205466666666667,-112.2065,17.72875,71.55475,745.055,1,1,1,1
24-May-2018 12:47:48,619.4,0.89548,0.08292,0.43508,29.72375,-3.48625,9.54175,4.136,-0.92095,0.0876,-0.4586,3.4605,0.30775,2.1645,109.835,0.944766666666667,0.2885,0.380633333333333,41.44425,1.50125,21.4475,0,-1.00063333333333,-0.165533333333333,0.205466666666667,-112.2065,17.72875,71.55475,745.055,1,1,1,1
24-May-2018 12:47:49,212,0.858366666666667,-0.0619222222222222,0.428788888888889,-1.095875,0.79375,-0.744999999999999,4.136,-0.91862,0.089,-0.46514,0.943888888888889,0.523222222222222,0.557111111111111,109.835,0.7911,0.347625,0.51375,10.485,14.825,-3.73,3.05225,-0.9713,-0.064075,0.29895,38.821,-28.5773333333333,-54.0346666666667,785.418,1,1,1,1
24-May-2018 12:47:49,212,0.858366666666667,-0.0619222222222222,0.428788888888889,-1.095875,0.79375,-0.744999999999999,4.136,-0.91862,0.089,-0.46514,0.943888888888889,0.523222222222222,0.557111111111111,109.835,0.7911,0.347625,0.51375,10.485,14.825,-3.73,3.05225,-0.9713,-0.064075,0.29895,38.821,-28.5773333333333,-54.0346666666667,785.418,1,1,1,1
24-May-2018 12:47:49,212,0.858366666666667,-0.0619222222222222,0.428788888888889,-1.095875,0.79375,-0.744999999999999,4.136,-0.91862,0.089,-0.46514,0.943888888888889,0.523222222222222,0.557111111111111,109.835,0.7911,0.347625,0.51375,10.485,14.825,-3.73,3.05225,-0.9713,-0.064075,0.29895,38.821,-28.5773333333333,-54.0346666666667,785.418,1,1,1,1
24-May-2018 12:47:49,212,0.858366666666667,-0.0619222222222222,0.428788888888889,-1.095875,0.79375,-0.744999999999999,4.136,-0.91862,0.089,-0.46514,0.943888888888889,0.523222222222222,0.557111111111111,109.835,0.7911,0.347625,0.51375,10.485,14.825,-3.73,3.05225,-0.9713,-0.064075,0.29895,38.821,-28.5773333333333,-54.0346666666667,785.418,1,1,1,1
24-May-2018 12:47:50,-1290.85714285714,0.85778,-0.04532,0.51024,-52.625,-5.8,-24.0825,4.136,-0.91846,0.0871,-0.4751,-0.456333333333333,3.22533333333333,0.0911111111111111,110.281,0.8286,0.256375,0.4125,-38.55,-36.55,-23.75,3.128,-0.992442857142857,-0.110242857142857,0.282685714285714,-9.5732,13.0368,30.2804,802.764,1,1,1,1
24-May-2018 12:47:50,-1290.85714285714,0.85778,-0.04532,0.51024,-52.625,-5.8,-24.0825,4.136,-0.91846,0.0871,-0.4751,-0.456333333333333,3.22533333333333,0.0911111111111111,110.281,0.8286,0.256375,0.4125,-38.55,-36.55,-23.75,3.128,-0.992442857142857,-0.110242857142857,0.282685714285714,-9.5732,13.0368,30.2804,802.764,1,1,1,1
24-May-2018 12:47:50,-1290.85714285714,0.85778,-0.04532,0.51024,-52.625,-5.8,-24.0825,4.136,-0.91846,0.0871,-0.4751,-0.456333333333333,3.22533333333333,0.0911111111111111,110.281,0.8286,0.256375,0.4125,-38.55,-36.55,-23.75,3.128,-0.992442857142857,-0.110242857142857,0.282685714285714,-9.5732,13.0368,30.2804,802.764,1,1,1,1
24-May-2018 12:47:50,-1290.85714285714,0.85778,-0.04532,0.51024,-52.625,-5.8,-24.0825,4.136,-0.91846,0.0871,-0.4751,-0.456333333333333,3.22533333333333,0.0911111111111111,110.281,0.8286,0.256375,0.4125,-38.55,-36.55,-23.75,3.128,-0.992442857142857,-0.110242857142857,0.282685714285714,-9.5732,13.0368,30.2804,802.764,1,1,1,1
24-May-2018 12:47:51,-1607,0.88765,-0.0384875,0.4033625,-13.7417777777778,-3.85388888888889,-9.50588888888889,4.136,-0.91105,0.094025,-0.4825,0.8687,4.2437,1.0799,110.727,0.802633333333333,0.373833333333333,0.586833333333333,-27.85,-2.8,-4.335,3.494,-1.00796666666667,-0.0855,0.2561,30.7045555555556,-0.900888888888889,-13.6778888888889,654.60225,1,1,1,1
24-May-2018 12:47:51,-1607,0.88765,-0.0384875,0.4033625,-13.7417777777778,-3.85388888888889,-9.50588888888889,4.136,-0.91105,0.094025,-0.4825,0.8687,4.2437,1.0799,110.727,0.802633333333333,0.373833333333333,0.586833333333333,-27.85,-2.8,-4.335,3.494,-1.00796666666667,-0.0855,0.2561,30.7045555555556,-0.900888888888889,-13.6778888888889,654.60225,1,1,1,1
24-May-2018 12:47:51,-1607,0.88765,-0.0384875,0.4033625,-13.7417777777778,-3.85388888888889,-9.50588888888889,4.136,-0.91105,0.094025,-0.4825,0.8687,4.2437,1.0799,110.727,0.802633333333333,0.373833333333333,0.586833333333333,-27.85,-2.8,-4.335,3.494,-1.00796666666667,-0.0855,0.2561,30.7045555555556,-0.900888888888889,-13.6778888888889,654.60225,1,1,1,1
24-May-2018 12:47:51,-1607,0.88765,-0.0384875,0.4033625,-13.7417777777778,-3.85388888888889,-9.50588888888889,0,-0.91105,0.094025,-0.4825,0.8687,4.2437,1.0799,110.727,0.802633333333333,0.373833333333333,0.586833333333333,-27.85,-2.8,-4.335,3.494,-1.00796666666667,-0.0855,0.2561,30.7045555555556,-0.900888888888889,-13.6778888888889,654.60225,1,1,1,1
24-May-2018 12:47:52,-989.555555555556,0.8583,0.0373714285714286,0.4187,30.3274,-7.5016,9.3318,5.66866666666667,-0.91318,0.10038,-0.47792,3.68883333333333,-5.64333333333333,1.5955,110.727,0.8319,0.274133333333333,0.5121,-12.5102857142857,-19.2457142857143,-1.914,2.64833333333333,-0.9574,-0.089875,0.16535,-54.0145714285714,11.6985714285714,12.1515714285714,649.611,1,0,1,1
24-May-2018 12:47:52,-989.555555555556,0.8583,0.0373714285714286,0.4187,30.3274,-7.5016,9.3318,5.66866666666667,-0.91318,0.10038,-0.47792,3.68883333333333,-5.64333333333333,1.5955,110.727,0.8319,0.274133333333333,0.5121,-12.5102857142857,-19.2457142857143,-1.914,2.64833333333333,-0.9574,-0.089875,0.16535,-54.0145714285714,11.6985714285714,12.1515714285714,649.611,1,0,1,1
24-May-2018 12:47:52,-989.555555555556,0.8583,0.0373714285714286,0.4187,30.3274,-7.5016,9.3318,5.66866666666667,-0.91318,0.10038,-0.47792,3.68883333333333,-5.64333333333333,1.5955,110.727,0.8319,0.274133333333333,0.5121,-12.5102857142857,-19.2457142857143,-1.914,2.64833333333333,-0.9574,-0.089875,0.16535,-54.0145714285714,11.6985714285714,12.1515714285714,649.611,1,0,1,1
24-May-2018 12:47:52,-989.555555555556,0.8583,0.0373714285714286,0.4187,30.3274,-7.5016,9.3318,5.66866666666667,-0.91318,0.10038,-0.47792,3.68883333333333,-5.64333333333333,1.5955,110.727,0.8319,0.274133333333333,0.5121,-12.5102857142857,-19.2457142857143,-1.914,2.64833333333333,-0.9574,-0.089875,0.16535,-54.0145714285714,11.6985714285714,12.1515714285714,649.611,1,0,1,1
24-May-2018 12:47:53,-393.75,0.931757142857143,0.00612857142857143,0.4351,69.29,0.9208,26.252,6.10666666666667,-0.91644,0.09082,-0.47038,5.807875,3.140125,0.376375,109.077,0.7794,0.307933333333333,0.522033333333333,53.78875,17.663,25.449,2.915,-0.944485714285714,-0.0603571428571429,0.209542857142857,-53.30725,-26.61575,7.7895,663.31675,1,1,1,1
24-May-2018 12:47:53,-393.75,0.931757142857143,0.00612857142857143,0.4351,69.29,0.9208,26.252,6.10666666666667,-0.91644,0.09082,-0.47038,5.807875,3.140125,0.376375,109.077,0.7794,0.307933333333333,0.522033333333333,53.78875,17.663,25.449,2.915,-0.944485714285714,-0.0603571428571429,0.209542857142857,-53.30725,-26.61575,7.7895,663.31675,1,1,1,1
24-May-2018 12:47:53,-393.75,0.931757142857143,0.00612857142857143,0.4351,69.29,0.9208,26.252,6.10666666666667,-0.91644,0.09082,-0.47038,5.807875,3.140125,0.376375,109.077,0.7794,0.307933333333333,0.522033333333333,53.78875,17.663,25.449,2.915,-0.944485714285714,-0.0603571428571429,0.209542857142857,-53.30725,-26.61575,7.7895,663.31675,1,1,1,1
24-May-2018 12:47:53,-393.75,0.931757142857143,0.00612857142857143,0.4351,69.29,0.9208,26.252,6.10666666666667,-0.91644,0.09082,-0.47038,5.807875,3.140125,0.376375,109.077,0.7794,0.307933333333333,0.522033333333333,53.78875,17.663,25.449,2.915,-0.944485714285714,-0.0603571428571429,0.209542857142857,-53.30725,-26.61575,7.7895,663.31675,1,1,1,1
24-May-2018 12:47:54,68.8888888888889,0.8200875,-0.0483375,0.4087125,71.0433333333333,-3.50666666666667,28.5746666666667,6.682,-0.921616666666667,0.0855666666666667,-0.464316666666667,8.42383333333333,-6.97833333333333,5.75283333333333,108.2234,0.90762,0.2851,0.38736,86.692,41.7904,45.436,6.6068,-0.9308,-0.1282,0.239233333333333,-59.9738,6.8048,11.9148,844.933,1,1,1,1
24-May-2018 12:47:54,68.8888888888889,0.8200875,-0.0483375,0.4087125,71.0433333333333,-3.50666666666667,28.5746666666667,6.682,-0.921616666666667,0.0855666666666667,-0.464316666666667,8.42383333333333,-6.97833333333333,5.75283333333333,108.2234,0.90762,0.2851,0.38736,86.692,41.7904,45.436,6.6068,-0.9308,-0.1282,0.239233333333333,-59.9738,6.8048,11.9148,844.933,1,1,1,1
24-May-2018 12:47:54,68.8888888888889,0.8200875,-0.0483375,0.4087125,71.0433333333333,-3.50666666666667,28.5746666666667,6.682,-0.921616666666667,0.0855666666666667,-0.464316666666667,8.42383333333333,-6.97833333333333,5.75283333333333,108.2234,0.90762,0.2851,0.38736,86.692,41.7904,45.436,6.6068,-0.9308,-0.1282,0.239233333333333,-59.9738,6.8048,11.9148,844.933,1,1,1,1
24-May-2018 12:47:54,68.8888888888889,0.8200875,-0.0483375,0.4087125,71.0433333333333,-3.50666666666667,28.5746666666667,6.682,-0.921616666666667,0.0855666666666667,-0.464316666666667,8.42383333333333,-6.97833333333333,5.75283333333333,108.2234,0.90762,0.2851,0.38736,86.692,41.7904,45.436,6.6068,-0.9308,-0.1282,0.239233333333333,-59.9738,6.8048,11.9148,844.933,1,1,1,1
24-May-2018 12:47:55,430.111111111111,0.906742857142857,0.00445714285714286,0.462285714285714,-2.76357142857143,2.15957142857143,-7.15771428571429,8.058,-0.9312,0.0782333333333333,-0.4432,13.022375,4.977125,3.048875,106.943,0.945466666666667,0.432566666666667,0.483833333333333,9.608,-10.244,2.6244,7.00533333333333,-0.941933333333333,-0.0942,0.200516666666667,-8.6585,5.625,9.924,806.984,1,1,1,1
24-May-2018 12:47:55,430.111111111111,0.906742857142857,0.00445714285714286,0.462285714285714,-2.76357142857143,2.15957142857143,-7.15771428571429,8.058,-0.9312,0.0782333333333333,-0.4432,13.022375,4.977125,3.048875,106.943,0.945466666666667,0.432566666666667,0.483833333333333,9.608,-10.244,2.6244,7.00533333333333,-0.941933333333333,-0.0942,0.200516666666667,-8.6585,5.625,9.924,806.984,1,1,1,1
24-May-2018 12:47:55,430.111111111111,0.906742857142857,0.00445714285714286,0.462285714285714,-2.76357142857143,2.15957142857143,-7.15771428571429,8.058,-0.9312,0.0782333333333333,-0.4432,13.022375,4.977125,3.048875,106.943,0.945466666666667,0.432566666666667,0.483833333333333,9.608,-10.244,2.6244,7.00533333333333,-0.941933333333333,-0.0942,0.200516666666667,-8.6585,5.625,9.924,806.984,1,1,1,1
24-May-2018 12:47:55,430.111111111111,0.906742857142857,0.00445714285714286,0.462285714285714,-2.76357142857143,2.15957142857143,-7.15771428571429,8.058,-0.9312,0.0782333333333333,-0.4432,13.022375,4.977125,3.048875,106.943,0.945466666666667,0.432566666666667,0.483833333333333,9.608,-10.244,2.6244,7.00533333333333,-0.941933333333333,-0.0942,0.200516666666667,-8.6585,5.625,9.924,806.984,1,1,1,1
24-May-2018 12:47:56,438.818181818182,0.9235,-0.145,0.323425,1.136375,2.142,3.366625,8.68266666666666,-0.92952,0.0938,-0.44444,9.62622222222222,-4.17144444444444,7.41177777777778,102.916333333333,0.816925,0.289,0.494725,2.61,26.09,15.6906666666667,7.999,-1.1022,-0.10235,0.34305,-7.829,15.0366,10.1952,542.155333333333,1,1,1,1
24-May-2018 12:47:56,438.818181818182,0.9235,-0.145,0.323425,1.136375,2.142,3.366625,8.68266666666666,-0.92952,0.0938,-0.44444,9.62622222222222,-4.17144444444444,7.41177777777778,102.916333333333,0.816925,0.289,0.494725,2.61,26.09,15.6906666666667,7.999,-1.1022,-0.10235,0.34305,-7.829,15.0366,10.1952,542.155333333333,1,1,1,1
24-May-2018 12:47:56,438.818181818182,0.9235,-0.145,0.323425,1.136375,2.142,3.366625,8.68266666666666,-0.92952,0.0938,-0.44444,9.62622222222222,-4.17144444444444,7.41177777777778,102.916333333333,0.816925,0.289,0.494725,2.61,26.09,15.6906666666667,7.999,-1.1022,-0.10235,0.34305,-7.829,15.0366,10.1952,542.155333333333,1,1,1,1
24-May-2018 12:47:56,438.818181818182,0.9235,-0.145,0.323425,1.136375,2.142,3.366625,8.68266666666666,-0.92952,0.0938,-0.44444,9.62622222222222,-4.17144444444444,7.41177777777778,102.916333333333,0.816925,0.289,0.494725,2.61,26.09,15.6906666666667,7.999,-1.1022,-0.10235,0.34305,-7.829,15.0366,10.1952,542.155333333333,1,1,1,1
24-May-2018 12:47:57,368.7,0.94086,0.06182,0.3786,9.20533333333333,-6.15333333333333,-4.14,10.2715,-0.932175,0.10345,-0.44115,12.93,0.350142857142857,9.14628571428571,100.903,0.729033333333333,0.2557,0.705566666666667,8.96,-9.817,0.265,7.3635,-0.9347,-0.099075,0.25535,-33.9211666666667,5.559,17.0936666666667,585.5965,1,1,1,0
24-May-2018 12:47:57,368.7,0.94086,0.06182,0.3786,9.20533333333333,-6.15333333333333,-4.14,10.2715,-0.932175,0.10345,-0.44115,12.93,0.350142857142857,9.14628571428571,100.903,0.729033333333333,0.2557,0.705566666666667,8.96,-9.817,0.265,7.3635,-0.9347,-0.099075,0.25535,-33.9211666666667,5.559,17.0936666666667,585.5965,1,1,1,0
24-May-2018 12:47:57,368.7,0.94086,0.06182,0.3786,9.20533333333333,-6.15333333333333,-4.14,10.2715,-0.932175,0.10345,-0.44115,12.93,0.350142857142857,9.14628571428571,100.903,0.729033333333333,0.2557,0.705566666666667,8.96,-9.817,0.265,7.3635,-0.9347,-0.099075,0.25535,-33.9211666666667,5.559,17.0936666666667,585.5965,1,1,1,0
24-May-2018 12:47:57,368.7,0.94086,0.06182,0.3786,9.20533333333333,-6.15333333333333,-4.14,10.2715,-0.932175,0.10345,-0.44115,12.93,0.350142857142857,9.14628571428571,100.903,0.729033333333333,0.2557,0.705566666666667,8.96,-9.817,0.265,7.3635,-0.9347,-0.099075,0.25535,-33.9211666666667,5.559,17.0936666666667,585.5965,1,1,1,0
24-May-2018 12:47:58,331.363636363636,0.92835,-0.1106,0.2725,37.25,-3.23,14.08,10.073,-0.92595,0.11695,-0.4348,10.821,5,9.1765,99.644,0.88015,0.35565,0.37825,9.451,-9.69,-20.8,9.172,-0.749,0.0058,0.2321,11.89,0.8535,-12.1645,485.057,1,1,1,1
24-May-2018 12:47:58,331.363636363636,0.92835,-0.1106,0.2725,37.25,-3.23,14.08,10.073,-0.92595,0.11695,-0.4348,10.821,5,9.1765,99.644,0.88015,0.35565,0.37825,9.451,-9.69,-20.8,9.172,-0.749,0.0058,0.2321,11.89,0.8535,-12.1645,485.057,1,1,1,1
24-May-2018 12:47:58,331.363636363636,0.92835,-0.1106,0.2725,37.25,-3.23,14.08,10.073,-0.92595,0.11695,-0.4348,10.821,5,9.1765,99.644,0.88015,0.35565,0.37825,9.451,-9.69,-20.8,9.172,-0.749,0.0058,0.2321,11.89,0.8535,-12.1645,485.057,1,1,1,1
24-May-2018 12:47:58,331.363636363636,0.92835,-0.1106,0.2725,37.25,-3.23,14.08,10.073,-0.92595,0.11695,-0.4348,10.821,5,9.1765,99.644,0.88015,0.35565,0.37825,9.451,-9.69,-20.8,9.172,-0.749,0.0058,0.2321,11.89,0.8535,-12.1645,485.057,1,1,1,1
24-May-2018 12:47:59,376,0.8985,0.010275,0.4147875,41.3311111111111,-4.83166666666667,11.9598888888889,10.073,-0.930566666666667,0.130566666666667,-0.437333333333333,12.2355,-2.07175,7.538,99.644,0.9111,0.3268,0.51612,17.1521666666667,15.895,17.1831666666667,9.60733333333333,-0.98235,-0.0773333333333333,0.3246,-30.1202857142857,-24.2161428571429,-15.5137142857143,716.315,1,1,1,1
24-May-2018 12:47:59,376,0.8985,0.010275,0.4147875,41.3311111111111,-4.83166666666667,11.9598888888889,10.073,-0.930566666666667,0.130566666666667,-0.437333333333333,12.2355,-2.07175,7.538,99.644,0.9111,0.3268,0.51612,17.1521666666667,15.895,17.1831666666667,9.60733333333333,-0.98235,-0.0773333333333333,0.3246,-30.1202857142857,-24.2161428571429,-15.5137142857143,716.315,1,1,1,1
24-May-2018 12:47:59,376,0.8985,0.010275,0.4147875,41.3311111111111,-4.83166666666667,11.9598888888889,10.073,-0.930566666666667,0.130566666666667,-0.437333333333333,12.2355,-2.07175,7.538,99.644,0.9111,0.3268,0.51612,17.1521666666667,15.895,17.1831666666667,9.60733333333333,-0.98235,-0.0773333333333333,0.3246,-30.1202857142857,-24.2161428571429,-15.5137142857143,716.315,1,1,1,1
24-May-2018 12:47:59,376,0.8985,0.010275,0.4147875,41.3311111111111,-4.83166666666667,11.9598888888889,10.073,-0.930566666666667,0.130566666666667,-0.437333333333333,12.2355,-2.07175,7.538,99.644,0.9111,0.3268,0.51612,17.1521666666667,15.895,17.1831666666667,9.60733333333333,-0.98235,-0.0773333333333333,0.3246,-30.1202857142857,-24.2161428571429,-15.5137142857143,716.315,1,1,1,1
24-May-2018 12:48:00,240,0.9179,-0.022025,0.423175,61.975,12.955,33.835,10.073,-0.9307,0.131,-0.4507,12.13,0.732,6.565,99.644,0.7649,0.180166666666667,0.595266666666667,64.475,46.215,43.9,3.472,-1.08503333333333,-0.1059,0.198866666666667,-141.215,49.3905,134.2685,628.243,1,1,1,1
24-May-2018 12:48:00,240,0.9179,-0.022025,0.423175,61.975,12.955,33.835,10.073,-0.9307,0.131,-0.4507,12.13,0.732,6.565,99.644,0.7649,0.180166666666667,0.595266666666667,64.475,46.215,43.9,3.472,-1.08503333333333,-0.1059,0.198866666666667,-141.215,49.3905,134.2685,628.243,1,1,1,1
24-May-2018 12:48:00,240,0.9179,-0.022025,0.423175,61.975,12.955,33.835,10.073,-0.9307,0.131,-0.4507,12.13,0.732,6.565,99.644,0.7649,0.180166666666667,0.595266666666667,64.475,46.215,43.9,3.472,-1.08503333333333,-0.1059,0.198866666666667,-141.215,49.3905,134.2685,628.243,1,1,1,1
24-May-2018 12:48:00,240,0.9179,-0.022025,0.423175,61.975,12.955,33.835,10.073,-0.9307,0.131,-0.4507,12.13,0.732,6.565,99.644,0.7649,0.180166666666667,0.595266666666667,64.475,46.215,43.9,3.472,-1.08503333333333,-0.1059,0.198866666666667,-141.215,49.3905,134.2685,628.243,1,1,1,1
24-May-2018 12:48:01,368,0.88638,0.05946,0.41858,85.445,2.373,27.3731666666667,10.073,-0.9132,0.1589,-0.457666666666667,20.8783333333333,-7.98866666666667,9.71533333333333,99.644,0.821125,0.337475,0.4346,62.0675,25.62275,25.835,4.63166666666667,-0.931766666666667,-0.0868,0.2543,-93.9972,13.0486,13.0854,601.409,1,1,1,1
24-May-2018 12:48:01,368,0.88638,0.05946,0.41858,85.445,2.373,27.3731666666667,10.073,-0.9132,0.1589,-0.457666666666667,20.8783333333333,-7.98866666666667,9.71533333333333,99.644,0.821125,0.337475,0.4346,62.0675,25.62275,25.835,4.63166666666667,-0.931766666666667,-0.0868,0.2543,-93.9972,13.0486,13.0854,601.409,1,1,1,1
24-May-2018 12:48:01,368,0.88638,0.05946,0.41858,85.445,2.373,27.3731666666667,10.073,-0.9132,0.1589,-0.457666666666667,20.8783333333333,-7.98866666666667,9.71533333333333,99.644,0.821125,0.337475,0.4346,62.0675,25.62275,25.835,4.63166666666667,-0.931766666666667,-0.0868,0.2543,-93.9972,13.0486,13.0854,601.409,1,1,1,1
24-May-2018 12:48:01,368,0.88638,0.05946,0.41858,85.445,2.373,27.3731666666667,10.073,-0.9132,0.1589,-0.457666666666667,20.8783333333333,-7.98866666666667,9.71533333333333,99.644,0.821125,0.337475,0.4346,62.0675,25.62275,25.835,4.63166666666667,-0.931766666666667,-0.0868,0.2543,-93.9972,13.0486,13.0854,601.409,1,1,1,1
24-May-2018 12:48:02,389.5,0.88521,-0.03787,0.4355,40.4157142857143,-3.741,26.966,10.073,-0.900983333333333,0.218116666666667,-0.4403,36.35375,-11.33875,23.47,98.035,0.76825,0.34145,0.5762,41.54,19.115,27.6475,2.7935,-0.924966666666667,-0.0195,0.2812,-43.58975,-6.35675,1.94375,648.0035,1,1,1,1
24-May-2018 12:48:02,389.5,0.88521,-0.03787,0.4355,40.4157142857143,-3.741,26.966,10.073,-0.900983333333333,0.218116666666667,-0.4403,36.35375,-11.33875,23.47,98.035,0.76825,0.34145,0.5762,41.54,19.115,27.6475,2.7935,-0.924966666666667,-0.0195,0.2812,-43.58975,-6.35675,1.94375,648.0035,1,1,1,1
24-May-2018 12:48:02,389.5,0.88521,-0.03787,0.4355,40.4157142857143,-3.741,26.966,10.073,-0.900983333333333,0.218116666666667,-0.4403,36.35375,-11.33875,23.47,98.035,0.76825,0.34145,0.5762,41.54,19.115,27.6475,2.7935,-0.924966666666667,-0.0195,0.2812,-43.58975,-6.35675,1.94375,648.0035,1,1,1,1
24-May-2018 12:48:02,389.5,0.88521,-0.03787,0.4355,40.4157142857143,-3.741,26.966,0,-0.900983333333333,0.218116666666667,-0.4403,36.35375,-11.33875,23.47,98.035,0.76825,0.34145,0.5762,41.54,19.115,27.6475,2.7935,-0.924966666666667,-0.0195,0.2812,-43.58975,-6.35675,1.94375,648.0035,1,1,1,1
24-May-2018 12:48:03,396.857142857143,0.957585714285714,-0.0326142857142857,0.337057142857143,-6.416,2.9514,3.1718,4.83083333333333,-0.925,0.29442,-0.431,37.508,-5.5333,25.472,98.035,0.85196,0.36282,0.53906,-7.946,-7.426,-15.296,2.76383333333333,-1.02172857142857,-0.0764142857142857,0.374228571428571,23.3414,-21.5002,-11.927,756.6555,1,0,1,1
24-May-2018 12:48:03,396.857142857143,0.957585714285714,-0.0326142857142857,0.337057142857143,-6.416,2.9514,3.1718,4.83083333333333,-0.925,0.29442,-0.431,37.508,-5.5333,25.472,98.035,0.85196,0.36282,0.53906,-7.946,-7.426,-15.296,2.76383333333333,-1.02172857142857,-0.0764142857142857,0.374228571428571,23.3414,-21.5002,-11.927,756.6555,1,0,1,1
24-May-2018 12:48:03,396.857142857143,0.957585714285714,-0.0326142857142857,0.337057142857143,-6.416,2.9514,3.1718,4.83083333333333,-0.925,0.29442,-0.431,37.508,-5.5333,25.472,98.035,0.85196,0.36282,0.53906,-7.946,-7.426,-15.296,2.76383333333333,-1.02172857142857,-0.0764142857142857,0.374228571428571,23.3414,-21.5002,-11.927,756.6555,1,0,1,1
24-May-2018 12:48:03,396.857142857143,0.957585714285714,-0.0326142857142857,0.337057142857143,-6.416,2.9514,3.1718,4.83083333333333,-0.925,0.29442,-0.431,37.508,-5.5333,25.472,98.035,0.85196,0.36282,0.53906,-7.946,-7.426,-15.296,2.76383333333333,-1.02172857142857,-0.0764142857142857,0.374228571428571,23.3414,-21.5002,-11.927,756.6555,1,0,1,1
24-May-2018 12:48:04,231.3,0.85825,0.0300333333333333,0.457566666666667,-33.8171428571429,-0.319285714285714,-14.5484285714286,4.688,-0.93604,0.14548,-0.39378,2.99075,15.2035,-2.4915,87.3095,0.784777777777778,0.280188888888889,0.527944444444445,-18.538,3.992,-11.0882,2.7045,-0.97548,-0.09506,0.28002,50.1152222222222,-24.9457777777778,-42.8501111111111,588.626,1,1,1,1
24-May-2018 12:48:04,231.3,0.85825,0.0300333333333333,0.457566666666667,-33.8171428571429,-0.319285714285714,-14.5484285714286,4.688,-0.93604,0.14548,-0.39378,2.99075,15.2035,-2.4915,87.3095,0.784777777777778,0.280188888888889,0.527944444444445,-18.538,3.992,-11.0882,2.7045,-0.97548,-0.09506,0.28002,50.1152222222222,-24.9457777777778,-42.8501111111111,588.626,1,1,1,1
24-May-2018 12:48:04,231.3,0.85825,0.0300333333333333,0.457566666666667,-33.8171428571429,-0.319285714285714,-14.5484285714286,4.688,-0.93604,0.14548,-0.39378,2.99075,15.2035,-2.4915,87.3095,0.784777777777778,0.280188888888889,0.527944444444445,-18.538,3.992,-11.0882,2.7045,-0.97548,-0.09506,0.28002,50.1152222222222,-24.9457777777778,-42.8501111111111,588.626,1,1,1,1
24-May-2018 12:48:04,231.3,0.85825,0.0300333333333333,0.457566666666667,-33.8171428571429,-0.319285714285714,-14.5484285714286,4.688,-0.93604,0.14548,-0.39378,2.99075,15.2035,-2.4915,87.3095,0.784777777777778,0.280188888888889,0.527944444444445,-18.538,3.992,-11.0882,2.7045,-0.97548,-0.09506,0.28002,50.1152222222222,-24.9457777777778,-42.8501111111111,588.626,1,1,1,1
24-May-2018 12:48:05,110.444444444444,0.923283333333333,-0.0480833333333333,0.41505,2.20166666666667,-0.719833333333333,0.944166666666667,5.537,-0.9528,-0.00887499999999999,-0.36845,-18.2384444444444,7.45066666666667,-55.9,76.584,0.88285,0.344825,0.4094,63.1266666666667,9.529,30.36,3.00366666666667,-0.90688,-0.04048,0.30714,-17.9514,4.5732,8.0244,616.982,1,1,1,1
24-May-2018 12:48:05,110.444444444444,0.923283333333333,-0.0480833333333333,0.41505,2.20166666666667,-0.719833333333333,0.944166666666667,5.537,-0.9528,-0.00887499999999999,-0.36845,-18.2384444444444,7.45066666666667,-55.9,76.584,0.88285,0.344825,0.4094,63.1266666666667,9.529,30.36,3.00366666666667,-0.90688,-0.04048,0.30714,-17.9514,4.5732,8.0244,616.982,1,1,1,1
24-May-2018 12:48:05,110.444444444444,0.923283333333333,-0.0480833333333333,0.41505,2.20166666666667,-0.719833333333333,0.944166666666667,5.537,-0.9528,-0.00887499999999999,-0.36845,-18.2384444444444,7.45066666666667,-55.9,76.584,0.88285,0.344825,0.4094,63.1266666666667,9.529,30.36,3.00366666666667,-0.90688,-0.04048,0.30714,-17.9514,4.5732,8.0244,616.982,1,1,1,1
24-May-2018 12:48:05,110.444444444444,0.923283333333333,-0.0480833333333333,0.41505,2.20166666666667,-0.719833333333333,0.944166666666667,5.537,-0.9528,-0.00887499999999999,-0.36845,-18.2384444444444,7.45066666666667,-55.9,76.584,0.88285,0.344825,0.4094,63.1266666666667,9.529,30.36,3.00366666666667,-0.90688,-0.04048,0.30714,-17.9514,4.5732,8.0244,616.982,1,1,1,1
24-May-2018 12:48:06,298.2,0.887557142857143,-0.0307,0.421942857142857,49.8742857142857,-5.63142857142857,23.7247142857143,6.08933333333333,-0.907175,-0.300425,-0.447825,6.11314285714286,22.5071428571429,-53.5714285714286,80.1266666666667,0.84685,0.287275,0.48985,57.9228571428571,32.56,37.88,2.115,-0.944316666666667,-0.0541166666666667,0.261,-70.8375,12.02725,33.993875,707.7385,1,1,1,1
24-May-2018 12:48:06,298.2,0.887557142857143,-0.0307,0.421942857142857,49.8742857142857,-5.63142857142857,23.7247142857143,6.08933333333333,-0.907175,-0.300425,-0.447825,6.11314285714286,22.5071428571429,-53.5714285714286,80.1266666666667,0.84685,0.287275,0.48985,57.9228571428571,32.56,37.88,2.115,-0.944316666666667,-0.0541166666666667,0.261,-70.8375,12.02725,33.993875,707.7385,1,1,1,1
24-May-2018 12:48:06,298.2,0.887557142857143,-0.0307,0.421942857142857,49.8742857142857,-5.63142857142857,23.7247142857143,6.08933333333333,-0.907175,-0.300425,-0.447825,6.11314285714286,22.5071428571429,-53.5714285714286,80.1266666666667,0.84685,0.287275,0.48985,57.9228571428571,32.56,37.88,2.115,-0.944316666666667,-0.0541166666666667,0.261,-70.8375,12.02725,33.993875,707.7385,1,1,1,1
24-May-2018 12:48:06,298.2,0.887557142857143,-0.0307,0.421942857142857,49.8742857142857,-5.63142857142857,23.7247142857143,6.08933333333333,-0.907175,-0.300425,-0.447825,6.11314285714286,22.5071428571429,-53.5714285714286,80.1266666666667,0.84685,0.287275,0.48985,57.9228571428571,32.56,37.88,2.115,-0.944316666666667,-0.0541166666666667,0.261,-70.8375,12.02725,33.993875,707.7385,1,1,1,1
24-May-2018 12:48:07,76.2857142857143,0.851828571428571,0.0240714285714286,0.439085714285714,59.55,-5.70966666666667,23.6863333333333,6.07025,-0.8526,-0.345825,-0.470925,-22.9344444444444,2.99555555555556,-8.84811111111111,87.212,0.85635,0.270425,0.4156,54.2133333333333,10.6701666666667,19.6926666666667,3.26666666666667,-0.95722,-0.1009,0.2026,-80.9941111111111,-12.7236666666667,27.08,807.503666666667,1,1,1,1
24-May-2018 12:48:07,76.2857142857143,0.851828571428571,0.0240714285714286,0.439085714285714,59.55,-5.70966666666667,23.6863333333333,6.07025,-0.8526,-0.345825,-0.470925,-22.9344444444444,2.99555555555556,-8.84811111111111,87.212,0.85635,0.270425,0.4156,54.2133333333333,10.6701666666667,19.6926666666667,3.26666666666667,-0.95722,-0.1009,0.2026,-80.9941111111111,-12.7236666666667,27.08,807.503666666667,1,1,1,1
24-May-2018 12:48:07,76.2857142857143,0.851828571428571,0.0240714285714286,0.439085714285714,59.55,-5.70966666666667,23.6863333333333,6.07025,-0.8526,-0.345825,-0.470925,-22.9344444444444,2.99555555555556,-8.84811111111111,87.212,0.85635,0.270425,0.4156,54.2133333333333,10.6701666666667,19.6926666666667,3.26666666666667,-0.95722,-0.1009,0.2026,-80.9941111111111,-12.7236666666667,27.08,807.503666666667,1,1,1,1
24-May-2018 12:48:07,76.2857142857143,0.851828571428571,0.0240714285714286,0.439085714285714,59.55,-5.70966666666667,23.6863333333333,6.07025,-0.8526,-0.345825,-0.470925,-22.9344444444444,2.99555555555556,-8.84811111111111,87.212,0.85635,0.270425,0.4156,54.2133333333333,10.6701666666667,19.6926666666667,3.26666666666667,-0.95722,-0.1009,0.2026,-80.9941111111111,-12.7236666666667,27.08,807.503666666667,1,1,1,1
24-May-2018 12:48:08,103.125,0.893457142857143,0.0451,0.4307,71.2171428571429,-1.39057142857143,15.1267142857143,6.77266666666667,-0.82736,-0.36968,-0.4771,-30.48875,-4.803875,-4.287625,87.212,0.841866666666667,0.307666666666667,0.5392,28.5,-0.569999999999999,19.2675,7.223,-0.9294,-0.104333333333333,0.276433333333333,-28.1403333333333,7.40833333333333,1.18883333333333,632.151666666667,1,1,1,1
24-May-2018 12:48:08,103.125,0.893457142857143,0.0451,0.4307,71.2171428571429,-1.39057142857143,15.1267142857143,6.77266666666667,-0.82736,-0.36968,-0.4771,-30.48875,-4.803875,-4.287625,87.212,0.841866666666667,0.307666666666667,0.5392,28.5,-0.569999999999999,19.2675,7.223,-0.9294,-0.104333333333333,0.276433333333333,-28.1403333333333,7.40833333333333,1.18883333333333,632.151666666667,1,1,1,1
24-May-2018 12:48:08,103.125,0.893457142857143,0.0451,0.4307,71.2171428571429,-1.39057142857143,15.1267142857143,6.77266666666667,-0.82736,-0.36968,-0.4771,-30.48875,-4.803875,-4.287625,87.212,0.841866666666667,0.307666666666667,0.5392,28.5,-0.569999999999999,19.2675,7.223,-0.9294,-0.104333333333333,0.276433333333333,-28.1403333333333,7.40833333333333,1.18883333333333,632.151666666667,1,1,1,1
24-May-2018 12:48:08,103.125,0.893457142857143,0.0451,0.4307,71.2171428571429,-1.39057142857143,15.1267142857143,6.77266666666667,-0.82736,-0.36968,-0.4771,-30.48875,-4.803875,-4.287625,87.212,0.841866666666667,0.307666666666667,0.5392,28.5,-0.569999999999999,19.2675,7.223,-0.9294,-0.104333333333333,0.276433333333333,-28.1403333333333,7.40833333333333,1.18883333333333,632.151666666667,1,1,1,1
24-May-2018 12:48:09,-962.727272727273,0.879633333333333,-0.0613777777777778,0.392511111111111,2.626625,-3.199625,-5.50575,6.933,-0.806,-0.353125,-0.486425,-22.191,-5.7648,19.002,89.8935,0.824366666666667,0.326266666666667,0.5492,-16.1,-21.3175,-9.84625,7.4215,-0.847833333333333,-0.0726333333333333,0.3199,26.626,16.687,11.4026666666667,616.6035,1,1,1,1
24-May-2018 12:48:09,-962.727272727273,0.879633333333333,-0.0613777777777778,0.392511111111111,2.626625,-3.199625,-5.50575,6.933,-0.806,-0.353125,-0.486425,-22.191,-5.7648,19.002,89.8935,0.824366666666667,0.326266666666667,0.5492,-16.1,-21.3175,-9.84625,7.4215,-0.847833333333333,-0.0726333333333333,0.3199,26.626,16.687,11.4026666666667,616.6035,1,1,1,1
24-May-2018 12:48:09,-962.727272727273,0.879633333333333,-0.0613777777777778,0.392511111111111,2.626625,-3.199625,-5.50575,6.933,-0.806,-0.353125,-0.486425,-22.191,-5.7648,19.002,89.8935,0.824366666666667,0.326266666666667,0.5492,-16.1,-21.3175,-9.84625,7.4215,-0.847833333333333,-0.0726333333333333,0.3199,26.626,16.687,11.4026666666667,616.6035,1,1,1,1
24-May-2018 12:48:09,-962.727272727273,0.879633333333333,-0.0613777777777778,0.392511111111111,2.626625,-3.199625,-5.50575,6.933,-0.806,-0.353125,-0.486425,-22.191,-5.7648,19.002,89.8935,0.824366666666667,0.326266666666667,0.5492,-16.1,-21.3175,-9.84625,7.4215,-0.847833333333333,-0.0726333333333333,0.3199,26.626,16.687,11.4026666666667,616.6035,1,1,1,1
24-May-2018 12:48:10,-315.6,0.897014285714286,0.00327142857142856,0.382928571428571,-13.2114285714286,-3.07085714285714,6.95428571428571,6.933,-0.928725,0.0234,-0.55585,-61.3166666666667,-37,53.7333333333333,97.938,0.732375,0.24915,0.56115,8.75033333333333,8.98333333333333,1.67333333333333,7.57233333333333,-1.04555,-0.068125,0.311975,44.7715,-39.54275,-53.551,731.07,1,1,0,0
24-May-2018 12:48:10,-315.6,0.897014285714286,0.00327142857142856,0.382928571428571,-13.2114285714286,-3.07085714285714,6.95428571428571,6.933,-0.928725,0.0234,-0.55585,-61.3166666666667,-37,53.7333333333333,97.938,0.732375,0.24915,0.56115,8.75033333333333,8.98333333333333,1.67333333333333,7.57233333333333,-1.04555,-0.068125,0.311975,44.7715,-39.54275,-53.551,731.07,1,1,0,0
24-May-2018 12:48:10,-315.6,0.897014285714286,0.00327142857142856,0.382928571428571,-13.2114285714286,-3.07085714285714,6.95428571428571,6.933,-0.928725,0.0234,-0.55585,-61.3166666666667,-37,53.7333333333333,97.938,0.732375,0.24915,0.56115,8.75033333333333,8.98333333333333,1.67333333333333,7.57233333333333,-1.04555,-0.068125,0.311975,44.7715,-39.54275,-53.551,731.07,1,1,0,0
24-May-2018 12:48:10,-315.6,0.897014285714286,0.00327142857142856,0.382928571428571,-13.2114285714286,-3.07085714285714,6.95428571428571,6.933,-0.928725,0.0234,-0.55585,-61.3166666666667,-37,53.7333333333333,97.938,0.732375,0.24915,0.56115,8.75033333333333,8.98333333333333,1.67333333333333,7.57233333333333,-1.04555,-0.068125,0.311975,44.7715,-39.54275,-53.551,731.07,1,1,0,0
24-May-2018 12:48:11,177.2,0.9263,-0.0090875,0.3829625,16.2086,0.236,5.7412,6.933,-0.8843,0.34902,-0.50116,-44.025,4.687625,46.68,97.938,0.84184,0.34548,0.4854,16.593,-8.00383333333333,1.131,8.784,0.628828571428571,-0.404,0.404728571428571,36.9146,-34.6216,-151.753,666.326,1,1,1,1
24-May-2018 12:48:11,177.2,0.9263,-0.0090875,0.3829625,16.2086,0.236,5.7412,6.933,-0.8843,0.34902,-0.50116,-44.025,4.687625,46.68,97.938,0.84184,0.34548,0.4854,16.593,-8.00383333333333,1.131,8.784,0.628828571428571,-0.404,0.404728571428571,36.9146,-34.6216,-151.753,666.326,1,1,1,1
24-May-2018 12:48:11,177.2,0.9263,-0.0090875,0.3829625,16.2086,0.236,5.7412,0,-0.8843,0.34902,-0.50116,-44.025,4.687625,46.68,97.938,0.84184,0.34548,0.4854,16.593,-8.00383333333333,1.131,8.784,0.628828571428571,-0.404,0.404728571428571,36.9146,-34.6216,-151.753,666.326,1,1,1,1
24-May-2018 12:48:11,177.2,0.9263,-0.0090875,0.3829625,16.2086,0.236,5.7412,0,-0.8843,0.34902,-0.50116,-44.025,4.687625,46.68,97.938,0.84184,0.34548,0.4854,16.593,-8.00383333333333,1.131,8.784,0.628828571428571,-0.404,0.404728571428571,36.9146,-34.6216,-151.753,666.326,1,1,1,1
24-May-2018 12:48:12,190.2,0.882885714285714,-0.0733142857142857,0.426457142857143,-20.4031428571429,-1.721,-6.00357142857143,7.863,-0.7884,0.4262,-0.4056,-29.1714285714286,8.17857142857143,16.5472857142857,102.16,0.804785714285714,0.333614285714286,0.567771428571429,-69.9,-22.575,-49.7,5.25,0.22262,-0.49458,0.3199,-29.6342857142857,61.4198571428571,23.9198571428571,1072.975,1,1,1,1
24-May-2018 12:48:12,190.2,0.882885714285714,-0.0733142857142857,0.426457142857143,-20.4031428571429,-1.721,-6.00357142857143,7.863,-0.7884,0.4262,-0.4056,-29.1714285714286,8.17857142857143,16.5472857142857,102.16,0.804785714285714,0.333614285714286,0.567771428571429,-69.9,-22.575,-49.7,5.25,0.22262,-0.49458,0.3199,-29.6342857142857,61.4198571428571,23.9198571428571,1072.975,1,1,1,1
24-May-2018 12:48:12,190.2,0.882885714285714,-0.0733142857142857,0.426457142857143,-20.4031428571429,-1.721,-6.00357142857143,7.863,-0.7884,0.4262,-0.4056,-29.1714285714286,8.17857142857143,16.5472857142857,102.16,0.804785714285714,0.333614285714286,0.567771428571429,-69.9,-22.575,-49.7,5.25,0.22262,-0.49458,0.3199,-29.6342857142857,61.4198571428571,23.9198571428571,1072.975,1,1,1,1
24-May-2018 12:48:12,190.2,0.882885714285714,-0.0733142857142857,0.426457142857143,-20.4031428571429,-1.721,-6.00357142857143,7.863,-0.7884,0.4262,-0.4056,-29.1714285714286,8.17857142857143,16.5472857142857,102.16,0.804785714285714,0.333614285714286,0.567771428571429,-69.9,-22.575,-49.7,5.25,0.22262,-0.49458,0.3199,-29.6342857142857,61.4198571428571,23.9198571428571,1072.975,1,1,1,1
