TIME,HELMET_RAW,BELT_ACC_X,BELT_ACC_Y,BELT_ACC_Z,BELT_ANG_X,BELT_ANG_Y,BELT_ANG_Z,BELT_LUMINOSITY,NECK_ACC_X,NECK_ACC_Y,NECK_ACC_Z,NECK_ANG_X,NECK_ANG_Y,NECK_ANG_Z,NECK_LUMINOSITY,PCKT_ACC_X,PCKT_ACC_Y,PCKT_ACC_Z,PCKT_ANG_X,PCKT_ANG_Y,PCKT_ANG_Z,PCKT_LUMINOSITY,WRST_ACC_X,WRST_ACC_Y,WRST_ACC_Z,WRST_ANG_X,WRST_ANG_Y,WRST_ANG_Z,WRST_LUMINOSITY,IR_1,IR_2,IR_3,IR_4
24-May-2018 12:45:13,-83.5,0.883911111111111,-0.0842111111111111,0.405611111111111,1.85528571428571,0.298142857142857,0.514714285714286,12.609,-0.8559,0.09268,-0.58654,-0.56,0.848222222222222,0.907888888888889,110.581666666667,0.8116,0.303728571428571,0.525385714285714,-0.748833333333333,-0.647166666666667,-0.546666666666667,7.189,-0.93505,-0.170433333333333,0.101766666666667,-3.95666666666667,-0.0406666666666667,-0.0541111111111111,601.8245,1,1,1,1
24-May-2018 12:45:13,-83.5,0.883911111111111,-0.0842111111111111,0.405611111111111,1.85528571428571,0.298142857142857,0.514714285714286,12.609,-0.8559,0.09268,-0.58654,-0.56,0.848222222222222,0.907888888888889,110.581666666667,0.8116,0.303728571428571,0.525385714285714,-0.748833333333333,-0.647166666666667,-0.546666666666667,7.189,-0.93505,-0.170433333333333,0.101766666666667,-3.95666666666667,-0.0406666666666667,-0.0541111111111111,601.8245,1,1,1,1
24-May-2018 12:45:13,-83.5,0.883911111111111,-0.0842111111111111,0.405611111111111,1.85528571428571,0.298142857142857,0.514714285714286,12.609,-0.8559,0.09268,-0.58654,-0.56,0.848222222222222,0.907888888888889,110.581666666667,0.8116,0.303728571428571,0.525385714285714,-0.748833333333333,-0.647166666666667,-0.546666666666667,7.189,-0.93505,-0.170433333333333,0.101766666666667,-3.95666666666667,-0.0406666666666667,-0.0541111111111111,601.8245,1,1,1,1
24-May-2018 12:45:13,-83.5,0.883911111111111,-0.0842111111111111,0.405611111111111,1.85528571428571,0.298142857142857,0.514714285714286,12.609,-0.8559,0.09268,-0.58654,-0.56,0.848222222222222,0.907888888888889,110.581666666667,0.8116,0.303728571428571,0.525385714285714,-0.748833333333333,-0.647166666666667,-0.546666666666667,7.189,-0.93505,-0.170433333333333,0.101766666666667,-3.95666666666667,-0.0406666666666667,-0.0541111111111111,601.8245,1,1,1,1
24-May-2018 12:45:14,-272.777777777778,0.888814285714286,-0.0845714285714286,0.408228571428571,0.2445,0.1237,0.2266,12.609,-0.858516666666667,0.09835,-0.58115,-0.8895,-1.61325,-0.196125,110.777,0.81704,0.29694,0.5332,0.1225,-0.88,-0.21,7.2014,-0.94092,-0.16878,0.10542,3.48566666666667,0.558833333333333,1.4025,582.404666666667,1,1,1,1
24-May-2018 12:45:14,-272.777777777778,0.888814285714286,-0.0845714285714286,0.408228571428571,0.2445,0.1237,0.2266,12.609,-0.858516666666667,0.09835,-0.58115,-0.8895,-1.61325,-0.196125,110.777,0.81704,0.29694,0.5332,0.1225,-0.88,-0.21,7.2014,-0.94092,-0.16878,0.10542,3.48566666666667,0.558833333333333,1.4025,582.404666666667,1,1,1,1
24-May-2018 12:45:14,-272.777777777778,0.888814285714286,-0.0845714285714286,0.408228571428571,0.2445,0.1237,0.2266,12.609,-0.858516666666667,0.09835,-0.58115,-0.8895,-1.61325,-0.196125,110.777,0.81704,0.29694,0.5332,0.1225,-0.88,-0.21,7.2014,-0.94092,-0.16878,0.10542,3.48566666666667,0.558833333333333,1.4025,582.404666666667,1,1,1,1
24-May-2018 12:45:14,-272.777777777778,0.888814285714286,-0.0845714285714286,0.408228571428571,0.2445,0.1237,0.2266,12.609,-0.858516666666667,0.09835,-0.58115,-0.8895,-1.61325,-0.196125,110.777,0.81704,0.29694,0.5332,0.1225,-0.88,-0.21,7.2014,-0.94092,-0.16878,0.10542,3.48566666666667,0.558833333333333,1.4025,582.404666666667,1,1,1,1
24-May-2018 12:45:15,176.5,0.8883625,-0.086675,0.4054125,1.24744444444444,0.171222222222222,0.352666666666667,12.609,-0.86162,0.09456,-0.5788,1.37275,0.0698750000000001,-1.2775,110.777,0.81168,0.29978,0.5263,-0.5594,-0.9492,-1.472,7.14725,-0.93585,-0.161066666666667,0.1054,0.373375,0.73175,-0.50325,582.404666666667,1,1,1,1
24-May-2018 12:45:15,176.5,0.8883625,-0.086675,0.4054125,1.24744444444444,0.171222222222222,0.352666666666667,12.609,-0.86162,0.09456,-0.5788,1.37275,0.0698750000000001,-1.2775,110.777,0.81168,0.29978,0.5263,-0.5594,-0.9492,-1.472,7.14725,-0.93585,-0.161066666666667,0.1054,0.373375,0.73175,-0.50325,582.404666666667,1,1,1,1
24-May-2018 12:45:15,176.5,0.8883625,-0.086675,0.4054125,1.24744444444444,0.171222222222222,0.352666666666667,12.609,-0.86162,0.09456,-0.5788,1.37275,0.0698750000000001,-1.2775,110.777,0.81168,0.29978,0.5263,-0.5594,-0.9492,-1.472,7.14725,-0.93585,-0.161066666666667,0.1054,0.373375,0.73175,-0.50325,582.404666666667,1,1,1,1
24-May-2018 12:45:15,176.5,0.8883625,-0.086675,0.4054125,1.24744444444444,0.171222222222222,0.352666666666667,12.609,-0.86162,0.09456,-0.5788,1.37275,0.0698750000000001,-1.2775,110.777,0.81168,0.29978,0.5263,-0.5594,-0.9492,-1.472,7.14725,-0.93585,-0.161066666666667,0.1054,0.373375,0.73175,-0.50325,0,1,1,1,1
24-May-2018 12:45:16,371.333333333333,0.88567,-0.04785,0.38379,7.71642857142857,-3.32642857142857,-6.45285714285714,12.609,-0.86048,0.0899,-0.57632,0.674125,-0.402,1.701625,111.944,0.821675,0.2191,0.47075,-1.51966666666667,-4.15,0.5195,6.98166666666667,-0.89948,-0.14208,0.14332,-21.7562,-10.1342,15.0488,591.660666666667,1,1,1,1
24-May-2018 12:45:16,371.333333333333,0.88567,-0.04785,0.38379,7.71642857142857,-3.32642857142857,-6.45285714285714,12.609,-0.86048,0.0899,-0.57632,0.674125,-0.402,1.701625,111.944,0.821675,0.2191,0.47075,-1.51966666666667,-4.15,0.5195,6.98166666666667,-0.89948,-0.14208,0.14332,-21.7562,-10.1342,15.0488,591.660666666667,1,1,1,1
24-May-2018 12:45:16,371.333333333333,0.88567,-0.04785,0.38379,7.71642857142857,-3.32642857142857,-6.45285714285714,12.609,-0.86048,0.0899,-0.57632,0.674125,-0.402,1.701625,111.944,0.821675,0.2191,0.47075,-1.51966666666667,-4.15,0.5195,6.98166666666667,-0.89948,-0.14208,0.14332,-21.7562,-10.1342,15.0488,591.660666666667,1,1,1,1
24-May-2018 12:45:16,371.333333333333,0.88567,-0.04785,0.38379,7.71642857142857,-3.32642857142857,-6.45285714285714,12.609,-0.86048,0.0899,-0.57632,0.674125,-0.402,1.701625,111.944,0.821675,0.2191,0.47075,-1.51966666666667,-4.15,0.5195,6.98166666666667,-0.89948,-0.14208,0.14332,-21.7562,-10.1342,15.0488,591.660666666667,1,1,1,1
24-May-2018 12:45:17,391.9,0.88875,0.04395,0.53065,11.58,-27.9,-16,7.555,-0.8582,0.1187,-0.5722,-0.669,0.276,5.8535,111.944,0.946,0.351,0.4179,-11.85,-12.75,-4.14,7.285,-0.9561,-0.1049,0.3181,4.39033333333333,24.1663333333333,32.175,591.660666666667,1,1,1,1
24-May-2018 12:45:17,391.9,0.88875,0.04395,0.53065,11.58,-27.9,-16,7.555,-0.8582,0.1187,-0.5722,-0.669,0.276,5.8535,111.944,0.946,0.351,0.4179,-11.85,-12.75,-4.14,7.285,-0.9561,-0.1049,0.3181,4.39033333333333,24.1663333333333,32.175,591.660666666667,1,1,1,1
24-May-2018 12:45:17,391.9,0.88875,0.04395,0.53065,11.58,-27.9,-16,7.555,-0.8582,0.1187,-0.5722,-0.669,0.276,5.8535,111.944,0.946,0.351,0.4179,-11.85,-12.75,-4.14,7.285,-0.9561,-0.1049,0.3181,4.39033333333333,24.1663333333333,32.175,591.660666666667,1,1,1,1
24-May-2018 12:45:17,391.9,0.88875,0.04395,0.53065,11.58,-27.9,-16,7.555,-0.8582,0.1187,-0.5722,-0.669,0.276,5.8535,111.944,0.946,0.351,0.4179,-11.85,-12.75,-4.14,7.285,-0.9561,-0.1049,0.3181,4.39033333333333,24.1663333333333,32.175,0,1,1,1,1
24-May-2018 12:45:18,343.333333333333,0.88994,-0.09558,0.3973,-30.5,5.81233333333333,4.93766666666667,8.24057142857143,-0.85814,0.1181,-0.57772,2.38488888888889,0.0762222222222222,3.164,111.944,0.814333333333333,0.372816666666667,0.533916666666667,-19.59275,-7.45375,-11.36925,6.78833333333333,-0.952528571428571,-0.0772428571428572,0.329771428571429,28.4842857142857,-26.1587142857143,-27.2214285714286,653.8955,1,1,1,1
24-May-2018 12:45:18,343.333333333333,0.88994,-0.09558,0.3973,-30.5,5.81233333333333,4.93766666666667,8.24057142857143,-0.85814,0.1181,-0.57772,2.38488888888889,0.0762222222222222,3.164,111.944,0.814333333333333,0.372816666666667,0.533916666666667,-19.59275,-7.45375,-11.36925,6.78833333333333,-0.952528571428571,-0.0772428571428572,0.329771428571429,28.4842857142857,-26.1587142857143,-27.2214285714286,653.8955,1,1,1,1
24-May-2018 12:45:18,343.333333333333,0.88994,-0.09558,0.3973,-30.5,5.81233333333333,4.93766666666667,8.24057142857143,-0.85814,0.1181,-0.57772,2.38488888888889,0.0762222222222222,3.164,111.944,0.814333333333333,0.372816666666667,0.533916666666667,-19.59275,-7.45375,-11.36925,6.78833333333333,-0.952528571428571,-0.0772428571428572,0.329771428571429,28.4842857142857,-26.1587142857143,-27.2214285714286,653.8955,1,1,1,1
24-May-2018 12:45:18,343.333333333333,0.88994,-0.09558,0.3973,-30.5,5.81233333333333,4.93766666666667,8.24057142857143,-0.85814,0.1181,-0.57772,2.38488888888889,0.0762222222222222,3.164,111.944,0.814333333333333,0.372816666666667,0.533916666666667,-19.59275,-7.45375,-11.36925,6.78833333333333,-0.952528571428571,-0.0772428571428572,0.329771428571429,28.4842857142857,-26.1587142857143,-27.2214285714286,653.8955,1,1,1,1
24-May-2018 12:45:19,129,0.871542857142857,-0.0136,0.434642857142857,12.232375,2.075375,9.355125,10.192,-0.86368,0.11104,-0.57212,2.54066666666667,-3.02422222222222,0.794888888888889,111.865,0.84096,0.3528,0.51738,27.142,18.928,16.2308,6.7665,-0.944371428571429,-0.0524714285714286,0.259328571428571,-10.4573333333333,-5.92466666666667,5.30483333333333,674.53,1,0,1,1
24-May-2018 12:45:19,129,0.871542857142857,-0.0136,0.434642857142857,12.232375,2.075375,9.355125,10.192,-0.86368,0.11104,-0.57212,2.54066666666667,-3.02422222222222,0.794888888888889,111.865,0.84096,0.3528,0.51738,27.142,18.928,16.2308,6.7665,-0.944371428571429,-0.0524714285714286,0.259328571428571,-10.4573333333333,-5.92466666666667,5.30483333333333,674.53,1,0,1,1
24-May-2018 12:45:19,129,0.871542857142857,-0.0136,0.434642857142857,12.232375,2.075375,9.355125,10.192,-0.86368,0.11104,-0.57212,2.54066666666667,-3.02422222222222,0.794888888888889,111.865,0.84096,0.3528,0.51738,27.142,18.928,16.2308,6.7665,-0.944371428571429,-0.0524714285714286,0.259328571428571,-10.4573333333333,-5.92466666666667,5.30483333333333,674.53,1,0,1,1
24-May-2018 12:45:19,129,0.871542857142857,-0.0136,0.434642857142857,12.232375,2.075375,9.355125,10.192,-0.86368,0.11104,-0.57212,2.54066666666667,-3.02422222222222,0.794888888888889,111.865,0.84096,0.3528,0.51738,27.142,18.928,16.2308,6.7665,-0.944371428571429,-0.0524714285714286,0.259328571428571,-10.4573333333333,-5.92466666666667,5.30483333333333,674.53,1,0,1,1
24-May-2018 12:45:20,322.75,0.862633333333333,0.0465666666666667,0.428483333333333,44.6844444444444,-3.293,14.0837777777778,11.596,-0.869375,0.09765,-0.564275,0.326222222222222,-4.20333333333333,-2.99,112.21,0.937625,0.33595,0.469425,21.9033333333333,-8.25333333333333,25.32,8.38633333333333,-0.875171428571428,-0.0373,0.284642857142857,-36.2095,-5.55883333333334,-3.8925,531.307,1,1,1,1
24-May-2018 12:45:20,322.75,0.862633333333333,0.0465666666666667,0.428483333333333,44.6844444444444,-3.293,14.0837777777778,11.596,-0.869375,0.09765,-0.564275,0.326222222222222,-4.20333333333333,-2.99,112.21,0.937625,0.33595,0.469425,21.9033333333333,-8.25333333333333,25.32,8.38633333333333,-0.875171428571428,-0.0373,0.284642857142857,-36.2095,-5.55883333333334,-3.8925,531.307,1,1,1,1
24-May-2018 12:45:20,322.75,0.862633333333333,0.0465666666666667,0.428483333333333,44.6844444444444,-3.293,14.0837777777778,11.596,-0.869375,0.09765,-0.564275,0.326222222222222,-4.20333333333333,-2.99,112.21,0.937625,0.33595,0.469425,21.9033333333333,-8.25333333333333,25.32,8.38633333333333,-0.875171428571428,-0.0373,0.284642857142857,-36.2095,-5.55883333333334,-3.8925,531.307,1,1,1,1
24-May-2018 12:45:20,322.75,0.862633333333333,0.0465666666666667,0.428483333333333,44.6844444444444,-3.293,14.0837777777778,11.596,-0.869375,0.09765,-0.564275,0.326222222222222,-4.20333333333333,-2.99,112.21,0.937625,0.33595,0.469425,21.9033333333333,-8.25333333333333,25.32,8.38633333333333,-0.875171428571428,-0.0373,0.284642857142857,-36.2095,-5.55883333333334,-3.8925,531.307,1,1,1,1
24-May-2018 12:45:21,351,0.896185714285714,0.0519571428571429,0.410857142857143,72.31,0.926,22.5405714285714,5.90575,-0.884485714285714,0.0844,-0.5386,1.73342857142857,-0.0505714285714284,-0.042,113.407,0.7504,0.283175,0.5266,47.704,13.014,21.7538,6.152,-0.9683,-0.102016666666667,0.25125,-55.594,7.8355,19.855125,576.1795,0,1,1,1
24-May-2018 12:45:21,351,0.896185714285714,0.0519571428571429,0.410857142857143,72.31,0.926,22.5405714285714,5.90575,-0.884485714285714,0.0844,-0.5386,1.73342857142857,-0.0505714285714284,-0.042,113.407,0.7504,0.283175,0.5266,47.704,13.014,21.7538,6.152,-0.9683,-0.102016666666667,0.25125,-55.594,7.8355,19.855125,576.1795,0,1,1,1
24-May-2018 12:45:21,351,0.896185714285714,0.0519571428571429,0.410857142857143,72.31,0.926,22.5405714285714,5.90575,-0.884485714285714,0.0844,-0.5386,1.73342857142857,-0.0505714285714284,-0.042,113.407,0.7504,0.283175,0.5266,47.704,13.014,21.7538,6.152,-0.9683,-0.102016666666667,0.25125,-55.594,7.8355,19.855125,576.1795,0,1,1,1
24-May-2018 12:45:21,351,0.896185714285714,0.0519571428571429,0.410857142857143,72.31,0.926,22.5405714285714,5.90575,-0.884485714285714,0.0844,-0.5386,1.73342857142857,-0.0505714285714284,-0.042,113.407,0.7504,0.283175,0.5266,47.704,13.014,21.7538,6.152,-0.9683,-0.102016666666667,0.25125,-55.594,7.8355,19.855125,576.1795,0,1,1,1
24-May-2018 12:45:22,304.444444444444,0.859633333333333,-0.0301166666666667,0.45745,66.1742857142857,-7.49571428571429,22.7547142857143,5.317,-0.88322,0.07748,-0.5383,1.2705,-0.597166666666667,-0.625833333333333,113.8256,0.85935,0.282225,0.503275,25.5266666666667,17.0496666666667,18.15,6.7815,-0.93005,-0.127725,0.17695,-61.019,8.765,57.058,630.776,1,1,1,1
24-May-2018 12:45:22,304.444444444444,0.859633333333333,-0.0301166666666667,0.45745,66.1742857142857,-7.49571428571429,22.7547142857143,5.317,-0.88322,0.07748,-0.5383,1.2705,-0.597166666666667,-0.625833333333333,113.8256,0.85935,0.282225,0.503275,25.5266666666667,17.0496666666667,18.15,6.7815,-0.93005,-0.127725,0.17695,-61.019,8.765,57.058,630.776,1,1,1,1
24-May-2018 12:45:22,304.444444444444,0.859633333333333,-0.0301166666666667,0.45745,66.1742857142857,-7.49571428571429,22.7547142857143,5.317,-0.88322,0.07748,-0.5383,1.2705,-0.597166666666667,-0.625833333333333,113.8256,0.85935,0.282225,0.503275,25.5266666666667,17.0496666666667,18.15,6.7815,-0.93005,-0.127725,0.17695,-61.019,8.765,57.058,630.776,1,1,1,1
24-May-2018 12:45:22,304.444444444444,0.859633333333333,-0.0301166666666667,0.45745,66.1742857142857,-7.49571428571429,22.7547142857143,5.317,-0.88322,0.07748,-0.5383,1.2705,-0.597166666666667,-0.625833333333333,113.8256,0.85935,0.282225,0.503275,25.5266666666667,17.0496666666667,18.15,6.7815,-0.93005,-0.127725,0.17695,-61.019,8.765,57.058,630.776,1,1,1,1
24-May-2018 12:45:23,239.5,0.8885875,-0.044575,0.341325,-18.835,-0.607166666666667,2.292,5.9605,-0.88736,0.0715,-0.53124,2.378,-4.0515,0.557875,113.796,0.7967,0.2981,0.5605625,11.785,3.1175,7.7775,2.84675,-0.94746,-0.0767,0.27622,9.216,-21.899,-18.92,619.887333333333,1,1,1,1
24-May-2018 12:45:23,239.5,0.8885875,-0.044575,0.341325,-18.835,-0.607166666666667,2.292,5.9605,-0.88736,0.0715,-0.53124,2.378,-4.0515,0.557875,113.796,0.7967,0.2981,0.5605625,11.785,3.1175,7.7775,2.84675,-0.94746,-0.0767,0.27622,9.216,-21.899,-18.92,619.887333333333,1,1,1,1
24-May-2018 12:45:23,239.5,0.8885875,-0.044575,0.341325,-18.835,-0.607166666666667,2.292,5.9605,-0.88736,0.0715,-0.53124,2.378,-4.0515,0.557875,113.796,0.7967,0.2981,0.5605625,11.785,3.1175,7.7775,2.84675,-0.94746,-0.0767,0.27622,9.216,-21.899,-18.92,619.887333333333,1,1,1,1
24-May-2018 12:45:23,239.5,0.8885875,-0.044575,0.341325,-18.835,-0.607166666666667,2.292,5.9605,-0.88736,0.0715,-0.53124,2.378,-4.0515,0.557875,113.796,0.7967,0.2981,0.5605625,11.785,3.1175,7.7775,2.84675,-0.94746,-0.0767,0.27622,9.216,-21.899,-18.92,619.887333333333,1,1,1,1
24-May-2018 12:45:24,183.6,0.8976375,0.0276875,0.4008625,5.29466666666667,2.293,-2.23722222222222,5.9605,-0.891775,0.06365,-0.5238,1.809,-3.62411111111111,-1.2,112.9125,0.8207,0.26952,0.5534,1.65,0.67,-13.375,2.506,-0.90276,-0.0605,0.31076,-18.1405,14.1868333333333,-2.38816666666666,642.2162,1,0,1,1
24-May-2018 12:45:24,183.6,0.8976375,0.0276875,0.4008625,5.29466666666667,2.293,-2.23722222222222,5.9605,-0.891775,0.06365,-0.5238,1.809,-3.62411111111111,-1.2,112.9125,0.8207,0.26952,0.5534,1.65,0.67,-13.375,2.506,-0.90276,-0.0605,0.31076,-18.1405,14.1868333333333,-2.38816666666666,642.2162,1,0,1,1
24-May-2018 12:45:24,183.6,0.8976375,0.0276875,0.4008625,5.29466666666667,2.293,-2.23722222222222,5.9605,-0.891775,0.06365,-0.5238,1.809,-3.62411111111111,-1.2,112.9125,0.8207,0.26952,0.5534,1.65,0.67,-13.375,2.506,-0.90276,-0.0605,0.31076,-18.1405,14.1868333333333,-2.38816666666666,642.2162,1,0,1,1
24-May-2018 12:45:24,183.6,0.8976375,0.0276875,0.4008625,5.29466666666667,2.293,-2.23722222222222,5.9605,-0.891775,0.06365,-0.5238,1.809,-3.62411111111111,-1.2,112.9125,0.8207,0.26952,0.5534,1.65,0.67,-13.375,2.506,-0.90276,-0.0605,0.31076,-18.1405,14.1868333333333,-2.38816666666666,642.2162,1,0,1,1
24-May-2018 12:45:25,120.714285714286,0.8981,-0.031275,0.4270875,35.5593333333333,0.573777777777778,17.0578888888889,5.9605,-0.90026,0.05892,-0.50986,0.366125,-2.579875,-0.172125,112.029,0.78188,0.338,0.49172,17.9,10.228,5.8888,2.98,-0.86912,-0.02266,0.23826,-56.40025,28.064,57.74375,599.719333333333,1,1,1,1
24-May-2018 12:45:25,120.714285714286,0.8981,-0.031275,0.4270875,35.5593333333333,0.573777777777778,17.0578888888889,5.9605,-0.90026,0.05892,-0.50986,0.366125,-2.579875,-0.172125,112.029,0.78188,0.338,0.49172,17.9,10.228,5.8888,2.98,-0.86912,-0.02266,0.23826,-56.40025,28.064,57.74375,599.719333333333,1,1,1,1
24-May-2018 12:45:25,120.714285714286,0.8981,-0.031275,0.4270875,35.5593333333333,0.573777777777778,17.0578888888889,5.9605,-0.90026,0.05892,-0.50986,0.366125,-2.579875,-0.172125,112.029,0.78188,0.338,0.49172,17.9,10.228,5.8888,2.98,-0.86912,-0.02266,0.23826,-56.40025,28.064,57.74375,599.719333333333,1,1,1,1
24-May-2018 12:45:25,120.714285714286,0.8981,-0.031275,0.4270875,35.5593333333333,0.573777777777778,17.0578888888889,5.9605,-0.90026,0.05892,-0.50986,0.366125,-2.579875,-0.172125,112.029,0.78188,0.338,0.49172,17.9,10.228,5.8888,2.98,-0.86912,-0.02266,0.23826,-56.40025,28.064,57.74375,599.719333333333,1,1,1,1
24-May-2018 12:45:26,101,0.905255555555556,0.0485888888888889,0.352322222222222,36.8796666666667,-5.27611111111111,8.30566666666667,5.9605,-0.90188,0.05712,-0.50718,1.023,1.72255555555556,0.217222222222222,111.8885,0.81615,0.32515,0.4112,17.962,-7.356,13.2788,4.183,-0.88275,0.005875,0.30955,-22.3575,-7.71316666666667,12.246,631.444666666667,1,1,1,1
24-May-2018 12:45:26,101,0.905255555555556,0.0485888888888889,0.352322222222222,36.8796666666667,-5.27611111111111,8.30566666666667,5.9605,-0.90188,0.05712,-0.50718,1.023,1.72255555555556,0.217222222222222,111.8885,0.81615,0.32515,0.4112,17.962,-7.356,13.2788,4.183,-0.88275,0.005875,0.30955,-22.3575,-7.71316666666667,12.246,631.444666666667,1,1,1,1
24-May-2018 12:45:26,101,0.905255555555556,0.0485888888888889,0.352322222222222,36.8796666666667,-5.27611111111111,8.30566666666667,5.9605,-0.90188,0.05712,-0.50718,1.023,1.72255555555556,0.217222222222222,111.8885,0.81615,0.32515,0.4112,17.962,-7.356,13.2788,4.183,-0.88275,0.005875,0.30955,-22.3575,-7.71316666666667,12.246,631.444666666667,1,1,1,1
24-May-2018 12:45:26,101,0.905255555555556,0.0485888888888889,0.352322222222222,36.8796666666667,-5.27611111111111,8.30566666666667,5.9605,-0.90188,0.05712,-0.50718,1.023,1.72255555555556,0.217222222222222,111.8885,0.81615,0.32515,0.4112,17.962,-7.356,13.2788,4.183,-0.88275,0.005875,0.30955,-22.3575,-7.71316666666667,12.246,631.444666666667,1,1,1,1
24-May-2018 12:45:27,92.1,0.910966666666667,0.0683666666666667,0.40375,75.7216666666667,7.28616666666667,27.535,6.943,-0.897975,0.05245,-0.513875,1.4329,3.866,-0.0407,111.467,0.90516,0.14244,0.45534,47.306,0.294,26.497,6.95633333333333,-0.9177,-0.07785,0.232133333333333,-107.7048,5.7438,34.1462,756.177,1,1,1,1
24-May-2018 12:45:27,92.1,0.910966666666667,0.0683666666666667,0.40375,75.7216666666667,7.28616666666667,27.535,6.943,-0.897975,0.05245,-0.513875,1.4329,3.866,-0.0407,111.467,0.90516,0.14244,0.45534,47.306,0.294,26.497,6.95633333333333,-0.9177,-0.07785,0.232133333333333,-107.7048,5.7438,34.1462,756.177,1,1,1,1
24-May-2018 12:45:27,92.1,0.910966666666667,0.0683666666666667,0.40375,75.7216666666667,7.28616666666667,27.535,6.943,-0.897975,0.05245,-0.513875,1.4329,3.866,-0.0407,111.467,0.90516,0.14244,0.45534,47.306,0.294,26.497,6.95633333333333,-0.9177,-0.07785,0.232133333333333,-107.7048,5.7438,34.1462,756.177,1,1,1,1
24-May-2018 12:45:27,92.1,0.910966666666667,0.0683666666666667,0.40375,75.7216666666667,7.28616666666667,27.535,6.943,-0.897975,0.05245,-0.513875,1.4329,3.866,-0.0407,111.467,0.90516,0.14244,0.45534,47.306,0.294,26.497,6.95633333333333,-0.9177,-0.07785,0.232133333333333,-107.7048,5.7438,34.1462,756.177,1,1,1,1
24-May-2018 12:45:28,65.1,0.86632,-0.06316,0.4056,23.1252857142857,-3.063,13.4742857142857,8.3416,-0.89332,0.05296,-0.52614,0.6255,3.810875,-0.21,111.467,0.803125,0.272575,0.4555,65.374,35.28,29.18,6.1055,-0.90438,-0.09594,0.29094,-19.2483333333333,4.28833333333333,15.102,683.139,1,1,1,1
24-May-2018 12:45:28,65.1,0.86632,-0.06316,0.4056,23.1252857142857,-3.063,13.4742857142857,8.3416,-0.89332,0.05296,-0.52614,0.6255,3.810875,-0.21,111.467,0.803125,0.272575,0.4555,65.374,35.28,29.18,6.1055,-0.90438,-0.09594,0.29094,-19.2483333333333,4.28833333333333,15.102,683.139,1,1,1,1
24-May-2018 12:45:28,65.1,0.86632,-0.06316,0.4056,23.1252857142857,-3.063,13.4742857142857,8.3416,-0.89332,0.05296,-0.52614,0.6255,3.810875,-0.21,111.467,0.803125,0.272575,0.4555,65.374,35.28,29.18,6.1055,-0.90438,-0.09594,0.29094,-19.2483333333333,4.28833333333333,15.102,683.139,1,1,1,1
24-May-2018 12:45:28,65.1,0.86632,-0.06316,0.4056,23.1252857142857,-3.063,13.4742857142857,8.3416,-0.89332,0.05296,-0.52614,0.6255,3.810875,-0.21,111.467,0.803125,0.272575,0.4555,65.374,35.28,29.18,6.1055,-0.90438,-0.09594,0.29094,-19.2483333333333,4.28833333333333,15.102,683.139,1,1,1,1
24-May-2018 12:45:29,58.4,0.923616666666667,-0.0127833333333333,0.430933333333333,-35.155,0.986166666666667,2.464,9.5352,-0.88988,0.05278,-0.52134,0.5921,-2.8128,-0.885,110.509,0.8416,0.25135,0.438725,0.491999999999999,-13.892,11.8316,6.01433333333333,-1.034575,-0.154175,0.1948,5.2555,-34.6635,-25.8638333333333,557.731,1,1,0,1
24-May-2018 12:45:29,58.4,0.923616666666667,-0.0127833333333333,0.430933333333333,-35.155,0.986166666666667,2.464,9.5352,-0.88988,0.05278,-0.52134,0.5921,-2.8128,-0.885,110.509,0.8416,0.25135,0.438725,0.491999999999999,-13.892,11.8316,6.01433333333333,-1.034575,-0.154175,0.1948,5.2555,-34.6635,-25.8638333333333,557.731,1,1,0,1
24-May-2018 12:45:29,58.4,0.923616666666667,-0.0127833333333333,0.430933333333333,-35.155,0.986166666666667,2.464,9.5352,-0.88988,0.05278,-0.52134,0.5921,-2.8128,-0.885,110.509,0.8416,0.25135,0.438725,0.491999999999999,-13.892,11.8316,6.01433333333333,-1.034575,-0.154175,0.1948,5.2555,-34.6635,-25.8638333333333,557.731,1,1,0,1
24-May-2018 12:45:29,58.4,0.923616666666667,-0.0127833333333333,0.430933333333333,-35.155,0.986166666666667,2.464,9.5352,-0.88988,0.05278,-0.52134,0.5921,-2.8128,-0.885,110.509,0.8416,0.25135,0.438725,0.491999999999999,-13.892,11.8316,6.01433333333333,-1.034575,-0.154175,0.1948,5.2555,-34.6635,-25.8638333333333,557.731,1,1,0,1
24-May-2018 12:45:30,56.1111111111111,0.85905,0.016375,0.426175,4.42471428571429,1.91014285714286,-0.748,10.8615,-0.9069,0.04464,-0.50764,4.09877777777778,-4.09444444444444,0.00966666666666664,110.03,0.785225,0.27695,0.500325,-7.52016666666667,-4.85,-12.9483333333333,5.4005,-0.953766666666667,-0.0629166666666667,0.285366666666667,8.9756,13.3292,-7.1342,749.3188,1,1,1,1
24-May-2018 12:45:30,56.1111111111111,0.85905,0.016375,0.426175,4.42471428571429,1.91014285714286,-0.748,10.8615,-0.9069,0.04464,-0.50764,4.09877777777778,-4.09444444444444,0.00966666666666664,110.03,0.785225,0.27695,0.500325,-7.52016666666667,-4.85,-12.9483333333333,5.4005,-0.953766666666667,-0.0629166666666667,0.285366666666667,8.9756,13.3292,-7.1342,749.3188,1,1,1,1
24-May-2018 12:45:30,56.1111111111111,0.85905,0.016375,0.426175,4.42471428571429,1.91014285714286,-0.748,10.8615,-0.9069,0.04464,-0.50764,4.09877777777778,-4.09444444444444,0.00966666666666664,110.03,0.785225,0.27695,0.500325,-7.52016666666667,-4.85,-12.9483333333333,5.4005,-0.953766666666667,-0.0629166666666667,0.285366666666667,8.9756,13.3292,-7.1342,749.3188,1,1,1,1
24-May-2018 12:45:30,56.1111111111111,0.85905,0.016375,0.426175,4.42471428571429,1.91014285714286,-0.748,10.8615,-0.9069,0.04464,-0.50764,4.09877777777778,-4.09444444444444,0.00966666666666664,110.03,0.785225,0.27695,0.500325,-7.52016666666667,-4.85,-12.9483333333333,5.4005,-0.953766666666667,-0.0629166666666667,0.285366666666667,8.9756,13.3292,-7.1342,749.3188,1,1,1,1
24-May-2018 12:45:31,54.4,0.926383333333333,-0.0757166666666667,0.388033333333333,52.678,-5.192,18.364,13.6206666666667,-0.90885,0.0363,-0.495575,2.6831,-1.2829,1.6401,110.03,0.81205,0.229283333333333,0.4972,-0.0580000000000001,-2.855,7.4085,7.33533333333333,-0.907866666666667,-0.0526,0.229666666666667,-53.1222,10.0486,23.11,682.928,0,0,1,1
24-May-2018 12:45:31,54.4,0.926383333333333,-0.0757166666666667,0.388033333333333,52.678,-5.192,18.364,13.6206666666667,-0.90885,0.0363,-0.495575,2.6831,-1.2829,1.6401,110.03,0.81205,0.229283333333333,0.4972,-0.0580000000000001,-2.855,7.4085,7.33533333333333,-0.907866666666667,-0.0526,0.229666666666667,-53.1222,10.0486,23.11,682.928,0,0,1,1
24-May-2018 12:45:31,54.4,0.926383333333333,-0.0757166666666667,0.388033333333333,52.678,-5.192,18.364,13.6206666666667,-0.90885,0.0363,-0.495575,2.6831,-1.2829,1.6401,110.03,0.81205,0.229283333333333,0.4972,-0.0580000000000001,-2.855,7.4085,7.33533333333333,-0.907866666666667,-0.0526,0.229666666666667,-53.1222,10.0486,23.11,682.928,0,0,1,1
24-May-2018 12:45:31,54.4,0.926383333333333,-0.0757166666666667,0.388033333333333,52.678,-5.192,18.364,13.6206666666667,-0.90885,0.0363,-0.495575,2.6831,-1.2829,1.6401,110.03,0.81205,0.229283333333333,0.4972,-0.0580000000000001,-2.855,7.4085,7.33533333333333,-0.907866666666667,-0.0526,0.229666666666667,-53.1222,10.0486,23.11,682.928,0,0,1,1
24-May-2018 12:45:32,54.4,0.89174,-0.03662,0.44296,64.09625,-4.768,27.624875,8.99633333333333,-0.91722,0.03598,-0.47918,-1.2155,-4.1945,2.5,109.0865,0.8193,0.29866,0.45672,56.4925,10.155,28.425,11.5008,-0.974514285714286,-0.0773,0.265171428571429,-66.412,-7.72366666666667,18.4756666666667,544.60425,1,1,1,1
24-May-2018 12:45:32,54.4,0.89174,-0.03662,0.44296,64.09625,-4.768,27.624875,8.99633333333333,-0.91722,0.03598,-0.47918,-1.2155,-4.1945,2.5,109.0865,0.8193,0.29866,0.45672,56.4925,10.155,28.425,11.5008,-0.974514285714286,-0.0773,0.265171428571429,-66.412,-7.72366666666667,18.4756666666667,544.60425,1,1,1,1
24-May-2018 12:45:32,54.4,0.89174,-0.03662,0.44296,64.09625,-4.768,27.624875,8.99633333333333,-0.91722,0.03598,-0.47918,-1.2155,-4.1945,2.5,109.0865,0.8193,0.29866,0.45672,56.4925,10.155,28.425,11.5008,-0.974514285714286,-0.0773,0.265171428571429,-66.412,-7.72366666666667,18.4756666666667,544.60425,1,1,1,1
24-May-2018 12:45:32,54.4,0.89174,-0.03662,0.44296,64.09625,-4.768,27.624875,8.99633333333333,-0.91722,0.03598,-0.47918,-1.2155,-4.1945,2.5,109.0865,0.8193,0.29866,0.45672,56.4925,10.155,28.425,11.5008,-0.974514285714286,-0.0773,0.265171428571429,-66.412,-7.72366666666667,18.4756666666667,544.60425,1,1,1,1
24-May-2018 12:45:33,-6.125,0.88544,0.11656,0.4593,56.3722,0.9906,17.034,4.545,-0.92666,0.05074,-0.46228,-2.82,-2.25855555555556,4.65433333333333,110.574,0.9462,0.23055,0.3906,77.316,7.2074,38.142,3.5205,-0.963466666666667,-0.0913,0.340166666666667,-33.6148571428571,-10.6358571428571,-17.1511428571429,614.374,1,1,1,1
24-May-2018 12:45:33,-6.125,0.88544,0.11656,0.4593,56.3722,0.9906,17.034,4.545,-0.92666,0.05074,-0.46228,-2.82,-2.25855555555556,4.65433333333333,110.574,0.9462,0.23055,0.3906,77.316,7.2074,38.142,3.5205,-0.963466666666667,-0.0913,0.340166666666667,-33.6148571428571,-10.6358571428571,-17.1511428571429,614.374,1,1,1,1
24-May-2018 12:45:33,-6.125,0.88544,0.11656,0.4593,56.3722,0.9906,17.034,4.545,-0.92666,0.05074,-0.46228,-2.82,-2.25855555555556,4.65433333333333,110.574,0.9462,0.23055,0.3906,77.316,7.2074,38.142,3.5205,-0.963466666666667,-0.0913,0.340166666666667,-33.6148571428571,-10.6358571428571,-17.1511428571429,614.374,1,1,1,1
24-May-2018 12:45:33,-6.125,0.88544,0.11656,0.4593,56.3722,0.9906,17.034,4.545,-0.92666,0.05074,-0.46228,-2.82,-2.25855555555556,4.65433333333333,110.574,0.9462,0.23055,0.3906,77.316,7.2074,38.142,3.5205,-0.963466666666667,-0.0913,0.340166666666667,-33.6148571428571,-10.6358571428571,-17.1511428571429,614.374,1,1,1,1
24-May-2018 12:45:34,-1492.4,0.871025,-0.0741625,0.4304625,20.3781111111111,-1.92244444444444,9.52177777777778,4.545,-0.92858,0.06444,-0.45492,1.86414285714286,2.03828571428571,0.568285714285714,111.29,0.81318,0.32336,0.44378,36.0775,35.409,16.9775,2.98,-0.857325,-0.0509,0.253275,-48.4018,22.0366,31.4756,696.342,1,1,1,1
24-May-2018 12:45:34,-1492.4,0.871025,-0.0741625,0.4304625,20.3781111111111,-1.92244444444444,9.52177777777778,4.545,-0.92858,0.06444,-0.45492,1.86414285714286,2.03828571428571,0.568285714285714,111.29,0.81318,0.32336,0.44378,36.0775,35.409,16.9775,2.98,-0.857325,-0.0509,0.253275,-48.4018,22.0366,31.4756,696.342,1,1,1,1
24-May-2018 12:45:34,-1492.4,0.871025,-0.0741625,0.4304625,20.3781111111111,-1.92244444444444,9.52177777777778,4.545,-0.92858,0.06444,-0.45492,1.86414285714286,2.03828571428571,0.568285714285714,111.29,0.81318,0.32336,0.44378,36.0775,35.409,16.9775,2.98,-0.857325,-0.0509,0.253275,-48.4018,22.0366,31.4756,696.342,1,1,1,1
24-May-2018 12:45:34,-1492.4,0.871025,-0.0741625,0.4304625,20.3781111111111,-1.92244444444444,9.52177777777778,4.545,-0.92858,0.06444,-0.45492,1.86414285714286,2.03828571428571,0.568285714285714,111.29,0.81318,0.32336,0.44378,36.0775,35.409,16.9775,2.98,-0.857325,-0.0509,0.253275,-48.4018,22.0366,31.4756,696.342,1,1,1,1
24-May-2018 12:45:35,-2048,0.924285714285714,-0.0275285714285714,0.387071428571429,-15.3577777777778,5.16177777777778,-3.94055555555556,4.545,-0.924625,0.061975,-0.455075,1.33285714285714,2.50985714285714,2.59585714285714,115.056,0.773866666666667,0.3689,0.4527,-6.528,-11.5436,3.11,2.98,-0.929333333333333,-0.0439333333333333,0.289333333333333,42.5406666666667,-16.1786666666667,2.80466666666667,608.275,1,1,1,1
24-May-2018 12:45:35,-2048,0.924285714285714,-0.0275285714285714,0.387071428571429,-15.3577777777778,5.16177777777778,-3.94055555555556,4.545,-0.924625,0.061975,-0.455075,1.33285714285714,2.50985714285714,2.59585714285714,115.056,0.773866666666667,0.3689,0.4527,-6.528,-11.5436,3.11,2.98,-0.929333333333333,-0.0439333333333333,0.289333333333333,42.5406666666667,-16.1786666666667,2.80466666666667,608.275,1,1,1,1
24-May-2018 12:45:35,-2048,0.924285714285714,-0.0275285714285714,0.387071428571429,-15.3577777777778,5.16177777777778,-3.94055555555556,4.545,-0.924625,0.061975,-0.455075,1.33285714285714,2.50985714285714,2.59585714285714,115.056,0.773866666666667,0.3689,0.4527,-6.528,-11.5436,3.11,2.98,-0.929333333333333,-0.0439333333333333,0.289333333333333,42.5406666666667,-16.1786666666667,2.80466666666667,608.275,1,1,1,1
24-May-2018 12:45:35,-2048,0.924285714285714,-0.0275285714285714,0.387071428571429,-15.3577777777778,5.16177777777778,-3.94055555555556,4.545,-0.924625,0.061975,-0.455075,1.33285714285714,2.50985714285714,2.59585714285714,115.056,0.773866666666667,0.3689,0.4527,-6.528,-11.5436,3.11,0,-0.929333333333333,-0.0439333333333333,0.289333333333333,42.5406666666667,-16.1786666666667,2.80466666666667,608.275,1,1,1,1
24-May-2018 12:45:36,-2048,0.842871428571429,0.0513,0.397014285714286,23.551,-4.497,8.98,4.545,-0.9183,0.0697,-0.46825,0.695375,3.490875,4.67975,115.056,0.807933333333333,0.3004,0.55665,-15.7,6.68333333333333,-3.28333333333333,2.72225,-0.9723,-0.05584,0.29942,-30.8435,7.886,4.72566666666667,651.86,1,1,1,1
24-May-2018 12:45:36,-2048,0.842871428571429,0.0513,0.397014285714286,23.551,-4.497,8.98,4.545,-0.9183,0.0697,-0.46825,0.695375,3.490875,4.67975,115.056,0.807933333333333,0.3004,0.55665,-15.7,6.68333333333333,-3.28333333333333,2.72225,-0.9723,-0.05584,0.29942,-30.8435,7.886,4.72566666666667,651.86,1,1,1,1
24-May-2018 12:45:36,-2048,0.842871428571429,0.0513,0.397014285714286,23.551,-4.497,8.98,4.545,-0.9183,0.0697,-0.46825,0.695375,3.490875,4.67975,115.056,0.807933333333333,0.3004,0.55665,-15.7,6.68333333333333,-3.28333333333333,2.72225,-0.9723,-0.05584,0.29942,-30.8435,7.886,4.72566666666667,651.86,1,1,1,1
24-May-2018 12:45:36,-2048,0.842871428571429,0.0513,0.397014285714286,23.551,-4.497,8.98,4.545,-0.9183,0.0697,-0.46825,0.695375,3.490875,4.67975,115.056,0.807933333333333,0.3004,0.55665,-15.7,6.68333333333333,-3.28333333333333,2.72225,-0.9723,-0.05584,0.29942,-30.8435,7.886,4.72566666666667,651.86,1,1,1,1
24-May-2018 12:45:37,-1791.27272727273,0.907342857142857,-0.0783571428571428,0.354685714285714,41.4283333333333,-4.30633333333333,11.9798333333333,8.00775,-0.9135,0.0916,-0.473466666666667,-1.82685714285714,-0.188142857142857,2.37814285714286,115.056,0.776425,0.27155,0.5244,19.9358,-8.044,6.768,2.5,-0.928783333333333,-0.0891166666666667,0.279833333333333,-52.9768571428571,15.2177142857143,21.8378571428571,602.553,1,1,1,1
24-May-2018 12:45:37,-1791.27272727273,0.907342857142857,-0.0783571428571428,0.354685714285714,41.4283333333333,-4.30633333333333,11.9798333333333,8.00775,-0.9135,0.0916,-0.473466666666667,-1.82685714285714,-0.188142857142857,2.37814285714286,115.056,0.776425,0.27155,0.5244,19.9358,-8.044,6.768,2.5,-0.928783333333333,-0.0891166666666667,0.279833333333333,-52.9768571428571,15.2177142857143,21.8378571428571,602.553,1,1,1,1
24-May-2018 12:45:37,-1791.27272727273,0.907342857142857,-0.0783571428571428,0.354685714285714,41.4283333333333,-4.30633333333333,11.9798333333333,8.00775,-0.9135,0.0916,-0.473466666666667,-1.82685714285714,-0.188142857142857,2.37814285714286,115.056,0.776425,0.27155,0.5244,19.9358,-8.044,6.768,2.5,-0.928783333333333,-0.0891166666666667,0.279833333333333,-52.9768571428571,15.2177142857143,21.8378571428571,602.553,1,1,1,1
24-May-2018 12:45:37,-1791.27272727273,0.907342857142857,-0.0783571428571428,0.354685714285714,41.4283333333333,-4.30633333333333,11.9798333333333,8.00775,-0.9135,0.0916,-0.473466666666667,-1.82685714285714,-0.188142857142857,2.37814285714286,115.056,0.776425,0.27155,0.5244,19.9358,-8.044,6.768,2.5,-0.928783333333333,-0.0891166666666667,0.279833333333333,-52.9768571428571,15.2177142857143,21.8378571428571,602.553,1,1,1,1
24-May-2018 12:45:38,-1206.8,1.08835,0.13815,0.49755,23.685,3.689,7.745,6.82,-0.9172,0.0936,-0.4704,1.0215,-2.8775,1.03675,116.804,0.81735,0.33095,0.68775,33.59,13.84,16.7,4.106,-1.0321,0.0218,0.3728,-7.988,-17.805,-6.006,740.4255,0,1,0,0
24-May-2018 12:45:38,-1206.8,1.08835,0.13815,0.49755,23.685,3.689,7.745,6.82,-0.9172,0.0936,-0.4704,1.0215,-2.8775,1.03675,116.804,0.81735,0.33095,0.68775,33.59,13.84,16.7,4.106,-1.0321,0.0218,0.3728,-7.988,-17.805,-6.006,740.4255,0,1,0,0
24-May-2018 12:45:38,-1206.8,1.08835,0.13815,0.49755,23.685,3.689,7.745,6.82,-0.9172,0.0936,-0.4704,1.0215,-2.8775,1.03675,116.804,0.81735,0.33095,0.68775,33.59,13.84,16.7,4.106,-1.0321,0.0218,0.3728,-7.988,-17.805,-6.006,740.4255,0,1,0,0
24-May-2018 12:45:38,-1206.8,1.08835,0.13815,0.49755,23.685,3.689,7.745,6.82,-0.9172,0.0936,-0.4704,1.0215,-2.8775,1.03675,116.804,0.81735,0.33095,0.68775,33.59,13.84,16.7,4.106,-1.0321,0.0218,0.3728,-7.988,-17.805,-6.006,740.4255,0,1,0,0
24-May-2018 12:45:39,-815.6,0.8822,0.04424,0.44908,107.15875,-1.24675,36.9475,7.20825,-0.91878,0.0892,-0.4734,1.66744444444444,0.123333333333333,0.942111111111111,116.804,0.81008,0.2691,0.5433,36.053,0.829666666666666,21.33,5.144,-0.938942857142857,-0.0911285714285714,0.165528571428571,-72.4031428571429,-9.22471428571429,22.7872857142857,857.365,0,1,1,1
24-May-2018 12:45:39,-815.6,0.8822,0.04424,0.44908,107.15875,-1.24675,36.9475,7.20825,-0.91878,0.0892,-0.4734,1.66744444444444,0.123333333333333,0.942111111111111,116.804,0.81008,0.2691,0.5433,36.053,0.829666666666666,21.33,5.144,-0.938942857142857,-0.0911285714285714,0.165528571428571,-72.4031428571429,-9.22471428571429,22.7872857142857,857.365,0,1,1,1
24-May-2018 12:45:39,-815.6,0.8822,0.04424,0.44908,107.15875,-1.24675,36.9475,7.20825,-0.91878,0.0892,-0.4734,1.66744444444444,0.123333333333333,0.942111111111111,116.804,0.81008,0.2691,0.5433,36.053,0.829666666666666,21.33,5.144,-0.938942857142857,-0.0911285714285714,0.165528571428571,-72.4031428571429,-9.22471428571429,22.7872857142857,857.365,0,1,1,1
24-May-2018 12:45:39,-815.6,0.8822,0.04424,0.44908,107.15875,-1.24675,36.9475,7.20825,-0.91878,0.0892,-0.4734,1.66744444444444,0.123333333333333,0.942111111111111,116.804,0.81008,0.2691,0.5433,36.053,0.829666666666666,21.33,5.144,-0.938942857142857,-0.0911285714285714,0.165528571428571,-72.4031428571429,-9.22471428571429,22.7872857142857,857.365,0,1,1,1
24-May-2018 12:45:40,-601.2,0.889285714285714,0.0240857142857143,0.353842857142857,-2.246,-0.315,15.414,7.47775,-0.91422,0.09704,-0.4668,1.85528571428571,-0.491142857142857,0.609857142857143,116.804,0.901,0.416575,0.39025,66.485,15.0695,32.537,4.7845,-0.9009,-0.108483333333333,0.229733333333333,11.687,-11.26,-18.618,463.933,1,1,0,1
24-May-2018 12:45:40,-601.2,0.889285714285714,0.0240857142857143,0.353842857142857,-2.246,-0.315,15.414,7.47775,-0.91422,0.09704,-0.4668,1.85528571428571,-0.491142857142857,0.609857142857143,116.804,0.901,0.416575,0.39025,66.485,15.0695,32.537,4.7845,-0.9009,-0.108483333333333,0.229733333333333,11.687,-11.26,-18.618,463.933,1,1,0,1
24-May-2018 12:45:40,-601.2,0.889285714285714,0.0240857142857143,0.353842857142857,-2.246,-0.315,15.414,7.47775,-0.91422,0.09704,-0.4668,1.85528571428571,-0.491142857142857,0.609857142857143,116.804,0.901,0.416575,0.39025,66.485,15.0695,32.537,4.7845,-0.9009,-0.108483333333333,0.229733333333333,11.687,-11.26,-18.618,463.933,1,1,0,1
24-May-2018 12:45:40,-601.2,0.889285714285714,0.0240857142857143,0.353842857142857,-2.246,-0.315,15.414,7.47775,-0.91422,0.09704,-0.4668,1.85528571428571,-0.491142857142857,0.609857142857143,116.804,0.901,0.416575,0.39025,66.485,15.0695,32.537,4.7845,-0.9009,-0.108483333333333,0.229733333333333,11.687,-11.26,-18.618,463.933,1,1,0,1
24-May-2018 12:45:41,-442.6,0.909585714285714,-0.0606428571428571,0.394185714285714,-3.38142857142857,-0.317714285714286,-2.48042857142857,10.0853333333333,-0.916933333333333,0.0867,-0.471666666666667,3.406875,1.311625,-0.90125,117.483,0.798257142857143,0.249842857142857,0.553142857142857,-8.0605,-4.48833333333333,-8.285,6.0696,-0.9758,-0.0938,0.27205,-19.2174,14.183,36.5124,672.6974,1,1,0,1
24-May-2018 12:45:41,-442.6,0.909585714285714,-0.0606428571428571,0.394185714285714,-3.38142857142857,-0.317714285714286,-2.48042857142857,10.0853333333333,-0.916933333333333,0.0867,-0.471666666666667,3.406875,1.311625,-0.90125,117.483,0.798257142857143,0.249842857142857,0.553142857142857,-8.0605,-4.48833333333333,-8.285,6.0696,-0.9758,-0.0938,0.27205,-19.2174,14.183,36.5124,672.6974,1,1,0,1
24-May-2018 12:45:41,-442.6,0.909585714285714,-0.0606428571428571,0.394185714285714,-3.38142857142857,-0.317714285714286,-2.48042857142857,10.0853333333333,-0.916933333333333,0.0867,-0.471666666666667,3.406875,1.311625,-0.90125,117.483,0.798257142857143,0.249842857142857,0.553142857142857,-8.0605,-4.48833333333333,-8.285,6.0696,-0.9758,-0.0938,0.27205,-19.2174,14.183,36.5124,672.6974,1,1,0,1
24-May-2018 12:45:41,-442.6,0.909585714285714,-0.0606428571428571,0.394185714285714,-3.38142857142857,-0.317714285714286,-2.48042857142857,10.0853333333333,-0.916933333333333,0.0867,-0.471666666666667,3.406875,1.311625,-0.90125,117.483,0.798257142857143,0.249842857142857,0.553142857142857,-8.0605,-4.48833333333333,-8.285,6.0696,-0.9758,-0.0938,0.27205,-19.2174,14.183,36.5124,672.6974,1,1,0,1
24-May-2018 12:45:42,1704.09090909091,0.87472,-0.08366,0.39446,11.70625,3.003,10.71725,9.82833333333333,-0.91602,0.08076,-0.4753,2.73033333333333,6.17922222222222,2.25144444444444,117.483,0.806525,0.3089,0.5764,3.105,8.13,3.93416666666667,7.8542,-0.540557142857143,0.0339285714285714,0.290642857142857,-68.7354285714286,-41.8544285714286,-36.1054285714286,777.936,1,1,0,1
24-May-2018 12:45:42,1704.09090909091,0.87472,-0.08366,0.39446,11.70625,3.003,10.71725,9.82833333333333,-0.91602,0.08076,-0.4753,2.73033333333333,6.17922222222222,2.25144444444444,117.483,0.806525,0.3089,0.5764,3.105,8.13,3.93416666666667,7.8542,-0.540557142857143,0.0339285714285714,0.290642857142857,-68.7354285714286,-41.8544285714286,-36.1054285714286,777.936,1,1,0,1
24-May-2018 12:45:42,1704.09090909091,0.87472,-0.08366,0.39446,11.70625,3.003,10.71725,9.82833333333333,-0.91602,0.08076,-0.4753,2.73033333333333,6.17922222222222,2.25144444444444,117.483,0.806525,0.3089,0.5764,3.105,8.13,3.93416666666667,7.8542,-0.540557142857143,0.0339285714285714,0.290642857142857,-68.7354285714286,-41.8544285714286,-36.1054285714286,777.936,1,1,0,1
24-May-2018 12:45:42,1704.09090909091,0.87472,-0.08366,0.39446,11.70625,3.003,10.71725,9.82833333333333,-0.91602,0.08076,-0.4753,2.73033333333333,6.17922222222222,2.25144444444444,117.483,0.806525,0.3089,0.5764,3.105,8.13,3.93416666666667,7.8542,-0.540557142857143,0.0339285714285714,0.290642857142857,-68.7354285714286,-41.8544285714286,-36.1054285714286,777.936,1,1,0,1
24-May-2018 12:45:43,2047,0.979466666666667,-0.0346666666666667,0.380716666666667,-3.49028571428571,0.515285714285714,2.227,13.60775,-0.904325,0.10045,-0.495925,-2.73333333333333,1.51277777777778,2.00544444444444,117.483,0.78825,0.302725,0.49435,-6.8692,4.66,-7.496,5.706,0.87795,-0.0742833333333333,0.412916666666667,21.0852,-30.2682,18.805,777.167,1,1,1,0
24-May-2018 12:45:43,2047,0.979466666666667,-0.0346666666666667,0.380716666666667,-3.49028571428571,0.515285714285714,2.227,13.60775,-0.904325,0.10045,-0.495925,-2.73333333333333,1.51277777777778,2.00544444444444,117.483,0.78825,0.302725,0.49435,-6.8692,4.66,-7.496,5.706,0.87795,-0.0742833333333333,0.412916666666667,21.0852,-30.2682,18.805,777.167,1,1,1,0
24-May-2018 12:45:43,2047,0.979466666666667,-0.0346666666666667,0.380716666666667,-3.49028571428571,0.515285714285714,2.227,13.60775,-0.904325,0.10045,-0.495925,-2.73333333333333,1.51277777777778,2.00544444444444,117.483,0.78825,0.302725,0.49435,-6.8692,4.66,-7.496,5.706,0.87795,-0.0742833333333333,0.412916666666667,21.0852,-30.2682,18.805,777.167,1,1,1,0
24-May-2018 12:45:43,2047,0.979466666666667,-0.0346666666666667,0.380716666666667,-3.49028571428571,0.515285714285714,2.227,13.60775,-0.904325,0.10045,-0.495925,-2.73333333333333,1.51277777777778,2.00544444444444,117.483,0.78825,0.302725,0.49435,-6.8692,4.66,-7.496,5.706,0.87795,-0.0742833333333333,0.412916666666667,21.0852,-30.2682,18.805,777.167,1,1,1,0
24-May-2018 12:45:44,1902.8,0.881828571428572,0.127828571428571,0.447857142857143,57.0433333333333,-0.911111111111111,14.0972222222222,18.12,-0.9141,0.093325,-0.4819,0.59575,-4.364375,0.12525,113.405,0.84335,0.272,0.72965,42.955,43.685,11.0045,9.735,0.931542857142857,-0.193471428571429,0.188471428571429,40.3658571428571,4.25085714285714,-0.487857142857143,563.8845,1,1,1,1
24-May-2018 12:45:44,1902.8,0.881828571428572,0.127828571428571,0.447857142857143,57.0433333333333,-0.911111111111111,14.0972222222222,18.12,-0.9141,0.093325,-0.4819,0.59575,-4.364375,0.12525,113.405,0.84335,0.272,0.72965,42.955,43.685,11.0045,9.735,0.931542857142857,-0.193471428571429,0.188471428571429,40.3658571428571,4.25085714285714,-0.487857142857143,563.8845,1,1,1,1
24-May-2018 12:45:44,1902.8,0.881828571428572,0.127828571428571,0.447857142857143,57.0433333333333,-0.911111111111111,14.0972222222222,18.12,-0.9141,0.093325,-0.4819,0.59575,-4.364375,0.12525,113.405,0.84335,0.272,0.72965,42.955,43.685,11.0045,9.735,0.931542857142857,-0.193471428571429,0.188471428571429,40.3658571428571,4.25085714285714,-0.487857142857143,563.8845,1,1,1,1
24-May-2018 12:45:44,1902.8,0.881828571428572,0.127828571428571,0.447857142857143,57.0433333333333,-0.911111111111111,14.0972222222222,18.12,-0.9141,0.093325,-0.4819,0.59575,-4.364375,0.12525,113.405,0.84335,0.272,0.72965,42.955,43.685,11.0045,9.735,0.931542857142857,-0.193471428571429,0.188471428571429,40.3658571428571,4.25085714285714,-0.487857142857143,563.8845,1,1,1,1
24-May-2018 12:45:45,1410.875,0.885833333333333,0.0811111111111111,0.400922222222222,76.7331666666667,2.03466666666667,24.1836666666667,18.12,-0.9116,0.09162,-0.48414,3.5548,3.9217,-0.9669,113.405,0.834566666666667,0.336166666666667,0.426433333333333,68.195,19.6635,34.5225,3.484,0.62344,-0.07922,0.15036,123.9024,-40.3048,92.4022,683.2324,1,1,1,1
24-May-2018 12:45:45,1410.875,0.885833333333333,0.0811111111111111,0.400922222222222,76.7331666666667,2.03466666666667,24.1836666666667,18.12,-0.9116,0.09162,-0.48414,3.5548,3.9217,-0.9669,113.405,0.834566666666667,0.336166666666667,0.426433333333333,68.195,19.6635,34.5225,3.484,0.62344,-0.07922,0.15036,123.9024,-40.3048,92.4022,683.2324,1,1,1,1
24-May-2018 12:45:45,1410.875,0.885833333333333,0.0811111111111111,0.400922222222222,76.7331666666667,2.03466666666667,24.1836666666667,18.12,-0.9116,0.09162,-0.48414,3.5548,3.9217,-0.9669,113.405,0.834566666666667,0.336166666666667,0.426433333333333,68.195,19.6635,34.5225,3.484,0.62344,-0.07922,0.15036,123.9024,-40.3048,92.4022,683.2324,1,1,1,1
24-May-2018 12:45:45,1410.875,0.885833333333333,0.0811111111111111,0.400922222222222,76.7331666666667,2.03466666666667,24.1836666666667,18.12,-0.9116,0.09162,-0.48414,3.5548,3.9217,-0.9669,113.405,0.834566666666667,0.336166666666667,0.426433333333333,68.195,19.6635,34.5225,3.484,0.62344,-0.07922,0.15036,123.9024,-40.3048,92.4022,683.2324,1,1,1,1
24-May-2018 12:45:46,1026.6,0.87505,-0.0318333333333333,0.406016666666667,35.302,-5.838,23.133,18.12,-0.90996,0.07958,-0.48928,1.52425,-1.795875,-2.1525,113.07025,0.843833333333333,0.252333333333333,0.378733333333333,65.1675,4.7405,22.423,2.737,-0.734225,-0.30655,0.072075,52.568375,-52.263875,96.334125,576.092,1,1,1,1
24-May-2018 12:45:46,1026.6,0.87505,-0.0318333333333333,0.406016666666667,35.302,-5.838,23.133,18.12,-0.90996,0.07958,-0.48928,1.52425,-1.795875,-2.1525,113.07025,0.843833333333333,0.252333333333333,0.378733333333333,65.1675,4.7405,22.423,2.737,-0.734225,-0.30655,0.072075,52.568375,-52.263875,96.334125,576.092,1,1,1,1
24-May-2018 12:45:46,1026.6,0.87505,-0.0318333333333333,0.406016666666667,35.302,-5.838,23.133,18.12,-0.90996,0.07958,-0.48928,1.52425,-1.795875,-2.1525,113.07025,0.843833333333333,0.252333333333333,0.378733333333333,65.1675,4.7405,22.423,2.737,-0.734225,-0.30655,0.072075,52.568375,-52.263875,96.334125,576.092,1,1,1,1
24-May-2018 12:45:46,1026.6,0.87505,-0.0318333333333333,0.406016666666667,35.302,-5.838,23.133,18.12,-0.90996,0.07958,-0.48928,1.52425,-1.795875,-2.1525,113.07025,0.843833333333333,0.252333333333333,0.378733333333333,65.1675,4.7405,22.423,2.737,-0.734225,-0.30655,0.072075,52.568375,-52.263875,96.334125,576.092,1,1,1,1
24-May-2018 12:45:47,711.272727272727,0.858171428571428,-0.0364857142857143,0.407985714285714,-15.8781,-0.7176,-7.112,18.12,-0.907416666666667,0.0636833333333333,-0.494333333333333,2.36928571428571,2.66557142857143,-2.35714285714286,112.066,0.74975,0.28395,0.521,20.55,-4.89,16.4595,2.8804,-0.96365,-0.1228,0.302125,4.807,-8.872,10.4778333333333,701.9625,1,1,1,1
24-May-2018 12:45:47,711.272727272727,0.858171428571428,-0.0364857142857143,0.407985714285714,-15.8781,-0.7176,-7.112,18.12,-0.907416666666667,0.0636833333333333,-0.494333333333333,2.36928571428571,2.66557142857143,-2.35714285714286,112.066,0.74975,0.28395,0.521,20.55,-4.89,16.4595,2.8804,-0.96365,-0.1228,0.302125,4.807,-8.872,10.4778333333333,701.9625,1,1,1,1
24-May-2018 12:45:47,711.272727272727,0.858171428571428,-0.0364857142857143,0.407985714285714,-15.8781,-0.7176,-7.112,18.12,-0.907416666666667,0.0636833333333333,-0.494333333333333,2.36928571428571,2.66557142857143,-2.35714285714286,112.066,0.74975,0.28395,0.521,20.55,-4.89,16.4595,2.8804,-0.96365,-0.1228,0.302125,4.807,-8.872,10.4778333333333,701.9625,1,1,1,1
24-May-2018 12:45:47,711.272727272727,0.858171428571428,-0.0364857142857143,0.407985714285714,-15.8781,-0.7176,-7.112,18.12,-0.907416666666667,0.0636833333333333,-0.494333333333333,2.36928571428571,2.66557142857143,-2.35714285714286,112.066,0.74975,0.28395,0.521,20.55,-4.89,16.4595,2.8804,-0.96365,-0.1228,0.302125,4.807,-8.872,10.4778333333333,701.9625,1,1,1,1
24-May-2018 12:45:48,497.5,0.948175,-0.0806,0.450075,-10.68775,2.02725,-2.30575,6.704,-0.90224,0.05722,-0.50694,1.044375,3.8955,0.062625,110.99325,0.72045,0.212475,0.590675,-48.2333333333333,15.0366666666667,-21.38,2.322,-0.88784,-0.07832,0.28042,-19.9302857142857,20.1917142857143,2.70914285714286,651.7735,1,1,1,1
24-May-2018 12:45:48,497.5,0.948175,-0.0806,0.450075,-10.68775,2.02725,-2.30575,6.704,-0.90224,0.05722,-0.50694,1.044375,3.8955,0.062625,110.99325,0.72045,0.212475,0.590675,-48.2333333333333,15.0366666666667,-21.38,2.322,-0.88784,-0.07832,0.28042,-19.9302857142857,20.1917142857143,2.70914285714286,651.7735,1,1,1,1
24-May-2018 12:45:48,497.5,0.948175,-0.0806,0.450075,-10.68775,2.02725,-2.30575,6.704,-0.90224,0.05722,-0.50694,1.044375,3.8955,0.062625,110.99325,0.72045,0.212475,0.590675,-48.2333333333333,15.0366666666667,-21.38,2.322,-0.88784,-0.07832,0.28042,-19.9302857142857,20.1917142857143,2.70914285714286,651.7735,1,1,1,1
24-May-2018 12:45:48,497.5,0.948175,-0.0806,0.450075,-10.68775,2.02725,-2.30575,6.704,-0.90224,0.05722,-0.50694,1.044375,3.8955,0.062625,110.99325,0.72045,0.212475,0.590675,-48.2333333333333,15.0366666666667,-21.38,2.322,-0.88784,-0.07832,0.28042,-19.9302857142857,20.1917142857143,2.70914285714286,651.7735,1,1,1,1
24-May-2018 12:45:49,370.375,0.864357142857143,-0.000228571428571425,0.415471428571429,29.496,-6.1354,17.693,6.5084,-0.89814,0.06528,-0.51666,-1.33625,0.473375,1.813875,107.775,0.828725,0.3178,0.4946,-4.77628571428571,-1.81528571428571,-0.390285714285715,2.8615,-0.973083333333333,-0.0318833333333333,0.280016666666667,-9.52233333333334,-13.0283333333333,-23.628,689.947,1,0,1,1
24-May-2018 12:45:49,370.375,0.864357142857143,-0.000228571428571425,0.415471428571429,29.496,-6.1354,17.693,6.5084,-0.89814,0.06528,-0.51666,-1.33625,0.473375,1.813875,107.775,0.828725,0.3178,0.4946,-4.77628571428571,-1.81528571428571,-0.390285714285715,2.8615,-0.973083333333333,-0.0318833333333333,0.280016666666667,-9.52233333333334,-13.0283333333333,-23.628,689.947,1,0,1,1
24-May-2018 12:45:49,370.375,0.864357142857143,-0.000228571428571425,0.415471428571429,29.496,-6.1354,17.693,6.5084,-0.89814,0.06528,-0.51666,-1.33625,0.473375,1.813875,107.775,0.828725,0.3178,0.4946,-4.77628571428571,-1.81528571428571,-0.390285714285715,2.8615,-0.973083333333333,-0.0318833333333333,0.280016666666667,-9.52233333333334,-13.0283333333333,-23.628,689.947,1,0,1,1
24-May-2018 12:45:49,370.375,0.864357142857143,-0.000228571428571425,0.415471428571429,29.496,-6.1354,17.693,6.5084,-0.89814,0.06528,-0.51666,-1.33625,0.473375,1.813875,107.775,0.828725,0.3178,0.4946,-4.77628571428571,-1.81528571428571,-0.390285714285715,2.8615,-0.973083333333333,-0.0318833333333333,0.280016666666667,-9.52233333333334,-13.0283333333333,-23.628,689.947,1,0,1,1
24-May-2018 12:45:50,288.5,0.9088,0.03775,0.41795,74.8666666666667,-2.25233333333333,27.852,6.70533333333333,-0.90655,0.08225,-0.499475,-1.39,-2.46457142857143,1.35028571428571,108.594,0.78855,0.265575,0.46345,57.3275,-0.80625,30.1475,2.986,-0.8639,-0.0775666666666667,0.327633333333333,-66.03675,-10.244,12.0885,663.736,1,1,0,1
24-May-2018 12:45:50,288.5,0.9088,0.03775,0.41795,74.8666666666667,-2.25233333333333,27.852,6.70533333333333,-0.90655,0.08225,-0.499475,-1.39,-2.46457142857143,1.35028571428571,108.594,0.78855,0.265575,0.46345,57.3275,-0.80625,30.1475,2.986,-0.8639,-0.0775666666666667,0.327633333333333,-66.03675,-10.244,12.0885,663.736,1,1,0,1
24-May-2018 12:45:50,288.5,0.9088,0.03775,0.41795,74.8666666666667,-2.25233333333333,27.852,6.70533333333333,-0.90655,0.08225,-0.499475,-1.39,-2.46457142857143,1.35028571428571,108.594,0.78855,0.265575,0.46345,57.3275,-0.80625,30.1475,2.986,-0.8639,-0.0775666666666667,0.327633333333333,-66.03675,-10.244,12.0885,663.736,1,1,0,1
24-May-2018 12:45:50,288.5,0.9088,0.03775,0.41795,74.8666666666667,-2.25233333333333,27.852,6.70533333333333,-0.90655,0.08225,-0.499475,-1.39,-2.46457142857143,1.35028571428571,108.594,0.78855,0.265575,0.46345,57.3275,-0.80625,30.1475,2.986,-0.8639,-0.0775666666666667,0.327633333333333,-66.03675,-10.244,12.0885,663.736,1,1,0,1
24-May-2018 12:45:51,224.333333333333,0.8836,-0.0512625,0.388775,61.9733333333333,-6.41583333333333,23.2468333333333,7.365,-0.90092,0.08844,-0.50288,-2.57766666666667,3.8415,-0.00833333333333332,111.406,0.77716,0.2472,0.5381,77.6,36.065,38.4875,4.2275,-0.870075,-0.14995,0.344225,-38.496,-24.4103333333333,-32.561,857.893,1,1,0,0
24-May-2018 12:45:51,224.333333333333,0.8836,-0.0512625,0.388775,61.9733333333333,-6.41583333333333,23.2468333333333,7.365,-0.90092,0.08844,-0.50288,-2.57766666666667,3.8415,-0.00833333333333332,111.406,0.77716,0.2472,0.5381,77.6,36.065,38.4875,4.2275,-0.870075,-0.14995,0.344225,-38.496,-24.4103333333333,-32.561,857.893,1,1,0,0
24-May-2018 12:45:51,224.333333333333,0.8836,-0.0512625,0.388775,61.9733333333333,-6.41583333333333,23.2468333333333,7.365,-0.90092,0.08844,-0.50288,-2.57766666666667,3.8415,-0.00833333333333332,111.406,0.77716,0.2472,0.5381,77.6,36.065,38.4875,4.2275,-0.870075,-0.14995,0.344225,-38.496,-24.4103333333333,-32.561,857.893,1,1,0,0
24-May-2018 12:45:51,224.333333333333,0.8836,-0.0512625,0.388775,61.9733333333333,-6.41583333333333,23.2468333333333,7.365,-0.90092,0.08844,-0.50288,-2.57766666666667,3.8415,-0.00833333333333332,111.406,0.77716,0.2472,0.5381,77.6,36.065,38.4875,4.2275,-0.870075,-0.14995,0.344225,-38.496,-24.4103333333333,-32.561,857.893,1,1,0,0
24-May-2018 12:45:52,174.5,0.9274,0.0202,0.345083333333333,15.9715,2.7955,13.8951666666667,10.4985,-0.899766666666667,0.101833333333333,-0.508733333333333,-2.67266666666667,-3.35033333333333,0.475222222222222,111.406,0.8985,0.294466666666667,0.434333333333333,40.224,9.33771428571429,25.52,4.0228,-0.89325,-0.11465,0.0707,-108.759,-3.0285,38.3945,787.265,1,1,1,1
24-May-2018 12:45:52,174.5,0.9274,0.0202,0.345083333333333,15.9715,2.7955,13.8951666666667,10.4985,-0.899766666666667,0.101833333333333,-0.508733333333333,-2.67266666666667,-3.35033333333333,0.475222222222222,111.406,0.8985,0.294466666666667,0.434333333333333,40.224,9.33771428571429,25.52,4.0228,-0.89325,-0.11465,0.0707,-108.759,-3.0285,38.3945,787.265,1,1,1,1
24-May-2018 12:45:52,174.5,0.9274,0.0202,0.345083333333333,15.9715,2.7955,13.8951666666667,10.4985,-0.899766666666667,0.101833333333333,-0.508733333333333,-2.67266666666667,-3.35033333333333,0.475222222222222,111.406,0.8985,0.294466666666667,0.434333333333333,40.224,9.33771428571429,25.52,4.0228,-0.89325,-0.11465,0.0707,-108.759,-3.0285,38.3945,787.265,1,1,1,1
24-May-2018 12:45:52,174.5,0.9274,0.0202,0.345083333333333,15.9715,2.7955,13.8951666666667,10.4985,-0.899766666666667,0.101833333333333,-0.508733333333333,-2.67266666666667,-3.35033333333333,0.475222222222222,111.406,0.8985,0.294466666666667,0.434333333333333,40.224,9.33771428571429,25.52,4.0228,-0.89325,-0.11465,0.0707,-108.759,-3.0285,38.3945,787.265,1,1,1,1
24-May-2018 12:45:53,138.333333333333,0.89928,0.03294,0.4377,-20.1857142857143,-0.285428571428572,-12.4275714285714,11.4106666666667,-0.90474,0.10014,-0.49616,4.085375,0.0256249999999999,1.121,111.834,0.7058,0.261533333333333,0.717833333333333,7.175,4.443,6.919,7.881,-0.9013,-0.0992142857142857,0.269042857142857,-2.0362,5.2196,5.0488,623.3165,1,1,0,0
24-May-2018 12:45:53,138.333333333333,0.89928,0.03294,0.4377,-20.1857142857143,-0.285428571428572,-12.4275714285714,11.4106666666667,-0.90474,0.10014,-0.49616,4.085375,0.0256249999999999,1.121,111.834,0.7058,0.261533333333333,0.717833333333333,7.175,4.443,6.919,7.881,-0.9013,-0.0992142857142857,0.269042857142857,-2.0362,5.2196,5.0488,623.3165,1,1,0,0
24-May-2018 12:45:53,138.333333333333,0.89928,0.03294,0.4377,-20.1857142857143,-0.285428571428572,-12.4275714285714,11.4106666666667,-0.90474,0.10014,-0.49616,4.085375,0.0256249999999999,1.121,111.834,0.7058,0.261533333333333,0.717833333333333,7.175,4.443,6.919,7.881,-0.9013,-0.0992142857142857,0.269042857142857,-2.0362,5.2196,5.0488,623.3165,1,1,0,0
24-May-2018 12:45:53,138.333333333333,0.89928,0.03294,0.4377,-20.1857142857143,-0.285428571428572,-12.4275714285714,11.4106666666667,-0.90474,0.10014,-0.49616,4.085375,0.0256249999999999,1.121,111.834,0.7058,0.261533333333333,0.717833333333333,7.175,4.443,6.919,7.881,-0.9013,-0.0992142857142857,0.269042857142857,-2.0362,5.2196,5.0488,623.3165,1,1,0,0
24-May-2018 12:45:54,112.9,0.90662,-0.01672,0.40894,35.2483333333333,-4.221,10.586,12.307,-0.9013,0.092975,-0.494875,1.2205,0.1042,-1.624,111.834,0.733633333333333,0.300566666666667,0.676633333333333,-9.344,17.526,-8.378,8.23416666666667,-0.95184,-0.0703,0.21932,-45.8943333333333,36.2396666666667,58.6586666666667,594.22975,1,0,1,1
24-May-2018 12:45:54,112.9,0.90662,-0.01672,0.40894,35.2483333333333,-4.221,10.586,12.307,-0.9013,0.092975,-0.494875,1.2205,0.1042,-1.624,111.834,0.733633333333333,0.300566666666667,0.676633333333333,-9.344,17.526,-8.378,8.23416666666667,-0.95184,-0.0703,0.21932,-45.8943333333333,36.2396666666667,58.6586666666667,594.22975,1,0,1,1
24-May-2018 12:45:54,112.9,0.90662,-0.01672,0.40894,35.2483333333333,-4.221,10.586,12.307,-0.9013,0.092975,-0.494875,1.2205,0.1042,-1.624,111.834,0.733633333333333,0.300566666666667,0.676633333333333,-9.344,17.526,-8.378,8.23416666666667,-0.95184,-0.0703,0.21932,-45.8943333333333,36.2396666666667,58.6586666666667,594.22975,1,0,1,1
24-May-2018 12:45:54,112.9,0.90662,-0.01672,0.40894,35.2483333333333,-4.221,10.586,12.307,-0.9013,0.092975,-0.494875,1.2205,0.1042,-1.624,111.834,0.733633333333333,0.300566666666667,0.676633333333333,-9.344,17.526,-8.378,8.23416666666667,-0.95184,-0.0703,0.21932,-45.8943333333333,36.2396666666667,58.6586666666667,594.22975,1,0,1,1
24-May-2018 12:45:55,-12.6666666666667,0.9160125,-0.008875,0.3864625,39.5297777777778,-2.45211111111111,19.0056666666667,12.307,-0.906875,0.09005,-0.49445,-2.09571428571429,-0.198142857142857,-1.52,112.221333333333,0.87304,0.25714,0.53494,27.745,7.56833333333333,22.7318333333333,9.834,-1.00016666666667,-0.1169,0.32825,-19.8625,0.305,0.53375,732.56,1,1,1,1
24-May-2018 12:45:55,-12.6666666666667,0.9160125,-0.008875,0.3864625,39.5297777777778,-2.45211111111111,19.0056666666667,12.307,-0.906875,0.09005,-0.49445,-2.09571428571429,-0.198142857142857,-1.52,112.221333333333,0.87304,0.25714,0.53494,27.745,7.56833333333333,22.7318333333333,9.834,-1.00016666666667,-0.1169,0.32825,-19.8625,0.305,0.53375,732.56,1,1,1,1
24-May-2018 12:45:55,-12.6666666666667,0.9160125,-0.008875,0.3864625,39.5297777777778,-2.45211111111111,19.0056666666667,12.307,-0.906875,0.09005,-0.49445,-2.09571428571429,-0.198142857142857,-1.52,112.221333333333,0.87304,0.25714,0.53494,27.745,7.56833333333333,22.7318333333333,9.834,-1.00016666666667,-0.1169,0.32825,-19.8625,0.305,0.53375,732.56,1,1,1,1
24-May-2018 12:45:55,-12.6666666666667,0.9160125,-0.008875,0.3864625,39.5297777777778,-2.45211111111111,19.0056666666667,12.307,-0.906875,0.09005,-0.49445,-2.09571428571429,-0.198142857142857,-1.52,112.221333333333,0.87304,0.25714,0.53494,27.745,7.56833333333333,22.7318333333333,9.834,-1.00016666666667,-0.1169,0.32825,-19.8625,0.305,0.53375,732.56,1,1,1,1
24-May-2018 12:45:56,78.5,0.885977777777778,0.00528888888888889,0.4239,61.8155555555555,-2.07722222222222,21.1413333333333,12.307,-0.90448,0.08734,-0.49932,1.72122222222222,4.39733333333333,0.705333333333333,112.415,0.77245,0.215325,0.4698,39.6466666666667,-8.83,15.6096666666667,10.109,-0.996,-0.1192,0.240275,-70.7516666666667,1.69716666666667,13.5365,665.781,1,1,1,1
24-May-2018 12:45:56,78.5,0.885977777777778,0.00528888888888889,0.4239,61.8155555555555,-2.07722222222222,21.1413333333333,12.307,-0.90448,0.08734,-0.49932,1.72122222222222,4.39733333333333,0.705333333333333,112.415,0.77245,0.215325,0.4698,39.6466666666667,-8.83,15.6096666666667,10.109,-0.996,-0.1192,0.240275,-70.7516666666667,1.69716666666667,13.5365,665.781,1,1,1,1
24-May-2018 12:45:56,78.5,0.885977777777778,0.00528888888888889,0.4239,61.8155555555555,-2.07722222222222,21.1413333333333,12.307,-0.90448,0.08734,-0.49932,1.72122222222222,4.39733333333333,0.705333333333333,112.415,0.77245,0.215325,0.4698,39.6466666666667,-8.83,15.6096666666667,10.109,-0.996,-0.1192,0.240275,-70.7516666666667,1.69716666666667,13.5365,665.781,1,1,1,1
24-May-2018 12:45:56,78.5,0.885977777777778,0.00528888888888889,0.4239,61.8155555555555,-2.07722222222222,21.1413333333333,12.307,-0.90448,0.08734,-0.49932,1.72122222222222,4.39733333333333,0.705333333333333,112.415,0.77245,0.215325,0.4698,39.6466666666667,-8.83,15.6096666666667,10.109,-0.996,-0.1192,0.240275,-70.7516666666667,1.69716666666667,13.5365,665.781,1,1,1,1
24-May-2018 12:45:57,100.111111111111,0.927222222222222,0.0355,0.376111111111111,71.791,-1.28875,17.3015,12.307,-0.903925,0.0891,-0.500625,-0.0793333333333333,-0.308555555555556,0.176222222222222,112.415,0.87176,0.30716,0.57066,63.704,38.498,41.898,4.882,-0.844925,-0.0897,0.204625,-67.438875,3.521125,25.160125,659.590333333333,1,1,1,1
24-May-2018 12:45:57,100.111111111111,0.927222222222222,0.0355,0.376111111111111,71.791,-1.28875,17.3015,12.307,-0.903925,0.0891,-0.500625,-0.0793333333333333,-0.308555555555556,0.176222222222222,112.415,0.87176,0.30716,0.57066,63.704,38.498,41.898,4.882,-0.844925,-0.0897,0.204625,-67.438875,3.521125,25.160125,659.590333333333,1,1,1,1
24-May-2018 12:45:57,100.111111111111,0.927222222222222,0.0355,0.376111111111111,71.791,-1.28875,17.3015,12.307,-0.903925,0.0891,-0.500625,-0.0793333333333333,-0.308555555555556,0.176222222222222,112.415,0.87176,0.30716,0.57066,63.704,38.498,41.898,4.882,-0.844925,-0.0897,0.204625,-67.438875,3.521125,25.160125,659.590333333333,1,1,1,1
24-May-2018 12:45:57,100.111111111111,0.927222222222222,0.0355,0.376111111111111,71.791,-1.28875,17.3015,12.307,-0.903925,0.0891,-0.500625,-0.0793333333333333,-0.308555555555556,0.176222222222222,112.415,0.87176,0.30716,0.57066,63.704,38.498,41.898,4.882,-0.844925,-0.0897,0.204625,-67.438875,3.521125,25.160125,659.590333333333,1,1,1,1
24-May-2018 12:45:58,91.4444444444444,0.827575,-0.02205,0.396575,5.3768,-2.936,4.488,4.7045,-0.911375,0.087325,-0.4949,3.86855555555556,2.06922222222222,1.21966666666667,111.137,0.805225,0.295875,0.405075,57.286,16.1283333333333,19.327,3.72066666666667,-0.965833333333333,-0.0225,0.203016666666667,23.242,-24.7255,-45.528,684.258666666667,1,1,1,1
24-May-2018 12:45:58,91.4444444444444,0.827575,-0.02205,0.396575,5.3768,-2.936,4.488,4.7045,-0.911375,0.087325,-0.4949,3.86855555555556,2.06922222222222,1.21966666666667,111.137,0.805225,0.295875,0.405075,57.286,16.1283333333333,19.327,3.72066666666667,-0.965833333333333,-0.0225,0.203016666666667,23.242,-24.7255,-45.528,684.258666666667,1,1,1,1
24-May-2018 12:45:58,91.4444444444444,0.827575,-0.02205,0.396575,5.3768,-2.936,4.488,4.7045,-0.911375,0.087325,-0.4949,3.86855555555556,2.06922222222222,1.21966666666667,111.137,0.805225,0.295875,0.405075,57.286,16.1283333333333,19.327,3.72066666666667,-0.965833333333333,-0.0225,0.203016666666667,23.242,-24.7255,-45.528,684.258666666667,1,1,1,1
24-May-2018 12:45:58,91.4444444444444,0.827575,-0.02205,0.396575,5.3768,-2.936,4.488,4.7045,-0.911375,0.087325,-0.4949,3.86855555555556,2.06922222222222,1.21966666666667,111.137,0.805225,0.295875,0.405075,57.286,16.1283333333333,19.327,3.72066666666667,-0.965833333333333,-0.0225,0.203016666666667,23.242,-24.7255,-45.528,684.258666666667,1,1,1,1
24-May-2018 12:45:59,82.1428571428571,0.85205,0.05575,0.4207,-41,-11.9566666666667,-24.5,5.68825,-0.9032,0.08425,-0.495475,2.28214285714286,2.683,-0.346285714285714,111.137,0.89415,0.400275,0.4225,-11.5875,-2.35175,8.03925,2.34566666666667,-0.9797,-0.1335,0.308733333333333,29.1565,-13.0995,-5.112,669.197333333333,1,1,1,1
24-May-2018 12:45:59,82.1428571428571,0.85205,0.05575,0.4207,-41,-11.9566666666667,-24.5,5.68825,-0.9032,0.08425,-0.495475,2.28214285714286,2.683,-0.346285714285714,111.137,0.89415,0.400275,0.4225,-11.5875,-2.35175,8.03925,2.34566666666667,-0.9797,-0.1335,0.308733333333333,29.1565,-13.0995,-5.112,669.197333333333,1,1,1,1
24-May-2018 12:45:59,82.1428571428571,0.85205,0.05575,0.4207,-41,-11.9566666666667,-24.5,5.68825,-0.9032,0.08425,-0.495475,2.28214285714286,2.683,-0.346285714285714,111.137,0.89415,0.400275,0.4225,-11.5875,-2.35175,8.03925,2.34566666666667,-0.9797,-0.1335,0.308733333333333,29.1565,-13.0995,-5.112,669.197333333333,1,1,1,1
24-May-2018 12:45:59,82.1428571428571,0.85205,0.05575,0.4207,-41,-11.9566666666667,-24.5,5.68825,-0.9032,0.08425,-0.495475,2.28214285714286,2.683,-0.346285714285714,111.137,0.89415,0.400275,0.4225,-11.5875,-2.35175,8.03925,2.34566666666667,-0.9797,-0.1335,0.308733333333333,29.1565,-13.0995,-5.112,669.197333333333,1,1,1,1
24-May-2018 12:46:00,72.6,0.866685714285714,-0.0209714285714286,0.419871428571429,-14.5394285714286,2.80642857142857,1.48971428571429,5.702,-0.9002,0.08065,-0.50905,1.592,1.2,-1.20888888888889,111.137,0.868475,0.3593,0.580525,-15.8006,-7.792,-1.03,2.747,-0.932366666666667,-0.02995,0.27835,-31.4022857142857,21.8031428571429,16.6897142857143,646.399666666667,1,1,1,1
24-May-2018 12:46:00,72.6,0.866685714285714,-0.0209714285714286,0.419871428571429,-14.5394285714286,2.80642857142857,1.48971428571429,5.702,-0.9002,0.08065,-0.50905,1.592,1.2,-1.20888888888889,111.137,0.868475,0.3593,0.580525,-15.8006,-7.792,-1.03,2.747,-0.932366666666667,-0.02995,0.27835,-31.4022857142857,21.8031428571429,16.6897142857143,646.399666666667,1,1,1,1
24-May-2018 12:46:00,72.6,0.866685714285714,-0.0209714285714286,0.419871428571429,-14.5394285714286,2.80642857142857,1.48971428571429,5.702,-0.9002,0.08065,-0.50905,1.592,1.2,-1.20888888888889,111.137,0.868475,0.3593,0.580525,-15.8006,-7.792,-1.03,2.747,-0.932366666666667,-0.02995,0.27835,-31.4022857142857,21.8031428571429,16.6897142857143,646.399666666667,1,1,1,1
24-May-2018 12:46:00,72.6,0.866685714285714,-0.0209714285714286,0.419871428571429,-14.5394285714286,2.80642857142857,1.48971428571429,5.702,-0.9002,0.08065,-0.50905,1.592,1.2,-1.20888888888889,111.137,0.868475,0.3593,0.580525,-15.8006,-7.792,-1.03,2.747,-0.932366666666667,-0.02995,0.27835,-31.4022857142857,21.8031428571429,16.6897142857143,646.399666666667,1,1,1,1
24-May-2018 12:46:01,67.7142857142857,0.919533333333333,-0.0162,0.398716666666667,32.1113333333333,-7.54016666666667,20.0791666666667,6.78633333333333,-0.898125,0.072275,-0.5184,2.622,2.81311111111111,-0.551111111111111,110.416,0.83292,0.26834,0.49602,17.6413333333333,-3.67016666666667,10.8126666666667,2.5655,-0.915085714285714,-0.0820714285714286,0.243385714285714,-46.8372857142857,-0.034714285714287,21.5331428571429,611.637,1,1,1,1
24-May-2018 12:46:01,67.7142857142857,0.919533333333333,-0.0162,0.398716666666667,32.1113333333333,-7.54016666666667,20.0791666666667,6.78633333333333,-0.898125,0.072275,-0.5184,2.622,2.81311111111111,-0.551111111111111,110.416,0.83292,0.26834,0.49602,17.6413333333333,-3.67016666666667,10.8126666666667,2.5655,-0.915085714285714,-0.0820714285714286,0.243385714285714,-46.8372857142857,-0.034714285714287,21.5331428571429,611.637,1,1,1,1
24-May-2018 12:46:01,67.7142857142857,0.919533333333333,-0.0162,0.398716666666667,32.1113333333333,-7.54016666666667,20.0791666666667,6.78633333333333,-0.898125,0.072275,-0.5184,2.622,2.81311111111111,-0.551111111111111,110.416,0.83292,0.26834,0.49602,17.6413333333333,-3.67016666666667,10.8126666666667,2.5655,-0.915085714285714,-0.0820714285714286,0.243385714285714,-46.8372857142857,-0.034714285714287,21.5331428571429,611.637,1,1,1,1
24-May-2018 12:46:01,67.7142857142857,0.919533333333333,-0.0162,0.398716666666667,32.1113333333333,-7.54016666666667,20.0791666666667,6.78633333333333,-0.898125,0.072275,-0.5184,2.622,2.81311111111111,-0.551111111111111,110.416,0.83292,0.26834,0.49602,17.6413333333333,-3.67016666666667,10.8126666666667,2.5655,-0.915085714285714,-0.0820714285714286,0.243385714285714,-46.8372857142857,-0.034714285714287,21.5331428571429,611.637,1,1,1,1
24-May-2018 12:46:02,42.1111111111111,0.857275,0.0738625,0.4230125,64.1914285714286,-3.61128571428571,21.3642857142857,7.16566666666667,-0.89452,0.07036,-0.51658,0.393285714285714,0.358142857142857,0.863571428571429,110.416,0.86648,0.30836,0.51152,47.5425,3.825,23.625,4.102,-0.9249,-0.064225,0.3294,-92.75625,7.16475,20.30475,669.116,1,1,1,1
24-May-2018 12:46:02,42.1111111111111,0.857275,0.0738625,0.4230125,64.1914285714286,-3.61128571428571,21.3642857142857,7.16566666666667,-0.89452,0.07036,-0.51658,0.393285714285714,0.358142857142857,0.863571428571429,110.416,0.86648,0.30836,0.51152,47.5425,3.825,23.625,4.102,-0.9249,-0.064225,0.3294,-92.75625,7.16475,20.30475,669.116,1,1,1,1
24-May-2018 12:46:02,42.1111111111111,0.857275,0.0738625,0.4230125,64.1914285714286,-3.61128571428571,21.3642857142857,7.16566666666667,-0.89452,0.07036,-0.51658,0.393285714285714,0.358142857142857,0.863571428571429,110.416,0.86648,0.30836,0.51152,47.5425,3.825,23.625,4.102,-0.9249,-0.064225,0.3294,-92.75625,7.16475,20.30475,669.116,1,1,1,1
24-May-2018 12:46:02,42.1111111111111,0.857275,0.0738625,0.4230125,64.1914285714286,-3.61128571428571,21.3642857142857,7.16566666666667,-0.89452,0.07036,-0.51658,0.393285714285714,0.358142857142857,0.863571428571429,110.416,0.86648,0.30836,0.51152,47.5425,3.825,23.625,4.102,-0.9249,-0.064225,0.3294,-92.75625,7.16475,20.30475,669.116,1,1,1,1
24-May-2018 12:46:03,39,0.8992,-0.0564428571428571,0.373771428571429,81.0333333333333,-3.17883333333333,22.863,6.87325,-0.89416,0.07768,-0.51854,-0.831428571428572,0.473142857142857,1.87257142857143,109.193,0.86878,0.27782,0.54118,60.4116666666667,14.8353333333333,35.92,2.07166666666667,-0.9218,-0.05032,0.2294,-54.5826666666667,-11.9106666666667,-3.83116666666667,941.487,1,1,1,1
24-May-2018 12:46:03,39,0.8992,-0.0564428571428571,0.373771428571429,81.0333333333333,-3.17883333333333,22.863,6.87325,-0.89416,0.07768,-0.51854,-0.831428571428572,0.473142857142857,1.87257142857143,109.193,0.86878,0.27782,0.54118,60.4116666666667,14.8353333333333,35.92,2.07166666666667,-0.9218,-0.05032,0.2294,-54.5826666666667,-11.9106666666667,-3.83116666666667,941.487,1,1,1,1
24-May-2018 12:46:03,39,0.8992,-0.0564428571428571,0.373771428571429,81.0333333333333,-3.17883333333333,22.863,6.87325,-0.89416,0.07768,-0.51854,-0.831428571428572,0.473142857142857,1.87257142857143,109.193,0.86878,0.27782,0.54118,60.4116666666667,14.8353333333333,35.92,2.07166666666667,-0.9218,-0.05032,0.2294,-54.5826666666667,-11.9106666666667,-3.83116666666667,941.487,1,1,1,1
24-May-2018 12:46:03,39,0.8992,-0.0564428571428571,0.373771428571429,81.0333333333333,-3.17883333333333,22.863,6.87325,-0.89416,0.07768,-0.51854,-0.831428571428572,0.473142857142857,1.87257142857143,109.193,0.86878,0.27782,0.54118,60.4116666666667,14.8353333333333,35.92,2.07166666666667,-0.9218,-0.05032,0.2294,-54.5826666666667,-11.9106666666667,-3.83116666666667,941.487,1,1,1,1
24-May-2018 12:46:04,-12.3,0.889557142857143,-0.0110428571428571,0.3895,12.4444444444444,0.929444444444444,8.36322222222222,6.87325,-0.897666666666667,0.0881166666666667,-0.514866666666667,-1.39188888888889,-0.376,1.72055555555556,109.193,0.86488,0.2857,0.45596,27.19,5.475,16.915,6.518,-0.967566666666667,-0.09775,0.34575,-108.615666666667,0.121666666666667,31.382,743.34,1,1,0,1
24-May-2018 12:46:04,-12.3,0.889557142857143,-0.0110428571428571,0.3895,12.4444444444444,0.929444444444444,8.36322222222222,6.87325,-0.897666666666667,0.0881166666666667,-0.514866666666667,-1.39188888888889,-0.376,1.72055555555556,109.193,0.86488,0.2857,0.45596,27.19,5.475,16.915,6.518,-0.967566666666667,-0.09775,0.34575,-108.615666666667,0.121666666666667,31.382,743.34,1,1,0,1
24-May-2018 12:46:04,-12.3,0.889557142857143,-0.0110428571428571,0.3895,12.4444444444444,0.929444444444444,8.36322222222222,6.87325,-0.897666666666667,0.0881166666666667,-0.514866666666667,-1.39188888888889,-0.376,1.72055555555556,109.193,0.86488,0.2857,0.45596,27.19,5.475,16.915,6.518,-0.967566666666667,-0.09775,0.34575,-108.615666666667,0.121666666666667,31.382,743.34,1,1,0,1
24-May-2018 12:46:04,-12.3,0.889557142857143,-0.0110428571428571,0.3895,12.4444444444444,0.929444444444444,8.36322222222222,6.87325,-0.897666666666667,0.0881166666666667,-0.514866666666667,-1.39188888888889,-0.376,1.72055555555556,109.193,0.86488,0.2857,0.45596,27.19,5.475,16.915,6.518,-0.967566666666667,-0.09775,0.34575,-108.615666666667,0.121666666666667,31.382,743.34,1,1,0,1
24-May-2018 12:46:05,-380,0.909655555555556,-0.0329111111111111,0.424766666666667,-9.9355,-1.962625,-8.836,6.87325,-0.90265,0.0938666666666667,-0.504066666666667,1.51077777777778,-1.44466666666667,0.413444444444444,110.611,0.697,0.25816,0.49548,7.04071428571429,-0.234142857142857,7.92557142857143,4.961,-0.911225,-0.037475,0.203375,-40.5366,10.8172,37.9146,827.427,1,1,0,1
24-May-2018 12:46:05,-380,0.909655555555556,-0.0329111111111111,0.424766666666667,-9.9355,-1.962625,-8.836,6.87325,-0.90265,0.0938666666666667,-0.504066666666667,1.51077777777778,-1.44466666666667,0.413444444444444,110.611,0.697,0.25816,0.49548,7.04071428571429,-0.234142857142857,7.92557142857143,4.961,-0.911225,-0.037475,0.203375,-40.5366,10.8172,37.9146,827.427,1,1,0,1
24-May-2018 12:46:05,-380,0.909655555555556,-0.0329111111111111,0.424766666666667,-9.9355,-1.962625,-8.836,6.87325,-0.90265,0.0938666666666667,-0.504066666666667,1.51077777777778,-1.44466666666667,0.413444444444444,110.611,0.697,0.25816,0.49548,7.04071428571429,-0.234142857142857,7.92557142857143,4.961,-0.911225,-0.037475,0.203375,-40.5366,10.8172,37.9146,827.427,1,1,0,1
24-May-2018 12:46:05,-380,0.909655555555556,-0.0329111111111111,0.424766666666667,-9.9355,-1.962625,-8.836,6.87325,-0.90265,0.0938666666666667,-0.504066666666667,1.51077777777778,-1.44466666666667,0.413444444444444,110.611,0.697,0.25816,0.49548,7.04071428571429,-0.234142857142857,7.92557142857143,4.961,-0.911225,-0.037475,0.203375,-40.5366,10.8172,37.9146,827.427,1,1,0,1
24-May-2018 12:46:06,-717,0.905671428571429,-0.0623857142857143,0.420157142857143,-2.548125,-1.9335,5.330625,6.87325,-0.9034,0.09182,-0.49982,0.759285714285714,0.725285714285714,0.749428571428571,111.106,0.8158,0.33518,0.568,-2.7725,5.5575,-1.9245,6.7064,-0.958033333333333,-0.05735,0.202933333333333,42.6526666666667,-3.7095,-28.5766666666667,511.8555,1,1,1,1
24-May-2018 12:46:06,-717,0.905671428571429,-0.0623857142857143,0.420157142857143,-2.548125,-1.9335,5.330625,6.87325,-0.9034,0.09182,-0.49982,0.759285714285714,0.725285714285714,0.749428571428571,111.106,0.8158,0.33518,0.568,-2.7725,5.5575,-1.9245,6.7064,-0.958033333333333,-0.05735,0.202933333333333,42.6526666666667,-3.7095,-28.5766666666667,511.8555,1,1,1,1
24-May-2018 12:46:06,-717,0.905671428571429,-0.0623857142857143,0.420157142857143,-2.548125,-1.9335,5.330625,6.87325,-0.9034,0.09182,-0.49982,0.759285714285714,0.725285714285714,0.749428571428571,111.106,0.8158,0.33518,0.568,-2.7725,5.5575,-1.9245,6.7064,-0.958033333333333,-0.05735,0.202933333333333,42.6526666666667,-3.7095,-28.5766666666667,511.8555,1,1,1,1
24-May-2018 12:46:06,-717,0.905671428571429,-0.0623857142857143,0.420157142857143,-2.548125,-1.9335,5.330625,6.87325,-0.9034,0.09182,-0.49982,0.759285714285714,0.725285714285714,0.749428571428571,111.106,0.8158,0.33518,0.568,-2.7725,5.5575,-1.9245,6.7064,-0.958033333333333,-0.05735,0.202933333333333,42.6526666666667,-3.7095,-28.5766666666667,511.8555,1,1,1,1
24-May-2018 12:46:07,-1237.9,0.905671428571429,-0.0623857142857143,0.420157142857143,-2.548125,-1.9335,5.330625,6.87325,-0.9034,0.09182,-0.49982,0.759285714285714,0.725285714285714,0.749428571428571,111.106,0.8158,0.33518,0.568,-2.7725,5.5575,-1.9245,6.7064,-1.1761,-0.0319,0.3354,42.6526666666667,-3.7095,-28.5766666666667,511.8555,1,1,1,0
24-May-2018 12:46:07,-1237.9,0.905671428571429,-0.0623857142857143,0.420157142857143,-2.548125,-1.9335,5.330625,6.87325,-0.9034,0.09182,-0.49982,0.759285714285714,0.725285714285714,0.749428571428571,111.106,0.8158,0.33518,0.568,-2.7725,5.5575,-1.9245,6.7064,-1.1761,-0.0319,0.3354,42.6526666666667,-3.7095,-28.5766666666667,511.8555,1,1,1,0
24-May-2018 12:46:07,-1237.9,0.905671428571429,-0.0623857142857143,0.420157142857143,-2.548125,-1.9335,5.330625,6.87325,-0.9034,0.09182,-0.49982,0.759285714285714,0.725285714285714,0.749428571428571,111.106,0.8158,0.33518,0.568,-2.7725,5.5575,-1.9245,6.7064,-1.1761,-0.0319,0.3354,42.6526666666667,-3.7095,-28.5766666666667,511.8555,1,1,1,0
24-May-2018 12:46:07,-1237.9,0,0,0,0,0,0,6.87325,0,0,0,0,0,0,0,0,0,0,0,0,0,0,-1.1761,-0.0319,0.3354,0,0,0,511.8555,1,1,1,0
24-May-2018 12:46:08,-708.5,0.8893,0.0223285714285714,0.395085714285714,26.6,-1.18516666666667,17.1533333333333,6.87325,-0.9059,0.096475,-0.49615,-1.08333333333333,-0.350833333333333,1.0675,111.271,0.833066666666667,0.357033333333333,0.4425,12.8595,12.3828333333333,19.3373333333333,9.1755,-1.00623333333333,-0.0436333333333333,0.2373,-45.4005714285714,3.08371428571429,12.0558571428571,511.8555,1,1,1,0
24-May-2018 12:46:08,-708.5,0.8893,0.0223285714285714,0.395085714285714,26.6,-1.18516666666667,17.1533333333333,6.87325,-0.9059,0.096475,-0.49615,-1.08333333333333,-0.350833333333333,1.0675,111.271,0.833066666666667,0.357033333333333,0.4425,12.8595,12.3828333333333,19.3373333333333,9.1755,-1.00623333333333,-0.0436333333333333,0.2373,-45.4005714285714,3.08371428571429,12.0558571428571,511.8555,1,1,1,0
24-May-2018 12:46:08,-708.5,0.8893,0.0223285714285714,0.395085714285714,26.6,-1.18516666666667,17.1533333333333,0,-0.9059,0.096475,-0.49615,-1.08333333333333,-0.350833333333333,1.0675,111.271,0.833066666666667,0.357033333333333,0.4425,12.8595,12.3828333333333,19.3373333333333,9.1755,-1.00623333333333,-0.0436333333333333,0.2373,-45.4005714285714,3.08371428571429,12.0558571428571,0,1,1,1,0
24-May-2018 12:46:08,-708.5,0.8893,0.0223285714285714,0.395085714285714,26.6,-1.18516666666667,17.1533333333333,0,-0.9059,0.096475,-0.49615,-1.08333333333333,-0.350833333333333,1.0675,111.271,0.833066666666667,0.357033333333333,0.4425,12.8595,12.3828333333333,19.3373333333333,9.1755,-1.00623333333333,-0.0436333333333333,0.2373,-45.4005714285714,3.08371428571429,12.0558571428571,0,1,1,1,0
24-May-2018 12:46:09,-246,0.887057142857143,-0.0675571428571429,0.403085714285714,55.1257142857143,-5.78214285714286,14.5438571428571,6.133,-0.9039,0.10204,-0.49992,-2.04,-0.0780000000000001,-0.695555555555556,111.485,0.807116666666667,0.2862,0.5765,42.1554285714286,2.13314285714286,23.7697142857143,9.5728,-0.9141,-0.0549,0.339116666666667,-65.212375,17.408625,32.42375,718.745,1,1,1,1
24-May-2018 12:46:09,-246,0.887057142857143,-0.0675571428571429,0.403085714285714,55.1257142857143,-5.78214285714286,14.5438571428571,6.133,-0.9039,0.10204,-0.49992,-2.04,-0.0780000000000001,-0.695555555555556,111.485,0.807116666666667,0.2862,0.5765,42.1554285714286,2.13314285714286,23.7697142857143,9.5728,-0.9141,-0.0549,0.339116666666667,-65.212375,17.408625,32.42375,718.745,1,1,1,1
24-May-2018 12:46:09,-246,0.887057142857143,-0.0675571428571429,0.403085714285714,55.1257142857143,-5.78214285714286,14.5438571428571,6.133,-0.9039,0.10204,-0.49992,-2.04,-0.0780000000000001,-0.695555555555556,111.485,0.807116666666667,0.2862,0.5765,42.1554285714286,2.13314285714286,23.7697142857143,9.5728,-0.9141,-0.0549,0.339116666666667,-65.212375,17.408625,32.42375,718.745,1,1,1,1
24-May-2018 12:46:09,-246,0.887057142857143,-0.0675571428571429,0.403085714285714,55.1257142857143,-5.78214285714286,14.5438571428571,6.133,-0.9039,0.10204,-0.49992,-2.04,-0.0780000000000001,-0.695555555555556,111.485,0.807116666666667,0.2862,0.5765,42.1554285714286,2.13314285714286,23.7697142857143,9.5728,-0.9141,-0.0549,0.339116666666667,-65.212375,17.408625,32.42375,718.745,1,1,1,1
24-May-2018 12:46:10,907.5,0.83558,0.02524,0.49816,107.104,-3.528,36.704,5.493,-0.906333333333333,0.100433333333333,-0.4917,-0.0964,-1.154,-0.4488,112.6985,0.8244,0.296633333333333,0.591033333333333,93.834,29.156,58.154,4.13166666666667,-0.9327,-0.05798,0.16198,-81.00475,-6.7075,51.55475,666.16,1,1,1,1
24-May-2018 12:46:10,907.5,0.83558,0.02524,0.49816,107.104,-3.528,36.704,5.493,-0.906333333333333,0.100433333333333,-0.4917,-0.0964,-1.154,-0.4488,112.6985,0.8244,0.296633333333333,0.591033333333333,93.834,29.156,58.154,4.13166666666667,-0.9327,-0.05798,0.16198,-81.00475,-6.7075,51.55475,666.16,1,1,1,1
24-May-2018 12:46:10,907.5,0.83558,0.02524,0.49816,107.104,-3.528,36.704,5.493,-0.906333333333333,0.100433333333333,-0.4917,-0.0964,-1.154,-0.4488,112.6985,0.8244,0.296633333333333,0.591033333333333,93.834,29.156,58.154,4.13166666666667,-0.9327,-0.05798,0.16198,-81.00475,-6.7075,51.55475,666.16,1,1,1,1
24-May-2018 12:46:10,907.5,0.83558,0.02524,0.49816,107.104,-3.528,36.704,5.493,-0.906333333333333,0.100433333333333,-0.4917,-0.0964,-1.154,-0.4488,112.6985,0.8244,0.296633333333333,0.591033333333333,93.834,29.156,58.154,4.13166666666667,-0.9327,-0.05798,0.16198,-81.00475,-6.7075,51.55475,666.16,1,1,1,1
24-May-2018 12:46:11,579.555555555556,0.9207,-0.010575,0.353825,58.5833333333333,7.56,13.1076666666667,5.226,-0.9086,0.1016,-0.482833333333333,1.4266,-0.3868,1.378,113.912,0.87518,0.29708,0.3868,46.9666666666667,8.02766666666667,11.9273333333333,3.176,-0.960266666666667,-0.110633333333333,0.217766666666667,-93.5955,30.10675,32.59125,670.94,1,1,1,1
24-May-2018 12:46:11,579.555555555556,0.9207,-0.010575,0.353825,58.5833333333333,7.56,13.1076666666667,5.226,-0.9086,0.1016,-0.482833333333333,1.4266,-0.3868,1.378,113.912,0.87518,0.29708,0.3868,46.9666666666667,8.02766666666667,11.9273333333333,3.176,-0.960266666666667,-0.110633333333333,0.217766666666667,-93.5955,30.10675,32.59125,670.94,1,1,1,1
24-May-2018 12:46:11,579.555555555556,0.9207,-0.010575,0.353825,58.5833333333333,7.56,13.1076666666667,5.226,-0.9086,0.1016,-0.482833333333333,1.4266,-0.3868,1.378,113.912,0.87518,0.29708,0.3868,46.9666666666667,8.02766666666667,11.9273333333333,3.176,-0.960266666666667,-0.110633333333333,0.217766666666667,-93.5955,30.10675,32.59125,670.94,1,1,1,1
24-May-2018 12:46:11,579.555555555556,0.9207,-0.010575,0.353825,58.5833333333333,7.56,13.1076666666667,5.226,-0.9086,0.1016,-0.482833333333333,1.4266,-0.3868,1.378,113.912,0.87518,0.29708,0.3868,46.9666666666667,8.02766666666667,11.9273333333333,3.176,-0.960266666666667,-0.110633333333333,0.217766666666667,-93.5955,30.10675,32.59125,670.94,1,1,1,1
24-May-2018 12:46:12,-275.375,0.881314285714286,-0.0311285714285714,0.446771428571429,25.1676,-3.3914,12.2414,5.18266666666667,-0.90532,0.10326,-0.48896,-0.329,-0.445,0.0510000000000001,113.912,0.801242857142857,0.276128571428571,0.517257142857143,-11.3534,3.1728,0.4504,2.9232,-0.9835875,-0.0886875,0.24645,-3.53671428571429,-3.94585714285714,-13.798,752.5815,1,1,1,1
24-May-2018 12:46:12,-275.375,0.881314285714286,-0.0311285714285714,0.446771428571429,25.1676,-3.3914,12.2414,5.18266666666667,-0.90532,0.10326,-0.48896,-0.329,-0.445,0.0510000000000001,113.912,0.801242857142857,0.276128571428571,0.517257142857143,-11.3534,3.1728,0.4504,2.9232,-0.9835875,-0.0886875,0.24645,-3.53671428571429,-3.94585714285714,-13.798,752.5815,1,1,1,1
24-May-2018 12:46:12,-275.375,0.881314285714286,-0.0311285714285714,0.446771428571429,25.1676,-3.3914,12.2414,5.18266666666667,-0.90532,0.10326,-0.48896,-0.329,-0.445,0.0510000000000001,113.912,0.801242857142857,0.276128571428571,0.517257142857143,-11.3534,3.1728,0.4504,2.9232,-0.9835875,-0.0886875,0.24645,-3.53671428571429,-3.94585714285714,-13.798,752.5815,1,1,1,1
24-May-2018 12:46:12,-275.375,0.881314285714286,-0.0311285714285714,0.446771428571429,25.1676,-3.3914,12.2414,5.18266666666667,-0.90532,0.10326,-0.48896,-0.329,-0.445,0.0510000000000001,113.912,0.801242857142857,0.276128571428571,0.517257142857143,-11.3534,3.1728,0.4504,2.9232,-0.9835875,-0.0886875,0.24645,-3.53671428571429,-3.94585714285714,-13.798,752.5815,1,1,1,1
