TIME,HELMET_RAW,BELT_ACC_X,BELT_ACC_Y,BELT_ACC_Z,BELT_ANG_X,BELT_ANG_Y,BELT_ANG_Z,BELT_LUMINOSITY,NECK_ACC_X,NECK_ACC_Y,NECK_ACC_Z,NECK_ANG_X,NECK_ANG_Y,NECK_ANG_Z,NECK_LUMINOSITY,PCKT_ACC_X,PCKT_ACC_Y,PCKT_ACC_Z,PCKT_ANG_X,PCKT_ANG_Y,PCKT_ANG_Z,PCKT_LUMINOSITY,WRST_ACC_X,WRST_ACC_Y,WRST_ACC_Z,WRST_ANG_X,WRST_ANG_Y,WRST_ANG_Z,WRST_LUMINOSITY,IR_1,IR_2,IR_3,IR_4
24-May-2018 11:45:26,192.555555555556,0.890566666666667,-0.0652,0.239533333333333,-7.2575,-5.955,1.75575,39.8728,-0.63102,0.03768,-0.80262,8.908,4.52055555555556,22.9566666666667,170.651,0.235725,0.8598,0.4016,4.695,5.549,-57.4,1.937,-0.933314285714286,-0.169885714285714,-0.377314285714286,-64.7634285714286,1.229,-33.7284285714286,344.8745,0,0,1,0
24-May-2018 11:45:26,192.555555555556,0.890566666666667,-0.0652,0.239533333333333,-7.2575,-5.955,1.75575,39.8728,-0.63102,0.03768,-0.80262,8.908,4.52055555555556,22.9566666666667,170.651,0.235725,0.8598,0.4016,4.695,5.549,-57.4,1.937,-0.933314285714286,-0.169885714285714,-0.377314285714286,-64.7634285714286,1.229,-33.7284285714286,344.8745,0,0,1,0
24-May-2018 11:45:26,192.555555555556,0.890566666666667,-0.0652,0.239533333333333,-7.2575,-5.955,1.75575,39.8728,-0.63102,0.03768,-0.80262,8.908,4.52055555555556,22.9566666666667,170.651,0.235725,0.8598,0.4016,4.695,5.549,-57.4,1.937,-0.933314285714286,-0.169885714285714,-0.377314285714286,-64.7634285714286,1.229,-33.7284285714286,344.8745,0,0,1,0
24-May-2018 11:45:26,192.555555555556,0.890566666666667,-0.0652,0.239533333333333,-7.2575,-5.955,1.75575,39.8728,-0.63102,0.03768,-0.80262,8.908,4.52055555555556,22.9566666666667,170.651,0.235725,0.8598,0.4016,4.695,5.549,-57.4,1.937,-0.933314285714286,-0.169885714285714,-0.377314285714286,-64.7634285714286,1.229,-33.7284285714286,344.8745,0,0,1,0
24-May-2018 11:45:27,321.6,0.890566666666667,-0.0652,0.239533333333333,-7.2575,-5.955,1.75575,39.8728,-0.64368,0.03046,-0.83102,6.78866666666667,-5.79888888888889,7.14755555555556,170.651,-0.20612,0.69028,0.75986,-34.435,3.9875,-14.175,2.83766666666667,-0.908066666666667,0.16815,-0.379733333333333,-120.416,-14.0625,-39.061125,293.45475,0,0,1,0
24-May-2018 11:45:27,321.6,0.890566666666667,-0.0652,0.239533333333333,-7.2575,-5.955,1.75575,39.8728,-0.64368,0.03046,-0.83102,6.78866666666667,-5.79888888888889,7.14755555555556,170.651,-0.20612,0.69028,0.75986,-34.435,3.9875,-14.175,2.83766666666667,-0.908066666666667,0.16815,-0.379733333333333,-120.416,-14.0625,-39.061125,293.45475,0,0,1,0
24-May-2018 11:45:27,321.6,0.890566666666667,-0.0652,0.239533333333333,-7.2575,-5.955,1.75575,39.8728,-0.64368,0.03046,-0.83102,6.78866666666667,-5.79888888888889,7.14755555555556,170.651,-0.20612,0.69028,0.75986,-34.435,3.9875,-14.175,2.83766666666667,-0.908066666666667,0.16815,-0.379733333333333,-120.416,-14.0625,-39.061125,293.45475,0,0,1,0
24-May-2018 11:45:27,321.6,0.890566666666667,-0.0652,0.239533333333333,-7.2575,-5.955,1.75575,39.8728,-0.64368,0.03046,-0.83102,6.78866666666667,-5.79888888888889,7.14755555555556,170.651,-0.20612,0.69028,0.75986,-34.435,3.9875,-14.175,2.83766666666667,-0.908066666666667,0.16815,-0.379733333333333,-120.416,-14.0625,-39.061125,293.45475,0,0,1,0
24-May-2018 11:45:28,339.142857142857,0.890566666666667,-0.0652,0.239533333333333,-7.2575,-5.955,1.75575,39.8728,-0.63652,0.0271,-0.82846,2.06733333333333,-1.44833333333333,-3.05222222222222,165.473,-0.520925,0.58135,0.686075,14.5105,4.84725,-8.0275,0.884333333333333,-0.87945,-0.221383333333333,-0.08905,68.0052857142857,-3.72828571428571,-22.0557142857143,367.801,0,0,1,0
24-May-2018 11:45:28,339.142857142857,0.890566666666667,-0.0652,0.239533333333333,-7.2575,-5.955,1.75575,39.8728,-0.63652,0.0271,-0.82846,2.06733333333333,-1.44833333333333,-3.05222222222222,165.473,-0.520925,0.58135,0.686075,14.5105,4.84725,-8.0275,0.884333333333333,-0.87945,-0.221383333333333,-0.08905,68.0052857142857,-3.72828571428571,-22.0557142857143,367.801,0,0,1,0
24-May-2018 11:45:28,339.142857142857,0.890566666666667,-0.0652,0.239533333333333,-7.2575,-5.955,1.75575,39.8728,-0.63652,0.0271,-0.82846,2.06733333333333,-1.44833333333333,-3.05222222222222,165.473,-0.520925,0.58135,0.686075,14.5105,4.84725,-8.0275,0.884333333333333,-0.87945,-0.221383333333333,-0.08905,68.0052857142857,-3.72828571428571,-22.0557142857143,367.801,0,0,1,0
24-May-2018 11:45:28,339.142857142857,0.890566666666667,-0.0652,0.239533333333333,-7.2575,-5.955,1.75575,39.8728,-0.63652,0.0271,-0.82846,2.06733333333333,-1.44833333333333,-3.05222222222222,165.473,-0.520925,0.58135,0.686075,14.5105,4.84725,-8.0275,0.884333333333333,-0.87945,-0.221383333333333,-0.08905,68.0052857142857,-3.72828571428571,-22.0557142857143,367.801,0,0,1,0
24-May-2018 11:45:29,230.6,0.890566666666667,-0.0652,0.239533333333333,-7.2575,-5.955,1.75575,39.8728,-0.6425,0.01068,-0.83088,-2.29966666666667,-4.20555555555556,-5.05,163.747,0.320666666666667,0.385866666666667,0.847866666666667,-48.74,-94.12,38.033,0.668666666666667,-0.0172166666666667,-0.698333333333333,-0.026,-54.44,-25.8612857142857,-180.921285714286,629.387,0,0,1,0
24-May-2018 11:45:29,230.6,0.890566666666667,-0.0652,0.239533333333333,-7.2575,-5.955,1.75575,39.8728,-0.6425,0.01068,-0.83088,-2.29966666666667,-4.20555555555556,-5.05,163.747,0.320666666666667,0.385866666666667,0.847866666666667,-48.74,-94.12,38.033,0.668666666666667,-0.0172166666666667,-0.698333333333333,-0.026,-54.44,-25.8612857142857,-180.921285714286,629.387,0,0,1,0
24-May-2018 11:45:29,230.6,0.890566666666667,-0.0652,0.239533333333333,-7.2575,-5.955,1.75575,39.8728,-0.6425,0.01068,-0.83088,-2.29966666666667,-4.20555555555556,-5.05,163.747,0.320666666666667,0.385866666666667,0.847866666666667,-48.74,-94.12,38.033,0.668666666666667,-0.0172166666666667,-0.698333333333333,-0.026,-54.44,-25.8612857142857,-180.921285714286,629.387,0,0,1,0
24-May-2018 11:45:29,230.6,0.890566666666667,-0.0652,0.239533333333333,-7.2575,-5.955,1.75575,39.8728,-0.6425,0.01068,-0.83088,-2.29966666666667,-4.20555555555556,-5.05,163.747,0.320666666666667,0.385866666666667,0.847866666666667,-48.74,-94.12,38.033,0.668666666666667,-0.0172166666666667,-0.698333333333333,-0.026,-54.44,-25.8612857142857,-180.921285714286,629.387,0,0,1,0
24-May-2018 11:45:30,17,0.890566666666667,-0.0652,0.239533333333333,-7.2575,-5.955,1.75575,39.8728,-0.654916666666667,0.01,-0.823333333333333,-6.33888888888889,1.06511111111111,-6.34444444444444,163.440333333333,0.769416666666667,-0.20745,0.397033333333333,72.26,-69.66,45.218,3.1995,0.703685714285714,-0.439071428571429,0.545328571428571,22.8172,23.195,11.1462,854.726,0,1,1,0
24-May-2018 11:45:30,17,0.890566666666667,-0.0652,0.239533333333333,-7.2575,-5.955,1.75575,39.8728,-0.654916666666667,0.01,-0.823333333333333,-6.33888888888889,1.06511111111111,-6.34444444444444,163.440333333333,0.769416666666667,-0.20745,0.397033333333333,72.26,-69.66,45.218,3.1995,0.703685714285714,-0.439071428571429,0.545328571428571,22.8172,23.195,11.1462,854.726,0,1,1,0
24-May-2018 11:45:30,17,0.890566666666667,-0.0652,0.239533333333333,-7.2575,-5.955,1.75575,39.8728,-0.654916666666667,0.01,-0.823333333333333,-6.33888888888889,1.06511111111111,-6.34444444444444,163.440333333333,0.769416666666667,-0.20745,0.397033333333333,72.26,-69.66,45.218,3.1995,0.703685714285714,-0.439071428571429,0.545328571428571,22.8172,23.195,11.1462,854.726,0,1,1,0
24-May-2018 11:45:30,17,0.890566666666667,-0.0652,0.239533333333333,-7.2575,-5.955,1.75575,39.8728,-0.654916666666667,0.01,-0.823333333333333,-6.33888888888889,1.06511111111111,-6.34444444444444,163.440333333333,0.769416666666667,-0.20745,0.397033333333333,72.26,-69.66,45.218,3.1995,0.703685714285714,-0.439071428571429,0.545328571428571,22.8172,23.195,11.1462,854.726,0,1,1,0
24-May-2018 11:45:31,14.8571428571429,0.890566666666667,-0.0652,0.239533333333333,-7.2575,-5.955,1.75575,39.8728,-0.6488,0.016,-0.8239,-4.946,-0.2182,-13.281,163.287,0.726375,-0.6191,0.136325,-1.56571428571429,-4.469,-3.55657142857143,2.02,0.5842625,-0.274725,0.7987625,-47.611,5.2945,-15.5486666666667,901.7265,0,1,1,1
24-May-2018 11:45:31,14.8571428571429,0.890566666666667,-0.0652,0.239533333333333,-7.2575,-5.955,1.75575,39.8728,-0.6488,0.016,-0.8239,-4.946,-0.2182,-13.281,163.287,0.726375,-0.6191,0.136325,-1.56571428571429,-4.469,-3.55657142857143,2.02,0.5842625,-0.274725,0.7987625,-47.611,5.2945,-15.5486666666667,901.7265,0,1,1,1
24-May-2018 11:45:31,14.8571428571429,0.890566666666667,-0.0652,0.239533333333333,-7.2575,-5.955,1.75575,39.8728,-0.6488,0.016,-0.8239,-4.946,-0.2182,-13.281,163.287,0.726375,-0.6191,0.136325,-1.56571428571429,-4.469,-3.55657142857143,2.02,0.5842625,-0.274725,0.7987625,-47.611,5.2945,-15.5486666666667,901.7265,0,1,1,1
24-May-2018 11:45:31,14.8571428571429,0.890566666666667,-0.0652,0.239533333333333,-7.2575,-5.955,1.75575,39.8728,-0.6488,0.016,-0.8239,-4.946,-0.2182,-13.281,163.287,0.726375,-0.6191,0.136325,-1.56571428571429,-4.469,-3.55657142857143,2.02,0.5842625,-0.274725,0.7987625,-47.611,5.2945,-15.5486666666667,901.7265,0,1,1,1
24-May-2018 11:45:32,-7.33333333333333,0.890566666666667,-0.0652,0.239533333333333,-7.2575,-5.955,1.75575,39.8728,-0.64265,-0.0378,-0.84025,-1.393125,9.99725,-31.9375,163.287,0.762142857142857,-0.614857142857143,0.0325,-4.66825,1.33025,0.61125,1.98266666666667,0.79702,-0.77522,0.2437,-6.54283333333333,-54.7348333333333,-7.23583333333333,902.621,0,1,1,1
24-May-2018 11:45:32,-7.33333333333333,0.890566666666667,-0.0652,0.239533333333333,-7.2575,-5.955,1.75575,39.8728,-0.64265,-0.0378,-0.84025,-1.393125,9.99725,-31.9375,163.287,0.762142857142857,-0.614857142857143,0.0325,-4.66825,1.33025,0.61125,1.98266666666667,0.79702,-0.77522,0.2437,-6.54283333333333,-54.7348333333333,-7.23583333333333,902.621,0,1,1,1
24-May-2018 11:45:32,-7.33333333333333,0.890566666666667,-0.0652,0.239533333333333,-7.2575,-5.955,1.75575,39.8728,-0.64265,-0.0378,-0.84025,-1.393125,9.99725,-31.9375,163.287,0.762142857142857,-0.614857142857143,0.0325,-4.66825,1.33025,0.61125,1.98266666666667,0.79702,-0.77522,0.2437,-6.54283333333333,-54.7348333333333,-7.23583333333333,902.621,0,1,1,1
24-May-2018 11:45:32,-7.33333333333333,0.890566666666667,-0.0652,0.239533333333333,-7.2575,-5.955,1.75575,39.8728,-0.64265,-0.0378,-0.84025,-1.393125,9.99725,-31.9375,163.287,0.762142857142857,-0.614857142857143,0.0325,-4.66825,1.33025,0.61125,1.98266666666667,0.79702,-0.77522,0.2437,-6.54283333333333,-54.7348333333333,-7.23583333333333,902.621,0,1,1,1
24-May-2018 11:45:33,-199,0.890566666666667,-0.0652,0.239533333333333,-7.2575,-5.955,1.75575,39.8728,-0.616325,-0.065025,-0.8475,-12.4422222222222,9.36155555555555,-23.5444444444444,165.62625,0.73915,-0.624975,0.035525,10.66825,-9.835,0.13975,2.22533333333333,-0.06035,-0.849683333333333,0.20555,33.262125,-32.726875,132.8965,843.207666666667,0,1,1,1
24-May-2018 11:45:33,-199,0.890566666666667,-0.0652,0.239533333333333,-7.2575,-5.955,1.75575,39.8728,-0.616325,-0.065025,-0.8475,-12.4422222222222,9.36155555555555,-23.5444444444444,165.62625,0.73915,-0.624975,0.035525,10.66825,-9.835,0.13975,2.22533333333333,-0.06035,-0.849683333333333,0.20555,33.262125,-32.726875,132.8965,843.207666666667,0,1,1,1
24-May-2018 11:45:33,-199,0.890566666666667,-0.0652,0.239533333333333,-7.2575,-5.955,1.75575,39.8728,-0.616325,-0.065025,-0.8475,-12.4422222222222,9.36155555555555,-23.5444444444444,165.62625,0.73915,-0.624975,0.035525,10.66825,-9.835,0.13975,2.22533333333333,-0.06035,-0.849683333333333,0.20555,33.262125,-32.726875,132.8965,843.207666666667,0,1,1,1
24-May-2018 11:45:33,-199,0.890566666666667,-0.0652,0.239533333333333,-7.2575,-5.955,1.75575,39.8728,-0.616325,-0.065025,-0.8475,-12.4422222222222,9.36155555555555,-23.5444444444444,165.62625,0.73915,-0.624975,0.035525,10.66825,-9.835,0.13975,2.22533333333333,-0.06035,-0.849683333333333,0.20555,33.262125,-32.726875,132.8965,843.207666666667,0,1,1,1
24-May-2018 11:45:34,-41.7,0.890566666666667,-0.0652,0.239533333333333,-7.2575,-5.955,1.75575,39.8728,-0.597,-0.05644,-0.85564,-15.0125,0.747375,-14.4125,166.406,0.743275,-0.63635,0.032625,-4.304,-2.8898,0.5762,2.012,-0.759442857142857,-0.562957142857143,0.171285714285714,-4.855125,12.751625,19.535,667.82,0,1,1,1
24-May-2018 11:45:34,-41.7,0.890566666666667,-0.0652,0.239533333333333,-7.2575,-5.955,1.75575,39.8728,-0.597,-0.05644,-0.85564,-15.0125,0.747375,-14.4125,166.406,0.743275,-0.63635,0.032625,-4.304,-2.8898,0.5762,2.012,-0.759442857142857,-0.562957142857143,0.171285714285714,-4.855125,12.751625,19.535,667.82,0,1,1,1
24-May-2018 11:45:34,-41.7,0.890566666666667,-0.0652,0.239533333333333,-7.2575,-5.955,1.75575,39.8728,-0.597,-0.05644,-0.85564,-15.0125,0.747375,-14.4125,166.406,0.743275,-0.63635,0.032625,-4.304,-2.8898,0.5762,2.012,-0.759442857142857,-0.562957142857143,0.171285714285714,-4.855125,12.751625,19.535,667.82,0,1,1,1
24-May-2018 11:45:34,-41.7,0.890566666666667,-0.0652,0.239533333333333,-7.2575,-5.955,1.75575,39.8728,-0.597,-0.05644,-0.85564,-15.0125,0.747375,-14.4125,166.406,0.743275,-0.63635,0.032625,-4.304,-2.8898,0.5762,2.012,-0.759442857142857,-0.562957142857143,0.171285714285714,-4.855125,12.751625,19.535,667.82,0,1,1,1
24-May-2018 11:45:35,-353.6,0.890566666666667,-0.0652,0.239533333333333,-7.2575,-5.955,1.75575,39.8728,-0.59715,-0.03665,-0.867375,-7.94333333333333,-0.349555555555556,-3.88433333333333,166.406,0.745225,-0.6295,0.098625,-11.415,11.066,-3.41,2.15,-0.928,-0.32705,-0.00325,48.6586,16.6218,-1.2682,687.920333333333,0,1,1,1
24-May-2018 11:45:35,-353.6,0.890566666666667,-0.0652,0.239533333333333,-7.2575,-5.955,1.75575,39.8728,-0.59715,-0.03665,-0.867375,-7.94333333333333,-0.349555555555556,-3.88433333333333,166.406,0.745225,-0.6295,0.098625,-11.415,11.066,-3.41,2.15,-0.928,-0.32705,-0.00325,48.6586,16.6218,-1.2682,687.920333333333,0,1,1,1
24-May-2018 11:45:35,-353.6,0.890566666666667,-0.0652,0.239533333333333,-7.2575,-5.955,1.75575,39.8728,-0.59715,-0.03665,-0.867375,-7.94333333333333,-0.349555555555556,-3.88433333333333,166.406,0.745225,-0.6295,0.098625,-11.415,11.066,-3.41,2.15,-0.928,-0.32705,-0.00325,48.6586,16.6218,-1.2682,687.920333333333,0,1,1,1
24-May-2018 11:45:35,-353.6,0.890566666666667,-0.0652,0.239533333333333,-7.2575,-5.955,1.75575,39.8728,-0.59715,-0.03665,-0.867375,-7.94333333333333,-0.349555555555556,-3.88433333333333,166.406,0.745225,-0.6295,0.098625,-11.415,11.066,-3.41,2.15,-0.928,-0.32705,-0.00325,48.6586,16.6218,-1.2682,687.920333333333,0,1,1,1
