TIME,HELMET_RAW,BELT_ACC_X,BELT_ACC_Y,BELT_ACC_Z,BELT_ANG_X,BELT_ANG_Y,BELT_ANG_Z,BELT_LUMINOSITY,NECK_ACC_X,NECK_ACC_Y,NECK_ACC_Z,NECK_ANG_X,NECK_ANG_Y,NECK_ANG_Z,NECK_LUMINOSITY,PCKT_ACC_X,PCKT_ACC_Y,PCKT_ACC_Z,PCKT_ANG_X,PCKT_ANG_Y,PCKT_ANG_Z,PCKT_LUMINOSITY,WRST_ACC_X,WRST_ACC_Y,WRST_ACC_Z,WRST_ANG_X,WRST_ANG_Y,WRST_ANG_Z,WRST_LUMINOSITY,IR_1,IR_2,IR_3,IR_4
24-May-2018 11:44:57,293.272727272727,0.890566666666667,-0.0652,0.239533333333333,-7.2575,-5.955,1.75575,39.8728,-0.42646,0.0129,-0.96332,1.82975,-3.6175,2.5465,183.754,-0.356783333333333,0.0962,1.02338333333333,9.64616666666667,17.913,-10.2855,3.53875,-0.457225,-0.8463,-0.205075,-0.7725,-0.731833333333333,-0.0711666666666667,1.472,1,1,1,1
24-May-2018 11:44:57,293.272727272727,0.890566666666667,-0.0652,0.239533333333333,-7.2575,-5.955,1.75575,39.8728,-0.42646,0.0129,-0.96332,1.82975,-3.6175,2.5465,183.754,-0.356783333333333,0.0962,1.02338333333333,9.64616666666667,17.913,-10.2855,3.53875,-0.457225,-0.8463,-0.205075,-0.7725,-0.731833333333333,-0.0711666666666667,1.472,1,1,1,1
24-May-2018 11:44:57,293.272727272727,0.890566666666667,-0.0652,0.239533333333333,-7.2575,-5.955,1.75575,39.8728,-0.42646,0.0129,-0.96332,1.82975,-3.6175,2.5465,183.754,-0.356783333333333,0.0962,1.02338333333333,9.64616666666667,17.913,-10.2855,3.53875,-0.457225,-0.8463,-0.205075,-0.7725,-0.731833333333333,-0.0711666666666667,1.472,1,1,1,1
24-May-2018 11:44:57,0,0.890566666666667,-0.0652,0.239533333333333,-7.2575,-5.955,1.75575,39.8728,-0.42646,0.0129,-0.96332,1.82975,-3.6175,2.5465,183.754,-0.356783333333333,0.0962,1.02338333333333,9.64616666666667,17.913,-10.2855,3.53875,-0.457225,-0.8463,-0.205075,-0.7725,-0.731833333333333,-0.0711666666666667,1.472,1,1,1,1
24-May-2018 11:44:58,308.111111111111,0.890566666666667,-0.0652,0.239533333333333,-7.2575,-5.955,1.75575,39.8728,-0.453025,0.00665,-0.963775,-1.58277777777778,-5.61211111111111,1.40322222222222,186.277,-0.759833333333333,0.11085,0.757183333333333,10.492,-21.863,31.326,2.399,-0.46074,-0.84176,-0.20136,0.663125,-1.92075,-0.434625,1.516,0,0,1,0
24-May-2018 11:44:58,308.111111111111,0.890566666666667,-0.0652,0.239533333333333,-7.2575,-5.955,1.75575,39.8728,-0.453025,0.00665,-0.963775,-1.58277777777778,-5.61211111111111,1.40322222222222,186.277,-0.759833333333333,0.11085,0.757183333333333,10.492,-21.863,31.326,2.399,-0.46074,-0.84176,-0.20136,0.663125,-1.92075,-0.434625,1.516,0,0,1,0
24-May-2018 11:44:58,308.111111111111,0.890566666666667,-0.0652,0.239533333333333,-7.2575,-5.955,1.75575,39.8728,-0.453025,0.00665,-0.963775,-1.58277777777778,-5.61211111111111,1.40322222222222,186.277,-0.759833333333333,0.11085,0.757183333333333,10.492,-21.863,31.326,2.399,-0.46074,-0.84176,-0.20136,0.663125,-1.92075,-0.434625,1.516,0,0,1,0
24-May-2018 11:44:58,308.111111111111,0.890566666666667,-0.0652,0.239533333333333,-7.2575,-5.955,1.75575,39.8728,-0.453025,0.00665,-0.963775,-1.58277777777778,-5.61211111111111,1.40322222222222,186.277,-0.759833333333333,0.11085,0.757183333333333,10.492,-21.863,31.326,2.399,-0.46074,-0.84176,-0.20136,0.663125,-1.92075,-0.434625,1.516,0,0,1,0
24-May-2018 11:44:59,212.6,0.890566666666667,-0.0652,0.239533333333333,-7.2575,-5.955,1.75575,39.8728,-0.46804,0.02098,-0.94314,-1.81725,-5.1625,0.336625,187.118,-0.18878,0.31684,0.96832,-57.33,-51.4575,38.4625,0.314,-0.472842857142857,-0.838171428571428,-0.172657142857143,0.193,-2.61183333333333,0.335333333333333,1.51633333333333,0,0,1,0
24-May-2018 11:44:59,212.6,0.890566666666667,-0.0652,0.239533333333333,-7.2575,-5.955,1.75575,39.8728,-0.46804,0.02098,-0.94314,-1.81725,-5.1625,0.336625,187.118,-0.18878,0.31684,0.96832,-57.33,-51.4575,38.4625,0.314,-0.472842857142857,-0.838171428571428,-0.172657142857143,0.193,-2.61183333333333,0.335333333333333,1.51633333333333,0,0,1,0
24-May-2018 11:44:59,212.6,0.890566666666667,-0.0652,0.239533333333333,-7.2575,-5.955,1.75575,39.8728,-0.46804,0.02098,-0.94314,-1.81725,-5.1625,0.336625,187.118,-0.18878,0.31684,0.96832,-57.33,-51.4575,38.4625,0.314,-0.472842857142857,-0.838171428571428,-0.172657142857143,0.193,-2.61183333333333,0.335333333333333,1.51633333333333,0,0,1,0
24-May-2018 11:44:59,212.6,0.890566666666667,-0.0652,0.239533333333333,-7.2575,-5.955,1.75575,39.8728,-0.46804,0.02098,-0.94314,-1.81725,-5.1625,0.336625,187.118,-0.18878,0.31684,0.96832,-57.33,-51.4575,38.4625,0.314,-0.472842857142857,-0.838171428571428,-0.172657142857143,0.193,-2.61183333333333,0.335333333333333,1.51633333333333,0,0,1,0
24-May-2018 11:45:00,-36.5714285714286,0.890566666666667,-0.0652,0.239533333333333,-7.2575,-5.955,1.75575,39.8728,-0.481566666666667,0.0260666666666667,-0.941866666666667,-0.465166666666667,-5.11833333333333,0.599833333333333,187.118,0.811985714285714,-0.1747,0.399728571428571,-35.102,-26.962,21.338,4.9475,-0.473983333333333,-0.8396,-0.178016666666667,1.2195,0.808125,-1.013875,1.505,0,0.5,1,0
24-May-2018 11:45:00,-36.5714285714286,0.890566666666667,-0.0652,0.239533333333333,-7.2575,-5.955,1.75575,39.8728,-0.481566666666667,0.0260666666666667,-0.941866666666667,-0.465166666666667,-5.11833333333333,0.599833333333333,187.118,0.811985714285714,-0.1747,0.399728571428571,-35.102,-26.962,21.338,4.9475,-0.473983333333333,-0.8396,-0.178016666666667,1.2195,0.808125,-1.013875,1.505,0,0.5,1,0
24-May-2018 11:45:00,-36.5714285714286,0.890566666666667,-0.0652,0.239533333333333,-7.2575,-5.955,1.75575,39.8728,-0.481566666666667,0.0260666666666667,-0.941866666666667,-0.465166666666667,-5.11833333333333,0.599833333333333,187.118,0.811985714285714,-0.1747,0.399728571428571,-35.102,-26.962,21.338,4.9475,-0.473983333333333,-0.8396,-0.178016666666667,1.2195,0.808125,-1.013875,1.505,0,0.5,1,0
24-May-2018 11:45:00,-36.5714285714286,0.890566666666667,-0.0652,0.239533333333333,-7.2575,-5.955,1.75575,39.8728,-0.481566666666667,0.0260666666666667,-0.941866666666667,-0.465166666666667,-5.11833333333333,0.599833333333333,187.118,0.811985714285714,-0.1747,0.399728571428571,-35.102,-26.962,21.338,4.9475,-0.473983333333333,-0.8396,-0.178016666666667,1.2195,0.808125,-1.013875,1.505,0,0.5,1,0
24-May-2018 11:45:01,-180.8,0.890566666666667,-0.0652,0.239533333333333,-7.2575,-5.955,1.75575,39.8728,-0.4893,0.021,-0.938075,1.70055555555556,-4.10777777777778,-0.303777777777778,185.493333333333,0.91705,-0.305975,0.131425,-6.9812,0.3904,-0.2276,6.2185,-0.472066666666667,-0.842266666666667,-0.176066666666667,-2.1584,-0.2926,-1.2318,1.51233333333333,0,1,1,0
24-May-2018 11:45:01,-180.8,0.890566666666667,-0.0652,0.239533333333333,-7.2575,-5.955,1.75575,39.8728,-0.4893,0.021,-0.938075,1.70055555555556,-4.10777777777778,-0.303777777777778,185.493333333333,0.91705,-0.305975,0.131425,-6.9812,0.3904,-0.2276,6.2185,-0.472066666666667,-0.842266666666667,-0.176066666666667,-2.1584,-0.2926,-1.2318,1.51233333333333,0,1,1,0
24-May-2018 11:45:01,-180.8,0.890566666666667,-0.0652,0.239533333333333,-7.2575,-5.955,1.75575,39.8728,-0.4893,0.021,-0.938075,1.70055555555556,-4.10777777777778,-0.303777777777778,185.493333333333,0.91705,-0.305975,0.131425,-6.9812,0.3904,-0.2276,6.2185,-0.472066666666667,-0.842266666666667,-0.176066666666667,-2.1584,-0.2926,-1.2318,1.51233333333333,0,1,1,0
24-May-2018 11:45:01,-180.8,0.890566666666667,-0.0652,0.239533333333333,-7.2575,-5.955,1.75575,39.8728,-0.4893,0.021,-0.938075,1.70055555555556,-4.10777777777778,-0.303777777777778,185.493333333333,0.91705,-0.305975,0.131425,-6.9812,0.3904,-0.2276,6.2185,-0.472066666666667,-0.842266666666667,-0.176066666666667,-2.1584,-0.2926,-1.2318,1.51233333333333,0,1,1,0
24-May-2018 11:45:02,-271.2,0.890566666666667,-0.0652,0.239533333333333,-7.2575,-5.955,1.75575,39.8728,-0.4958,0.0148666666666667,-0.928366666666667,2.22583333333333,-6.65166666666667,-0.343333333333333,182.244,0.916533333333333,-0.308933333333333,0.180566666666667,-5.455,2.89625,-0.4065,5.06,-0.463475,-0.84195,-0.184775,1.9634,0.439,0.0732,1.54366666666667,0,1,1,0
24-May-2018 11:45:02,-271.2,0.890566666666667,-0.0652,0.239533333333333,-7.2575,-5.955,1.75575,39.8728,-0.4958,0.0148666666666667,-0.928366666666667,2.22583333333333,-6.65166666666667,-0.343333333333333,182.244,0.916533333333333,-0.308933333333333,0.180566666666667,-5.455,2.89625,-0.4065,5.06,-0.463475,-0.84195,-0.184775,1.9634,0.439,0.0732,1.54366666666667,0,1,1,0
24-May-2018 11:45:02,-271.2,0.890566666666667,-0.0652,0.239533333333333,-7.2575,-5.955,1.75575,39.8728,-0.4958,0.0148666666666667,-0.928366666666667,2.22583333333333,-6.65166666666667,-0.343333333333333,182.244,0.916533333333333,-0.308933333333333,0.180566666666667,-5.455,2.89625,-0.4065,5.06,-0.463475,-0.84195,-0.184775,1.9634,0.439,0.0732,1.54366666666667,0,1,1,0
24-May-2018 11:45:02,-271.2,0.890566666666667,-0.0652,0.239533333333333,-7.2575,-5.955,1.75575,39.8728,-0.4958,0.0148666666666667,-0.928366666666667,2.22583333333333,-6.65166666666667,-0.343333333333333,182.244,0.916533333333333,-0.308933333333333,0.180566666666667,-5.455,2.89625,-0.4065,5.06,-0.463475,-0.84195,-0.184775,1.9634,0.439,0.0732,1.54366666666667,0,1,1,0
24-May-2018 11:45:03,-107.8,0.890566666666667,-0.0652,0.239533333333333,-7.2575,-5.955,1.75575,39.8728,-0.5186,0.009525,-0.915225,1.48085714285714,-5.16142857142857,1.03657142857143,182.244,0.899425,-0.277375,0.243225,5.0236,6.2442,2.3076,4.5406,-0.451033333333333,-0.868233333333333,-0.212866666666667,3.65833333333333,-2.886,-0.548666666666667,1.576,0,1,1,1
24-May-2018 11:45:03,-107.8,0.890566666666667,-0.0652,0.239533333333333,-7.2575,-5.955,1.75575,39.8728,-0.5186,0.009525,-0.915225,1.48085714285714,-5.16142857142857,1.03657142857143,182.244,0.899425,-0.277375,0.243225,5.0236,6.2442,2.3076,4.5406,-0.451033333333333,-0.868233333333333,-0.212866666666667,3.65833333333333,-2.886,-0.548666666666667,1.576,0,1,1,1
24-May-2018 11:45:03,-107.8,0.890566666666667,-0.0652,0.239533333333333,-7.2575,-5.955,1.75575,39.8728,-0.5186,0.009525,-0.915225,1.48085714285714,-5.16142857142857,1.03657142857143,182.244,0.899425,-0.277375,0.243225,5.0236,6.2442,2.3076,4.5406,-0.451033333333333,-0.868233333333333,-0.212866666666667,3.65833333333333,-2.886,-0.548666666666667,1.576,0,1,1,1
24-May-2018 11:45:03,-107.8,0.890566666666667,-0.0652,0.239533333333333,-7.2575,-5.955,1.75575,39.8728,-0.5186,0.009525,-0.915225,1.48085714285714,-5.16142857142857,1.03657142857143,182.244,0.899425,-0.277375,0.243225,5.0236,6.2442,2.3076,4.5406,-0.451033333333333,-0.868233333333333,-0.212866666666667,3.65833333333333,-2.886,-0.548666666666667,1.576,0,1,1,1
24-May-2018 11:45:04,-143.4,0.890566666666667,-0.0652,0.239533333333333,-7.2575,-5.955,1.75575,39.8728,-0.5291,0.0134,-0.912216666666667,-0.1415,-3.355,2.8965,178.84575,0.899466666666667,-0.3155,0.360833333333333,-12.8925,7.06875,-14.1225,4.8615,-0.973625,-0.209075,-0.131725,-88.6641428571429,14.1638571428571,73.8762857142857,21.1005,0,1,1,1
24-May-2018 11:45:04,-143.4,0.890566666666667,-0.0652,0.239533333333333,-7.2575,-5.955,1.75575,39.8728,-0.5291,0.0134,-0.912216666666667,-0.1415,-3.355,2.8965,178.84575,0.899466666666667,-0.3155,0.360833333333333,-12.8925,7.06875,-14.1225,4.8615,-0.973625,-0.209075,-0.131725,-88.6641428571429,14.1638571428571,73.8762857142857,21.1005,0,1,1,1
24-May-2018 11:45:04,-143.4,0.890566666666667,-0.0652,0.239533333333333,-7.2575,-5.955,1.75575,39.8728,-0.5291,0.0134,-0.912216666666667,-0.1415,-3.355,2.8965,178.84575,0.899466666666667,-0.3155,0.360833333333333,-12.8925,7.06875,-14.1225,4.8615,-0.973625,-0.209075,-0.131725,-88.6641428571429,14.1638571428571,73.8762857142857,21.1005,0,1,1,1
24-May-2018 11:45:04,-143.4,0.890566666666667,-0.0652,0.239533333333333,-7.2575,-5.955,1.75575,39.8728,-0.5291,0.0134,-0.912216666666667,-0.1415,-3.355,2.8965,178.84575,0.899466666666667,-0.3155,0.360833333333333,-12.8925,7.06875,-14.1225,4.8615,-0.973625,-0.209075,-0.131725,-88.6641428571429,14.1638571428571,73.8762857142857,21.1005,0,1,1,1
24-May-2018 11:45:05,-195.428571428571,0.890566666666667,-0.0652,0.239533333333333,-7.2575,-5.955,1.75575,39.8728,-0.53166,0.01516,-0.91982,-0.274888888888889,1.46411111111111,-1.00833333333333,177.713,0.9907,-0.30338,0.25786,-68.2333333333333,-10.6,-16.4733333333333,3.4114,-0.9601,-0.2447,-0.0759166666666667,-181.542333333333,-25.5588333333333,3.28283333333333,297.488,0,1,1,1
24-May-2018 11:45:05,-195.428571428571,0.890566666666667,-0.0652,0.239533333333333,-7.2575,-5.955,1.75575,39.8728,-0.53166,0.01516,-0.91982,-0.274888888888889,1.46411111111111,-1.00833333333333,177.713,0.9907,-0.30338,0.25786,-68.2333333333333,-10.6,-16.4733333333333,3.4114,-0.9601,-0.2447,-0.0759166666666667,-181.542333333333,-25.5588333333333,3.28283333333333,297.488,0,1,1,1
24-May-2018 11:45:05,-195.428571428571,0.890566666666667,-0.0652,0.239533333333333,-7.2575,-5.955,1.75575,39.8728,-0.53166,0.01516,-0.91982,-0.274888888888889,1.46411111111111,-1.00833333333333,177.713,0.9907,-0.30338,0.25786,-68.2333333333333,-10.6,-16.4733333333333,3.4114,-0.9601,-0.2447,-0.0759166666666667,-181.542333333333,-25.5588333333333,3.28283333333333,297.488,0,1,1,1
24-May-2018 11:45:05,-195.428571428571,0.890566666666667,-0.0652,0.239533333333333,-7.2575,-5.955,1.75575,39.8728,-0.53166,0.01516,-0.91982,-0.274888888888889,1.46411111111111,-1.00833333333333,177.713,0.9907,-0.30338,0.25786,-68.2333333333333,-10.6,-16.4733333333333,3.4114,-0.9601,-0.2447,-0.0759166666666667,-181.542333333333,-25.5588333333333,3.28283333333333,297.488,0,1,1,1
24-May-2018 11:45:06,-192.9,0.890566666666667,-0.0652,0.239533333333333,-7.2575,-5.955,1.75575,39.8728,-0.525225,0.01605,-0.910075,1.753125,2.012125,-0.32425,176.997,0.907,-0.3531,0.07035,-2.8652,-5.6104,0.2224,3.87666666666667,-1.0099,-0.24965,0.035425,-15.871,-3.34471428571429,-36.1322857142857,690.3765,0,1,1,0
24-May-2018 11:45:06,-192.9,0.890566666666667,-0.0652,0.239533333333333,-7.2575,-5.955,1.75575,39.8728,-0.525225,0.01605,-0.910075,1.753125,2.012125,-0.32425,176.997,0.907,-0.3531,0.07035,-2.8652,-5.6104,0.2224,3.87666666666667,-1.0099,-0.24965,0.035425,-15.871,-3.34471428571429,-36.1322857142857,690.3765,0,1,1,0
24-May-2018 11:45:06,-192.9,0.890566666666667,-0.0652,0.239533333333333,-7.2575,-5.955,1.75575,39.8728,-0.525225,0.01605,-0.910075,1.753125,2.012125,-0.32425,176.997,0.907,-0.3531,0.07035,-2.8652,-5.6104,0.2224,3.87666666666667,-1.0099,-0.24965,0.035425,-15.871,-3.34471428571429,-36.1322857142857,690.3765,0,1,1,0
24-May-2018 11:45:06,-192.9,0.890566666666667,-0.0652,0.239533333333333,-7.2575,-5.955,1.75575,39.8728,-0.525225,0.01605,-0.910075,1.753125,2.012125,-0.32425,176.997,0.907,-0.3531,0.07035,-2.8652,-5.6104,0.2224,3.87666666666667,-1.0099,-0.24965,0.035425,-15.871,-3.34471428571429,-36.1322857142857,690.3765,0,1,1,0
