TIME,HELMET_RAW,BELT_ACC_X,BELT_ACC_Y,BELT_ACC_Z,BELT_ANG_X,BELT_ANG_Y,BELT_ANG_Z,BELT_LUMINOSITY,NECK_ACC_X,NECK_ACC_Y,NECK_ACC_Z,NECK_ANG_X,NECK_ANG_Y,NECK_ANG_Z,NECK_LUMINOSITY,PCKT_ACC_X,PCKT_ACC_Y,PCKT_ACC_Z,PCKT_ANG_X,PCKT_ANG_Y,PCKT_ANG_Z,PCKT_LUMINOSITY,WRST_ACC_X,WRST_ACC_Y,WRST_ACC_Z,WRST_ANG_X,WRST_ANG_Y,WRST_ANG_Z,WRST_LUMINOSITY,IR_1,IR_2,IR_3,IR_4
24-May-2018 13:28:19,4.44444444444444,0.96615,0.061175,-0.1146,-0.249999999999999,-0.998,-5.2828,345.365,1.0432,-0.419,-0.427825,171.561111111111,-101.408888888889,-48.79,184.209,-1.020475,0.0881,0.094,-57.8,-23.93775,8.46125,0.118,-0.989516666666667,-0.157116666666667,0.0966833333333333,-39.828,7.5732,23.5002,496.741,1,1,0,1
24-May-2018 13:28:19,4.44444444444444,0.96615,0.061175,-0.1146,-0.249999999999999,-0.998,-5.2828,345.365,1.0432,-0.419,-0.427825,171.561111111111,-101.408888888889,-48.79,184.209,-1.020475,0.0881,0.094,-57.8,-23.93775,8.46125,0.118,-0.989516666666667,-0.157116666666667,0.0966833333333333,-39.828,7.5732,23.5002,496.741,1,1,0,1
24-May-2018 13:28:19,4.44444444444444,0.96615,0.061175,-0.1146,-0.249999999999999,-0.998,-5.2828,345.365,1.0432,-0.419,-0.427825,171.561111111111,-101.408888888889,-48.79,184.209,-1.020475,0.0881,0.094,-57.8,-23.93775,8.46125,0.118,-0.989516666666667,-0.157116666666667,0.0966833333333333,-39.828,7.5732,23.5002,496.741,1,1,0,1
24-May-2018 13:28:19,4.44444444444444,0.96615,0.061175,-0.1146,-0.249999999999999,-0.998,-5.2828,345.365,1.0432,-0.419,-0.427825,171.561111111111,-101.408888888889,-48.79,184.209,-1.020475,0.0881,0.094,-57.8,-23.93775,8.46125,0.118,-0.989516666666667,-0.157116666666667,0.0966833333333333,-39.828,7.5732,23.5002,496.741,1,1,0,1
24-May-2018 13:28:20,-52.5555555555556,0.948383333333333,0.1045,-0.129466666666667,31.7325,0.43,-6.24,346.309333333333,1.00795,-0.1612,-0.3697,8.1875,-110.4425,51.98125,114.973,-0.96982,0.000780000000000003,-0.10408,-21.5485,11.2676666666667,-3.03583333333333,0.118,-0.956914285714286,-0.0304571428571429,0.181657142857143,-41.4024285714286,-1.47228571428571,5.92328571428571,760.223,1,1,0,1
24-May-2018 13:28:20,-52.5555555555556,0.948383333333333,0.1045,-0.129466666666667,31.7325,0.43,-6.24,346.309333333333,1.00795,-0.1612,-0.3697,8.1875,-110.4425,51.98125,114.973,-0.96982,0.000780000000000003,-0.10408,-21.5485,11.2676666666667,-3.03583333333333,0.118,-0.956914285714286,-0.0304571428571429,0.181657142857143,-41.4024285714286,-1.47228571428571,5.92328571428571,760.223,1,1,0,1
24-May-2018 13:28:20,-52.5555555555556,0.948383333333333,0.1045,-0.129466666666667,31.7325,0.43,-6.24,346.309333333333,1.00795,-0.1612,-0.3697,8.1875,-110.4425,51.98125,114.973,-0.96982,0.000780000000000003,-0.10408,-21.5485,11.2676666666667,-3.03583333333333,0.118,-0.956914285714286,-0.0304571428571429,0.181657142857143,-41.4024285714286,-1.47228571428571,5.92328571428571,760.223,1,1,0,1
24-May-2018 13:28:20,-52.5555555555556,0.948383333333333,0.1045,-0.129466666666667,31.7325,0.43,-6.24,346.309333333333,1.00795,-0.1612,-0.3697,8.1875,-110.4425,51.98125,114.973,-0.96982,0.000780000000000003,-0.10408,-21.5485,11.2676666666667,-3.03583333333333,0.118,-0.956914285714286,-0.0304571428571429,0.181657142857143,-41.4024285714286,-1.47228571428571,5.92328571428571,760.223,1,1,0,1
24-May-2018 13:28:21,-5.42857142857143,0.94194,0.06458,-0.12772,15.8838333333333,4.65333333333333,-4.28083333333333,359.451666666667,0.806125,-0.46785,-0.262025,-29.1285714285714,-123.03,52.1511428571429,114.973,-1.04654,0.1391,-0.0138,-14.2033333333333,-12.9216666666667,-5.92266666666667,0.118,-0.95678,-0.13184,0.08534,-18.3435,0.701166666666667,7.07333333333333,749.50625,1,1,1,1
24-May-2018 13:28:21,-5.42857142857143,0.94194,0.06458,-0.12772,15.8838333333333,4.65333333333333,-4.28083333333333,359.451666666667,0.806125,-0.46785,-0.262025,-29.1285714285714,-123.03,52.1511428571429,114.973,-1.04654,0.1391,-0.0138,-14.2033333333333,-12.9216666666667,-5.92266666666667,0.118,-0.95678,-0.13184,0.08534,-18.3435,0.701166666666667,7.07333333333333,749.50625,1,1,1,1
24-May-2018 13:28:21,-5.42857142857143,0.94194,0.06458,-0.12772,15.8838333333333,4.65333333333333,-4.28083333333333,359.451666666667,0.806125,-0.46785,-0.262025,-29.1285714285714,-123.03,52.1511428571429,114.973,-1.04654,0.1391,-0.0138,-14.2033333333333,-12.9216666666667,-5.92266666666667,0,-0.95678,-0.13184,0.08534,-18.3435,0.701166666666667,7.07333333333333,749.50625,1,1,1,1
24-May-2018 13:28:21,-5.42857142857143,0.94194,0.06458,-0.12772,15.8838333333333,4.65333333333333,-4.28083333333333,359.451666666667,0.806125,-0.46785,-0.262025,-29.1285714285714,-123.03,52.1511428571429,114.973,-1.04654,0.1391,-0.0138,-14.2033333333333,-12.9216666666667,-5.92266666666667,0,-0.95678,-0.13184,0.08534,-18.3435,0.701166666666667,7.07333333333333,749.50625,1,1,1,1
24-May-2018 13:28:22,-5.33333333333333,0.949914285714286,0.107328571428571,-0.1909,53.0257142857143,2.70914285714286,0.445285714285714,306.818666666667,0.615025,-0.518525,-0.300425,-49.5922222222222,186.849888888889,-83.6255555555556,114.973,-1.05747142857143,0.108371428571429,0.119971428571429,-84.9333333333333,23.7373333333333,3.05666666666667,0.047,-0.94624,-0.08448,0.20362,-38.3536666666667,-19.5631666666667,-10.5996666666667,749.50625,1,1,0,1
24-May-2018 13:28:22,-5.33333333333333,0.949914285714286,0.107328571428571,-0.1909,53.0257142857143,2.70914285714286,0.445285714285714,306.818666666667,0.615025,-0.518525,-0.300425,-49.5922222222222,186.849888888889,-83.6255555555556,114.973,-1.05747142857143,0.108371428571429,0.119971428571429,-84.9333333333333,23.7373333333333,3.05666666666667,0.047,-0.94624,-0.08448,0.20362,-38.3536666666667,-19.5631666666667,-10.5996666666667,749.50625,1,1,0,1
24-May-2018 13:28:22,-5.33333333333333,0.949914285714286,0.107328571428571,-0.1909,53.0257142857143,2.70914285714286,0.445285714285714,306.818666666667,0.615025,-0.518525,-0.300425,-49.5922222222222,186.849888888889,-83.6255555555556,114.973,-1.05747142857143,0.108371428571429,0.119971428571429,-84.9333333333333,23.7373333333333,3.05666666666667,0.047,-0.94624,-0.08448,0.20362,-38.3536666666667,-19.5631666666667,-10.5996666666667,749.50625,1,1,0,1
24-May-2018 13:28:22,-5.33333333333333,0.949914285714286,0.107328571428571,-0.1909,53.0257142857143,2.70914285714286,0.445285714285714,306.818666666667,0.615025,-0.518525,-0.300425,-49.5922222222222,186.849888888889,-83.6255555555556,114.973,-1.05747142857143,0.108371428571429,0.119971428571429,-84.9333333333333,23.7373333333333,3.05666666666667,0.047,-0.94624,-0.08448,0.20362,-38.3536666666667,-19.5631666666667,-10.5996666666667,0,1,1,0,1
24-May-2018 13:28:23,-100,0.9323,0.0299857142857143,-0.167585714285714,17.59,3.989,-5.28485714285714,238.797333333333,0.808466666666667,-0.282766666666667,-0.254583333333333,-89.177125,104.863375,-12.82,141.889,-1.0222,0.1123,-0.0296666666666667,-19.884,1.76975,0.7495,0.0955,-1.0317,-0.207233333333333,0.146433333333333,-9.18114285714285,1.69857142857143,-0.479142857142859,799.357333333333,1,1,1,1
24-May-2018 13:28:23,-100,0.9323,0.0299857142857143,-0.167585714285714,17.59,3.989,-5.28485714285714,238.797333333333,0.808466666666667,-0.282766666666667,-0.254583333333333,-89.177125,104.863375,-12.82,141.889,-1.0222,0.1123,-0.0296666666666667,-19.884,1.76975,0.7495,0.0955,-1.0317,-0.207233333333333,0.146433333333333,-9.18114285714285,1.69857142857143,-0.479142857142859,799.357333333333,1,1,1,1
24-May-2018 13:28:23,-100,0.9323,0.0299857142857143,-0.167585714285714,17.59,3.989,-5.28485714285714,238.797333333333,0.808466666666667,-0.282766666666667,-0.254583333333333,-89.177125,104.863375,-12.82,141.889,-1.0222,0.1123,-0.0296666666666667,-19.884,1.76975,0.7495,0.0955,-1.0317,-0.207233333333333,0.146433333333333,-9.18114285714285,1.69857142857143,-0.479142857142859,799.357333333333,1,1,1,1
24-May-2018 13:28:23,-100,0.9323,0.0299857142857143,-0.167585714285714,17.59,3.989,-5.28485714285714,238.797333333333,0.808466666666667,-0.282766666666667,-0.254583333333333,-89.177125,104.863375,-12.82,141.889,-1.0222,0.1123,-0.0296666666666667,-19.884,1.76975,0.7495,0.0955,-1.0317,-0.207233333333333,0.146433333333333,-9.18114285714285,1.69857142857143,-0.479142857142859,799.357333333333,1,1,1,1
24-May-2018 13:28:24,34.6666666666667,0.932616666666667,0.150866666666667,-0.0952,56.9114285714286,5.19242857142857,-5.49585714285714,365.865,0.910375,0.262,-0.28505,-118,29.925,-53.045,134.029,-1.03267142857143,0.0717285714285714,0.0456571428571429,-45.1,10.7466666666667,-1.095,0.116,-0.9096,-0.0946571428571429,0.137457142857143,-33.9431666666667,17.2763333333333,25.813,611.027,1,1,1,1
24-May-2018 13:28:24,34.6666666666667,0.932616666666667,0.150866666666667,-0.0952,56.9114285714286,5.19242857142857,-5.49585714285714,365.865,0.910375,0.262,-0.28505,-118,29.925,-53.045,134.029,-1.03267142857143,0.0717285714285714,0.0456571428571429,-45.1,10.7466666666667,-1.095,0.116,-0.9096,-0.0946571428571429,0.137457142857143,-33.9431666666667,17.2763333333333,25.813,611.027,1,1,1,1
24-May-2018 13:28:24,34.6666666666667,0.932616666666667,0.150866666666667,-0.0952,56.9114285714286,5.19242857142857,-5.49585714285714,365.865,0.910375,0.262,-0.28505,-118,29.925,-53.045,134.029,-1.03267142857143,0.0717285714285714,0.0456571428571429,-45.1,10.7466666666667,-1.095,0.116,-0.9096,-0.0946571428571429,0.137457142857143,-33.9431666666667,17.2763333333333,25.813,611.027,1,1,1,1
24-May-2018 13:28:24,34.6666666666667,0.932616666666667,0.150866666666667,-0.0952,56.9114285714286,5.19242857142857,-5.49585714285714,365.865,0.910375,0.262,-0.28505,-118,29.925,-53.045,134.029,-1.03267142857143,0.0717285714285714,0.0456571428571429,-45.1,10.7466666666667,-1.095,0.116,-0.9096,-0.0946571428571429,0.137457142857143,-33.9431666666667,17.2763333333333,25.813,611.027,1,1,1,1
24-May-2018 13:28:25,361.375,0.965716666666667,0.0241333333333333,-0.138583333333333,8.97283333333333,0.773333333333333,3.35566666666667,473.803,0.9264,0.1232,-0.24775,-68.6614,21.6977,31.5522,102.589,-1.007325,0.139,-0.015875,-29,-13.92875,1.2215,0.075,-0.98094,-0.14026,0.10848,-7.1464,-15.244,-13.183,432.2075,1,1,1,0
24-May-2018 13:28:25,361.375,0.965716666666667,0.0241333333333333,-0.138583333333333,8.97283333333333,0.773333333333333,3.35566666666667,473.803,0.9264,0.1232,-0.24775,-68.6614,21.6977,31.5522,102.589,-1.007325,0.139,-0.015875,-29,-13.92875,1.2215,0.075,-0.98094,-0.14026,0.10848,-7.1464,-15.244,-13.183,432.2075,1,1,1,0
24-May-2018 13:28:25,361.375,0.965716666666667,0.0241333333333333,-0.138583333333333,8.97283333333333,0.773333333333333,3.35566666666667,473.803,0.9264,0.1232,-0.24775,-68.6614,21.6977,31.5522,102.589,-1.007325,0.139,-0.015875,-29,-13.92875,1.2215,0.075,-0.98094,-0.14026,0.10848,-7.1464,-15.244,-13.183,432.2075,1,1,1,0
24-May-2018 13:28:25,361.375,0.965716666666667,0.0241333333333333,-0.138583333333333,8.97283333333333,0.773333333333333,3.35566666666667,473.803,0.9264,0.1232,-0.24775,-68.6614,21.6977,31.5522,102.589,-1.007325,0.139,-0.015875,-29,-13.92875,1.2215,0.075,-0.98094,-0.14026,0.10848,-7.1464,-15.244,-13.183,432.2075,1,1,1,0
24-May-2018 13:28:26,310.111111111111,0.917775,0.084375,-0.131125,20.98775,8.82225,-11.0175,473.803,0.905066666666667,0.0704333333333333,-0.216366666666667,-36.2,4.797,23.96,102.589,-0.968266666666667,0.1016,0.213733333333333,-91.475,-1.6325,14.90625,0.094,-0.99245,-0.18625,0.08945,-61.4433333333333,31.565,42.7643333333333,432.2075,1,1,1,0
24-May-2018 13:28:26,310.111111111111,0.917775,0.084375,-0.131125,20.98775,8.82225,-11.0175,473.803,0.905066666666667,0.0704333333333333,-0.216366666666667,-36.2,4.797,23.96,102.589,-0.968266666666667,0.1016,0.213733333333333,-91.475,-1.6325,14.90625,0.094,-0.99245,-0.18625,0.08945,-61.4433333333333,31.565,42.7643333333333,432.2075,1,1,1,0
24-May-2018 13:28:26,310.111111111111,0.917775,0.084375,-0.131125,20.98775,8.82225,-11.0175,473.803,0.905066666666667,0.0704333333333333,-0.216366666666667,-36.2,4.797,23.96,102.589,-0.968266666666667,0.1016,0.213733333333333,-91.475,-1.6325,14.90625,0.094,-0.99245,-0.18625,0.08945,-61.4433333333333,31.565,42.7643333333333,432.2075,1,1,1,0
24-May-2018 13:28:26,310.111111111111,0.917775,0.084375,-0.131125,20.98775,8.82225,-11.0175,473.803,0.905066666666667,0.0704333333333333,-0.216366666666667,-36.2,4.797,23.96,102.589,-0.968266666666667,0.1016,0.213733333333333,-91.475,-1.6325,14.90625,0.094,-0.99245,-0.18625,0.08945,-61.4433333333333,31.565,42.7643333333333,0,1,1,1,0
24-May-2018 13:28:27,376.2,0.9355375,0.10995,-0.1262375,58.715,-0.1045,-6.405375,473.803,0.89242,-0.05716,-0.21284,-2.10375,-57.422875,70.095,100.953,-1.04513333333333,0.139,0.0032,-20.0958,17.8982,1.3166,0.094,-0.8228,-0.20204,0.26898,33.493,-15.5921428571429,-41.2194285714286,444.5305,1,1,1,1
24-May-2018 13:28:27,376.2,0.9355375,0.10995,-0.1262375,58.715,-0.1045,-6.405375,473.803,0.89242,-0.05716,-0.21284,-2.10375,-57.422875,70.095,100.953,-1.04513333333333,0.139,0.0032,-20.0958,17.8982,1.3166,0.094,-0.8228,-0.20204,0.26898,33.493,-15.5921428571429,-41.2194285714286,444.5305,1,1,1,1
24-May-2018 13:28:27,376.2,0.9355375,0.10995,-0.1262375,58.715,-0.1045,-6.405375,0,0.89242,-0.05716,-0.21284,-2.10375,-57.422875,70.095,100.953,-1.04513333333333,0.139,0.0032,-20.0958,17.8982,1.3166,0.094,-0.8228,-0.20204,0.26898,33.493,-15.5921428571429,-41.2194285714286,444.5305,1,1,1,1
24-May-2018 13:28:27,376.2,0.9355375,0.10995,-0.1262375,58.715,-0.1045,-6.405375,0,0.89242,-0.05716,-0.21284,-2.10375,-57.422875,70.095,100.953,-1.04513333333333,0.139,0.0032,-20.0958,17.8982,1.3166,0.094,-0.8228,-0.20204,0.26898,33.493,-15.5921428571429,-41.2194285714286,444.5305,1,1,1,1
24-May-2018 13:28:28,303.6,0.96385,0.0566833333333333,-0.155416666666667,13.271,7.4685,-5.0015,362.190666666667,0.767266666666667,-0.648966666666667,-0.248933333333333,8.035,-115.65,-38.12875,97.681,-1.04253333333333,0.124933333333333,0.0109166666666667,42.5685714285714,-6.34842857142857,6.29757142857143,0.094,-0.638,-0.394528571428571,0.528885714285714,32.0931666666667,-9.94933333333333,-23.6686666666667,573.933,1,1,1,1
24-May-2018 13:28:28,303.6,0.96385,0.0566833333333333,-0.155416666666667,13.271,7.4685,-5.0015,362.190666666667,0.767266666666667,-0.648966666666667,-0.248933333333333,8.035,-115.65,-38.12875,97.681,-1.04253333333333,0.124933333333333,0.0109166666666667,42.5685714285714,-6.34842857142857,6.29757142857143,0.094,-0.638,-0.394528571428571,0.528885714285714,32.0931666666667,-9.94933333333333,-23.6686666666667,573.933,1,1,1,1
24-May-2018 13:28:28,303.6,0.96385,0.0566833333333333,-0.155416666666667,13.271,7.4685,-5.0015,362.190666666667,0.767266666666667,-0.648966666666667,-0.248933333333333,8.035,-115.65,-38.12875,97.681,-1.04253333333333,0.124933333333333,0.0109166666666667,42.5685714285714,-6.34842857142857,6.29757142857143,0,-0.638,-0.394528571428571,0.528885714285714,32.0931666666667,-9.94933333333333,-23.6686666666667,573.933,1,1,1,1
24-May-2018 13:28:28,303.6,0.96385,0.0566833333333333,-0.155416666666667,13.271,7.4685,-5.0015,362.190666666667,0.767266666666667,-0.648966666666667,-0.248933333333333,8.035,-115.65,-38.12875,97.681,-1.04253333333333,0.124933333333333,0.0109166666666667,42.5685714285714,-6.34842857142857,6.29757142857143,0,-0.638,-0.394528571428571,0.528885714285714,32.0931666666667,-9.94933333333333,-23.6686666666667,573.933,1,1,1,1
24-May-2018 13:28:29,240.666666666667,0.9582,0.159266666666667,-0.0661,31.9718333333333,2.43933333333333,-0.156166666666667,353.037142857143,0.9219,-0.379625,-0.26955,50.0257142857143,-31.2285714285714,-29.534,103.44925,-1.03041666666667,0.101883333333333,-0.0444833333333333,0.347666666666667,0.447333333333333,0.630333333333333,0.0615,-0.13204,-0.86578,0.31488,-22.0811428571429,-24.7384285714286,-29.1987142857143,443.435,1,1,1,1
24-May-2018 13:28:29,240.666666666667,0.9582,0.159266666666667,-0.0661,31.9718333333333,2.43933333333333,-0.156166666666667,353.037142857143,0.9219,-0.379625,-0.26955,50.0257142857143,-31.2285714285714,-29.534,103.44925,-1.03041666666667,0.101883333333333,-0.0444833333333333,0.347666666666667,0.447333333333333,0.630333333333333,0.0615,-0.13204,-0.86578,0.31488,-22.0811428571429,-24.7384285714286,-29.1987142857143,443.435,1,1,1,1
24-May-2018 13:28:29,240.666666666667,0.9582,0.159266666666667,-0.0661,31.9718333333333,2.43933333333333,-0.156166666666667,353.037142857143,0.9219,-0.379625,-0.26955,50.0257142857143,-31.2285714285714,-29.534,103.44925,-1.03041666666667,0.101883333333333,-0.0444833333333333,0.347666666666667,0.447333333333333,0.630333333333333,0.0615,-0.13204,-0.86578,0.31488,-22.0811428571429,-24.7384285714286,-29.1987142857143,443.435,1,1,1,1
24-May-2018 13:28:29,240.666666666667,0.9582,0.159266666666667,-0.0661,31.9718333333333,2.43933333333333,-0.156166666666667,353.037142857143,0.9219,-0.379625,-0.26955,50.0257142857143,-31.2285714285714,-29.534,103.44925,-1.03041666666667,0.101883333333333,-0.0444833333333333,0.347666666666667,0.447333333333333,0.630333333333333,0.0615,-0.13204,-0.86578,0.31488,-22.0811428571429,-24.7384285714286,-29.1987142857143,443.435,1,1,1,1
24-May-2018 13:28:30,165.545454545455,0.92848,0.141,-0.14746,-35.219,-5.3506,-2.6538,329.358333333333,0.88672,-0.32672,-0.29004,41,28.05625,-32.4425,120.754,-1.02038,0.10312,-0.07344,-0.0708,-0.998,-0.1936,0.082,0.01245,-0.690175,0.7263,-5.59425,16.5855,3.23175,445.617,1,1,1,1
24-May-2018 13:28:30,165.545454545455,0.92848,0.141,-0.14746,-35.219,-5.3506,-2.6538,329.358333333333,0.88672,-0.32672,-0.29004,41,28.05625,-32.4425,120.754,-1.02038,0.10312,-0.07344,-0.0708,-0.998,-0.1936,0.082,0.01245,-0.690175,0.7263,-5.59425,16.5855,3.23175,445.617,1,1,1,1
24-May-2018 13:28:30,165.545454545455,0.92848,0.141,-0.14746,-35.219,-5.3506,-2.6538,329.358333333333,0.88672,-0.32672,-0.29004,41,28.05625,-32.4425,120.754,-1.02038,0.10312,-0.07344,-0.0708,-0.998,-0.1936,0.082,0.01245,-0.690175,0.7263,-5.59425,16.5855,3.23175,445.617,1,1,1,1
24-May-2018 13:28:30,165.545454545455,0.92848,0.141,-0.14746,-35.219,-5.3506,-2.6538,329.358333333333,0.88672,-0.32672,-0.29004,41,28.05625,-32.4425,120.754,-1.02038,0.10312,-0.07344,-0.0708,-0.998,-0.1936,0.082,0.01245,-0.690175,0.7263,-5.59425,16.5855,3.23175,445.617,1,1,1,1
24-May-2018 13:28:31,102.2,0.9053,0.20755,-0.250333333333333,-8.86016666666667,-8.37,-1.20683333333333,228.645666666667,0.8916,-0.21675,-0.2617,21.0414285714286,-43.9157142857143,-25.5714285714286,120.754,-1.021125,0.107675,-0.05135,-10.8875,-3.0575,1.176,0.082,-0.1568,-0.515557142857143,0.664371428571429,28.7808,13.5368,28.5122,425.205,1,1,1,1
24-May-2018 13:28:31,102.2,0.9053,0.20755,-0.250333333333333,-8.86016666666667,-8.37,-1.20683333333333,228.645666666667,0.8916,-0.21675,-0.2617,21.0414285714286,-43.9157142857143,-25.5714285714286,120.754,-1.021125,0.107675,-0.05135,-10.8875,-3.0575,1.176,0.082,-0.1568,-0.515557142857143,0.664371428571429,28.7808,13.5368,28.5122,425.205,1,1,1,1
24-May-2018 13:28:31,102.2,0.9053,0.20755,-0.250333333333333,-8.86016666666667,-8.37,-1.20683333333333,228.645666666667,0.8916,-0.21675,-0.2617,21.0414285714286,-43.9157142857143,-25.5714285714286,120.754,-1.021125,0.107675,-0.05135,-10.8875,-3.0575,1.176,0.082,-0.1568,-0.515557142857143,0.664371428571429,28.7808,13.5368,28.5122,425.205,1,1,1,1
24-May-2018 13:28:31,102.2,0.9053,0.20755,-0.250333333333333,-8.86016666666667,-8.37,-1.20683333333333,228.645666666667,0.8916,-0.21675,-0.2617,21.0414285714286,-43.9157142857143,-25.5714285714286,120.754,-1.021125,0.107675,-0.05135,-10.8875,-3.0575,1.176,0.082,-0.1568,-0.515557142857143,0.664371428571429,28.7808,13.5368,28.5122,425.205,1,1,1,1
24-May-2018 13:28:32,93.8888888888889,0.89145,0.2024,-0.30415,2.85025,-1.4445,1.03675,192.499,0.9268,0.00310000000000001,-0.3264,2.16714285714286,-29.1014285714286,-11.8728571428571,105.0525,-1.02222,0.1964,-0.0317,-22.666,-0.7906,1.2458,0.082,-0.3583,-0.274233333333333,0.7685,8.3658,-8.2194,18.817,521.6615,1,1,1,1
24-May-2018 13:28:32,93.8888888888889,0.89145,0.2024,-0.30415,2.85025,-1.4445,1.03675,192.499,0.9268,0.00310000000000001,-0.3264,2.16714285714286,-29.1014285714286,-11.8728571428571,105.0525,-1.02222,0.1964,-0.0317,-22.666,-0.7906,1.2458,0.082,-0.3583,-0.274233333333333,0.7685,8.3658,-8.2194,18.817,521.6615,1,1,1,1
24-May-2018 13:28:32,93.8888888888889,0.89145,0.2024,-0.30415,2.85025,-1.4445,1.03675,192.499,0.9268,0.00310000000000001,-0.3264,2.16714285714286,-29.1014285714286,-11.8728571428571,105.0525,-1.02222,0.1964,-0.0317,-22.666,-0.7906,1.2458,0.082,-0.3583,-0.274233333333333,0.7685,8.3658,-8.2194,18.817,521.6615,1,1,1,1
24-May-2018 13:28:32,93.8888888888889,0.89145,0.2024,-0.30415,2.85025,-1.4445,1.03675,192.499,0.9268,0.00310000000000001,-0.3264,2.16714285714286,-29.1014285714286,-11.8728571428571,105.0525,-1.02222,0.1964,-0.0317,-22.666,-0.7906,1.2458,0.082,-0.3583,-0.274233333333333,0.7685,8.3658,-8.2194,18.817,521.6615,1,1,1,1
24-May-2018 13:28:33,90.5714285714286,0.886333333333333,0.208583333333333,-0.306416666666667,-0.126571428571429,-0.562857142857143,0.0188571428571428,187.353,0.94312,-0.17024,-0.27846,26.792625,-18.65125,23.092125,87.8543333333333,-1.00725,0.19995,0.013025,0.9176,-0.7414,0.2472,0.082,-0.546371428571429,-0.104728571428571,0.811357142857143,-2.87457142857143,-4.04185714285714,11.2891428571429,723.51,1,1,1,1
24-May-2018 13:28:33,90.5714285714286,0.886333333333333,0.208583333333333,-0.306416666666667,-0.126571428571429,-0.562857142857143,0.0188571428571428,187.353,0.94312,-0.17024,-0.27846,26.792625,-18.65125,23.092125,87.8543333333333,-1.00725,0.19995,0.013025,0.9176,-0.7414,0.2472,0.082,-0.546371428571429,-0.104728571428571,0.811357142857143,-2.87457142857143,-4.04185714285714,11.2891428571429,723.51,1,1,1,1
24-May-2018 13:28:33,90.5714285714286,0.886333333333333,0.208583333333333,-0.306416666666667,-0.126571428571429,-0.562857142857143,0.0188571428571428,187.353,0.94312,-0.17024,-0.27846,26.792625,-18.65125,23.092125,87.8543333333333,-1.00725,0.19995,0.013025,0.9176,-0.7414,0.2472,0.082,-0.546371428571429,-0.104728571428571,0.811357142857143,-2.87457142857143,-4.04185714285714,11.2891428571429,723.51,1,1,1,1
24-May-2018 13:28:33,90.5714285714286,0.886333333333333,0.208583333333333,-0.306416666666667,-0.126571428571429,-0.562857142857143,0.0188571428571428,187.353,0.94312,-0.17024,-0.27846,26.792625,-18.65125,23.092125,87.8543333333333,-1.00725,0.19995,0.013025,0.9176,-0.7414,0.2472,0.082,-0.546371428571429,-0.104728571428571,0.811357142857143,-2.87457142857143,-4.04185714285714,11.2891428571429,723.51,1,1,1,1
24-May-2018 13:28:34,24.375,0.8886,0.187866666666667,-0.308666666666667,12.682,3.5075,-0.00933333333333327,185.41575,0.914,-0.23844,-0.26188,8.542875,3.762,3.647125,84.861,-1.025875,0.1795,0.065875,-81.275,1.997,-3.285,0.082,-1.1976,-0.0221,0.1665,-110.444166666667,42.755,28.1605,640.739,1,1,1,1
24-May-2018 13:28:34,24.375,0.8886,0.187866666666667,-0.308666666666667,12.682,3.5075,-0.00933333333333327,185.41575,0.914,-0.23844,-0.26188,8.542875,3.762,3.647125,84.861,-1.025875,0.1795,0.065875,-81.275,1.997,-3.285,0.082,-1.1976,-0.0221,0.1665,-110.444166666667,42.755,28.1605,640.739,1,1,1,1
24-May-2018 13:28:34,24.375,0.8886,0.187866666666667,-0.308666666666667,12.682,3.5075,-0.00933333333333327,185.41575,0.914,-0.23844,-0.26188,8.542875,3.762,3.647125,84.861,-1.025875,0.1795,0.065875,-81.275,1.997,-3.285,0.082,-1.1976,-0.0221,0.1665,-110.444166666667,42.755,28.1605,640.739,1,1,1,1
24-May-2018 13:28:34,24.375,0.8886,0.187866666666667,-0.308666666666667,12.682,3.5075,-0.00933333333333327,185.41575,0.914,-0.23844,-0.26188,8.542875,3.762,3.647125,84.861,-1.025875,0.1795,0.065875,-81.275,1.997,-3.285,0.082,-1.1976,-0.0221,0.1665,-110.444166666667,42.755,28.1605,640.739,1,1,1,1
24-May-2018 13:28:35,4.88888888888889,0.9243125,0.1085625,-0.2303875,9.35916666666667,4.07533333333333,0.834,189.680333333333,0.88565,-0.25195,-0.251075,18.1856666666667,-9.92211111111111,-7.96677777777778,96.177,-0.96724,0.09478,0.11712,-47.1,10.101,11.8666666666667,0.082,-0.9629625,-0.128475,0.1409125,-25.053375,-13.803375,-5.167625,592.681,1,1,1,1
24-May-2018 13:28:35,4.88888888888889,0.9243125,0.1085625,-0.2303875,9.35916666666667,4.07533333333333,0.834,189.680333333333,0.88565,-0.25195,-0.251075,18.1856666666667,-9.92211111111111,-7.96677777777778,96.177,-0.96724,0.09478,0.11712,-47.1,10.101,11.8666666666667,0.082,-0.9629625,-0.128475,0.1409125,-25.053375,-13.803375,-5.167625,592.681,1,1,1,1
24-May-2018 13:28:35,4.88888888888889,0.9243125,0.1085625,-0.2303875,9.35916666666667,4.07533333333333,0.834,189.680333333333,0.88565,-0.25195,-0.251075,18.1856666666667,-9.92211111111111,-7.96677777777778,96.177,-0.96724,0.09478,0.11712,-47.1,10.101,11.8666666666667,0.082,-0.9629625,-0.128475,0.1409125,-25.053375,-13.803375,-5.167625,592.681,1,1,1,1
24-May-2018 13:28:35,4.88888888888889,0.9243125,0.1085625,-0.2303875,9.35916666666667,4.07533333333333,0.834,189.680333333333,0.88565,-0.25195,-0.251075,18.1856666666667,-9.92211111111111,-7.96677777777778,96.177,-0.96724,0.09478,0.11712,-47.1,10.101,11.8666666666667,0.082,-0.9629625,-0.128475,0.1409125,-25.053375,-13.803375,-5.167625,592.681,1,1,1,1
24-May-2018 13:28:36,-54.1,0.9414125,0.0349875,-0.1956875,40.2844285714286,5.19185714285714,-8.16114285714286,189.680333333333,0.885875,-0.256125,-0.252,14.016,17.5477777777778,-2.96088888888889,96.177,-1.02746,0.0538,-0.08332,53.5775,-0.9275,-3.9625,0.082,-0.953457142857143,-0.2224,0.0355714285714286,81.5678571428572,35.1478571428571,0.557285714285708,631.075,1,1,1,1
24-May-2018 13:28:36,-54.1,0.9414125,0.0349875,-0.1956875,40.2844285714286,5.19185714285714,-8.16114285714286,189.680333333333,0.885875,-0.256125,-0.252,14.016,17.5477777777778,-2.96088888888889,96.177,-1.02746,0.0538,-0.08332,53.5775,-0.9275,-3.9625,0.082,-0.953457142857143,-0.2224,0.0355714285714286,81.5678571428572,35.1478571428571,0.557285714285708,631.075,1,1,1,1
24-May-2018 13:28:36,-54.1,0.9414125,0.0349875,-0.1956875,40.2844285714286,5.19185714285714,-8.16114285714286,189.680333333333,0.885875,-0.256125,-0.252,14.016,17.5477777777778,-2.96088888888889,96.177,-1.02746,0.0538,-0.08332,53.5775,-0.9275,-3.9625,0.082,-0.953457142857143,-0.2224,0.0355714285714286,81.5678571428572,35.1478571428571,0.557285714285708,631.075,1,1,1,1
24-May-2018 13:28:36,-54.1,0.9414125,0.0349875,-0.1956875,40.2844285714286,5.19185714285714,-8.16114285714286,189.680333333333,0.885875,-0.256125,-0.252,14.016,17.5477777777778,-2.96088888888889,96.177,-1.02746,0.0538,-0.08332,53.5775,-0.9275,-3.9625,0.082,-0.953457142857143,-0.2224,0.0355714285714286,81.5678571428572,35.1478571428571,0.557285714285708,631.075,1,1,1,1
24-May-2018 13:28:37,-8.875,0.954225,0.0795,-0.0843875,36.96,5.81144444444444,-9.18755555555556,189.680333333333,0.8993,-0.26892,-0.25496,14.9653333333333,-19.4555555555556,-22.4366666666667,91.0903333333333,-1.01351666666667,0.00641666666666666,0.11565,13.465,0.309999999999999,3.66,0.082,-0.777575,-0.453175,0.23105,32.9063333333333,14.1563333333333,-31.2908333333333,457.2085,1,1,1,1
24-May-2018 13:28:37,-8.875,0.954225,0.0795,-0.0843875,36.96,5.81144444444444,-9.18755555555556,189.680333333333,0.8993,-0.26892,-0.25496,14.9653333333333,-19.4555555555556,-22.4366666666667,91.0903333333333,-1.01351666666667,0.00641666666666666,0.11565,13.465,0.309999999999999,3.66,0.082,-0.777575,-0.453175,0.23105,32.9063333333333,14.1563333333333,-31.2908333333333,457.2085,1,1,1,1
24-May-2018 13:28:37,-8.875,0.954225,0.0795,-0.0843875,36.96,5.81144444444444,-9.18755555555556,0,0.8993,-0.26892,-0.25496,14.9653333333333,-19.4555555555556,-22.4366666666667,91.0903333333333,-1.01351666666667,0.00641666666666666,0.11565,13.465,0.309999999999999,3.66,0.082,-0.777575,-0.453175,0.23105,32.9063333333333,14.1563333333333,-31.2908333333333,457.2085,1,1,1,1
24-May-2018 13:28:37,-8.875,0.954225,0.0795,-0.0843875,36.96,5.81144444444444,-9.18755555555556,0,0.8993,-0.26892,-0.25496,14.9653333333333,-19.4555555555556,-22.4366666666667,91.0903333333333,-1.01351666666667,0.00641666666666666,0.11565,13.465,0.309999999999999,3.66,0.082,-0.777575,-0.453175,0.23105,32.9063333333333,14.1563333333333,-31.2908333333333,457.2085,1,1,1,1
24-May-2018 13:28:38,-71.7272727272727,0.92236,0.1129,-0.19292,-9.482,-3.2908,2.8298,355.517,0.936175,0.049675,-0.261225,5.18988888888889,-0.365555555555557,-71.9,88.547,-1.0254,0.14282,-0.0628,71.0575,-7.35625,12.78575,0.0626666666666667,-0.745416666666667,-0.6356,0.141766666666667,-3.9535,-13.8313333333333,15.6706666666667,474.13,1,1,1,1
24-May-2018 13:28:38,-71.7272727272727,0.92236,0.1129,-0.19292,-9.482,-3.2908,2.8298,355.517,0.936175,0.049675,-0.261225,5.18988888888889,-0.365555555555557,-71.9,88.547,-1.0254,0.14282,-0.0628,71.0575,-7.35625,12.78575,0.0626666666666667,-0.745416666666667,-0.6356,0.141766666666667,-3.9535,-13.8313333333333,15.6706666666667,474.13,1,1,1,1
24-May-2018 13:28:38,-71.7272727272727,0.92236,0.1129,-0.19292,-9.482,-3.2908,2.8298,355.517,0.936175,0.049675,-0.261225,5.18988888888889,-0.365555555555557,-71.9,88.547,-1.0254,0.14282,-0.0628,71.0575,-7.35625,12.78575,0.0626666666666667,-0.745416666666667,-0.6356,0.141766666666667,-3.9535,-13.8313333333333,15.6706666666667,474.13,1,1,1,1
24-May-2018 13:28:38,-71.7272727272727,0.92236,0.1129,-0.19292,-9.482,-3.2908,2.8298,355.517,0.936175,0.049675,-0.261225,5.18988888888889,-0.365555555555557,-71.9,88.547,-1.0254,0.14282,-0.0628,71.0575,-7.35625,12.78575,0.0626666666666667,-0.745416666666667,-0.6356,0.141766666666667,-3.9535,-13.8313333333333,15.6706666666667,474.13,1,1,1,1
24-May-2018 13:28:39,-71.5,0.930514285714286,0.157728571428571,-0.0679857142857143,-98.2666666666667,-17.03,23.7766666666667,356.061,0.91618,0.2839,-0.2624,8.044,5.82611111111111,13.2811111111111,88.547,-1.00362,0.03892,0.11298,-2.79666666666667,6.61,0.915333333333333,0.1,-0.804333333333333,-0.348866666666667,0.201533333333333,70.7825,24.9186666666667,-13.9633333333333,533.863,1,1,1,1
24-May-2018 13:28:39,-71.5,0.930514285714286,0.157728571428571,-0.0679857142857143,-98.2666666666667,-17.03,23.7766666666667,356.061,0.91618,0.2839,-0.2624,8.044,5.82611111111111,13.2811111111111,88.547,-1.00362,0.03892,0.11298,-2.79666666666667,6.61,0.915333333333333,0.1,-0.804333333333333,-0.348866666666667,0.201533333333333,70.7825,24.9186666666667,-13.9633333333333,533.863,1,1,1,1
24-May-2018 13:28:39,-71.5,0.930514285714286,0.157728571428571,-0.0679857142857143,-98.2666666666667,-17.03,23.7766666666667,356.061,0.91618,0.2839,-0.2624,8.044,5.82611111111111,13.2811111111111,88.547,-1.00362,0.03892,0.11298,-2.79666666666667,6.61,0.915333333333333,0.1,-0.804333333333333,-0.348866666666667,0.201533333333333,70.7825,24.9186666666667,-13.9633333333333,533.863,1,1,1,1
24-May-2018 13:28:39,-71.5,0.930514285714286,0.157728571428571,-0.0679857142857143,-98.2666666666667,-17.03,23.7766666666667,356.061,0.91618,0.2839,-0.2624,8.044,5.82611111111111,13.2811111111111,88.547,-1.00362,0.03892,0.11298,-2.79666666666667,6.61,0.915333333333333,0.1,-0.804333333333333,-0.348866666666667,0.201533333333333,70.7825,24.9186666666667,-13.9633333333333,533.863,1,1,1,1
24-May-2018 13:28:40,-56.2222222222222,0.9597,0.155233333333333,-0.106433333333333,-34.7944,-2.803,-1.1308,501.03,0.946625,-0.0085,-0.265025,9.95325,-11.877625,27.38025,86.2485,-1.04548,0.01624,0.00158,38.3,-3.68522222222222,3.83822222222222,0.0413333333333333,-0.94702,-0.22116,0.02764,55.9145,-3.76525,-6.0365,581.895,1,1,1,1
24-May-2018 13:28:40,-56.2222222222222,0.9597,0.155233333333333,-0.106433333333333,-34.7944,-2.803,-1.1308,501.03,0.946625,-0.0085,-0.265025,9.95325,-11.877625,27.38025,86.2485,-1.04548,0.01624,0.00158,38.3,-3.68522222222222,3.83822222222222,0.0413333333333333,-0.94702,-0.22116,0.02764,55.9145,-3.76525,-6.0365,581.895,1,1,1,1
24-May-2018 13:28:40,-56.2222222222222,0.9597,0.155233333333333,-0.106433333333333,-34.7944,-2.803,-1.1308,501.03,0.946625,-0.0085,-0.265025,9.95325,-11.877625,27.38025,86.2485,-1.04548,0.01624,0.00158,38.3,-3.68522222222222,3.83822222222222,0.0413333333333333,-0.94702,-0.22116,0.02764,55.9145,-3.76525,-6.0365,581.895,1,1,1,1
24-May-2018 13:28:40,-56.2222222222222,0.9597,0.155233333333333,-0.106433333333333,-34.7944,-2.803,-1.1308,501.03,0.946625,-0.0085,-0.265025,9.95325,-11.877625,27.38025,86.2485,-1.04548,0.01624,0.00158,38.3,-3.68522222222222,3.83822222222222,0.0413333333333333,-0.94702,-0.22116,0.02764,55.9145,-3.76525,-6.0365,581.895,1,1,1,1
24-May-2018 13:28:41,53.4545454545455,0.9323,0.122042857142857,-0.0930857142857143,-7.92766666666667,-0.922666666666666,3.951,521.957,0.995225,0.034,-0.277175,21.033,-8.50333333333333,4.43666666666667,83.95,-0.98335,0.09435,0.1149,-21.87,9.624,-1.56075,0.0413333333333333,-0.969557142857143,-0.2218,0.106385714285714,27.8048333333333,29.624,9.04466666666666,700.841,1,1,1,0.5
24-May-2018 13:28:41,53.4545454545455,0.9323,0.122042857142857,-0.0930857142857143,-7.92766666666667,-0.922666666666666,3.951,521.957,0.995225,0.034,-0.277175,21.033,-8.50333333333333,4.43666666666667,83.95,-0.98335,0.09435,0.1149,-21.87,9.624,-1.56075,0.0413333333333333,-0.969557142857143,-0.2218,0.106385714285714,27.8048333333333,29.624,9.04466666666666,700.841,1,1,1,0.5
24-May-2018 13:28:41,53.4545454545455,0.9323,0.122042857142857,-0.0930857142857143,-7.92766666666667,-0.922666666666666,3.951,521.957,0.995225,0.034,-0.277175,21.033,-8.50333333333333,4.43666666666667,83.95,-0.98335,0.09435,0.1149,-21.87,9.624,-1.56075,0.0413333333333333,-0.969557142857143,-0.2218,0.106385714285714,27.8048333333333,29.624,9.04466666666666,700.841,1,1,1,0.5
24-May-2018 13:28:41,53.4545454545455,0.9323,0.122042857142857,-0.0930857142857143,-7.92766666666667,-0.922666666666666,3.951,521.957,0.995225,0.034,-0.277175,21.033,-8.50333333333333,4.43666666666667,83.95,-0.98335,0.09435,0.1149,-21.87,9.624,-1.56075,0.0413333333333333,-0.969557142857143,-0.2218,0.106385714285714,27.8048333333333,29.624,9.04466666666666,700.841,1,1,1,0.5
24-May-2018 13:28:42,2.3,0.949116666666667,0.08185,-0.10595,-37.6142857142857,-4.29114285714286,1.58714285714286,481.50125,0.984,-0.05648,-0.27608,7.37088888888889,21.2277777777778,12.2685555555556,83.95,-1.01582,0.14404,-0.14626,67.508,-5.9092,8.3896,0.0413333333333333,-0.9362,-0.230925,0.0637,63.7107142857143,18.833,-1.02785714285714,775.93675,1,1,1,1
24-May-2018 13:28:42,2.3,0.949116666666667,0.08185,-0.10595,-37.6142857142857,-4.29114285714286,1.58714285714286,481.50125,0.984,-0.05648,-0.27608,7.37088888888889,21.2277777777778,12.2685555555556,83.95,-1.01582,0.14404,-0.14626,67.508,-5.9092,8.3896,0.0413333333333333,-0.9362,-0.230925,0.0637,63.7107142857143,18.833,-1.02785714285714,775.93675,1,1,1,1
24-May-2018 13:28:42,2.3,0.949116666666667,0.08185,-0.10595,-37.6142857142857,-4.29114285714286,1.58714285714286,481.50125,0.984,-0.05648,-0.27608,7.37088888888889,21.2277777777778,12.2685555555556,83.95,-1.01582,0.14404,-0.14626,67.508,-5.9092,8.3896,0.0413333333333333,-0.9362,-0.230925,0.0637,63.7107142857143,18.833,-1.02785714285714,775.93675,1,1,1,1
24-May-2018 13:28:42,2.3,0.949116666666667,0.08185,-0.10595,-37.6142857142857,-4.29114285714286,1.58714285714286,481.50125,0.984,-0.05648,-0.27608,7.37088888888889,21.2277777777778,12.2685555555556,83.95,-1.01582,0.14404,-0.14626,67.508,-5.9092,8.3896,0.0413333333333333,-0.9362,-0.230925,0.0637,63.7107142857143,18.833,-1.02785714285714,775.93675,1,1,1,1
24-May-2018 13:28:43,30.25,0.968183333333333,0.175283333333333,-0.0911,-13.5266666666667,2.56233333333333,10.6703333333333,404.189666666667,0.952925,-0.0624,-0.2665,6.51371428571429,-7.76857142857143,-2.78371428571429,87.054,-1.00296,-0.01548,0.10356,27.5936666666667,-18.2201666666667,-4.55333333333333,0.0413333333333333,-0.931928571428571,-0.209785714285714,0.0194714285714286,29.309,9.4615,-1.01633333333333,396.988,1,1,1,1
24-May-2018 13:28:43,30.25,0.968183333333333,0.175283333333333,-0.0911,-13.5266666666667,2.56233333333333,10.6703333333333,404.189666666667,0.952925,-0.0624,-0.2665,6.51371428571429,-7.76857142857143,-2.78371428571429,87.054,-1.00296,-0.01548,0.10356,27.5936666666667,-18.2201666666667,-4.55333333333333,0.0413333333333333,-0.931928571428571,-0.209785714285714,0.0194714285714286,29.309,9.4615,-1.01633333333333,396.988,1,1,1,1
24-May-2018 13:28:43,30.25,0.968183333333333,0.175283333333333,-0.0911,-13.5266666666667,2.56233333333333,10.6703333333333,404.189666666667,0.952925,-0.0624,-0.2665,6.51371428571429,-7.76857142857143,-2.78371428571429,87.054,-1.00296,-0.01548,0.10356,27.5936666666667,-18.2201666666667,-4.55333333333333,0.0413333333333333,-0.931928571428571,-0.209785714285714,0.0194714285714286,29.309,9.4615,-1.01633333333333,396.988,1,1,1,1
24-May-2018 13:28:43,30.25,0.968183333333333,0.175283333333333,-0.0911,-13.5266666666667,2.56233333333333,10.6703333333333,404.189666666667,0.952925,-0.0624,-0.2665,6.51371428571429,-7.76857142857143,-2.78371428571429,87.054,-1.00296,-0.01548,0.10356,27.5936666666667,-18.2201666666667,-4.55333333333333,0.0413333333333333,-0.931928571428571,-0.209785714285714,0.0194714285714286,29.309,9.4615,-1.01633333333333,396.988,1,1,1,1
24-May-2018 13:28:44,37.6363636363636,0.96802,0.09578,-0.09618,-63.4428571428571,-4.76171428571428,6.419,334.979666666667,0.94825,-0.064575,-0.265925,9.640125,-21.575,0.185125,88.606,-1.023025,0.028525,0.032825,9.33666666666667,14.3876666666667,3.29533333333333,0.0413333333333333,-0.9947,-0.2414,0.064,5.97575,5.30525,0.564250000000001,420.7315,0,1,1,1
24-May-2018 13:28:44,37.6363636363636,0.96802,0.09578,-0.09618,-63.4428571428571,-4.76171428571428,6.419,334.979666666667,0.94825,-0.064575,-0.265925,9.640125,-21.575,0.185125,88.606,-1.023025,0.028525,0.032825,9.33666666666667,14.3876666666667,3.29533333333333,0.0413333333333333,-0.9947,-0.2414,0.064,5.97575,5.30525,0.564250000000001,420.7315,0,1,1,1
24-May-2018 13:28:44,37.6363636363636,0.96802,0.09578,-0.09618,-63.4428571428571,-4.76171428571428,6.419,334.979666666667,0.94825,-0.064575,-0.265925,9.640125,-21.575,0.185125,88.606,-1.023025,0.028525,0.032825,9.33666666666667,14.3876666666667,3.29533333333333,0.0413333333333333,-0.9947,-0.2414,0.064,5.97575,5.30525,0.564250000000001,420.7315,0,1,1,1
24-May-2018 13:28:44,37.6363636363636,0.96802,0.09578,-0.09618,-63.4428571428571,-4.76171428571428,6.419,334.979666666667,0.94825,-0.064575,-0.265925,9.640125,-21.575,0.185125,88.606,-1.023025,0.028525,0.032825,9.33666666666667,14.3876666666667,3.29533333333333,0.0413333333333333,-0.9947,-0.2414,0.064,5.97575,5.30525,0.564250000000001,420.7315,0,1,1,1
24-May-2018 13:28:45,56,0.9191,0.1879,-0.1995,-70.3,-1.03,-2.98,334.979666666667,0.94825,-0.064575,-0.265925,-6.82,-1.46,3.11,88.606,-1.023,0.1799,0.0414,87.13,-19,18.29,0.0413333333333333,-0.8749,-0.2419,0.0143,35,-8.11,-36.402,420.7315,1,0,1,1
24-May-2018 13:28:45,56,0.9191,0.1879,-0.1995,-70.3,-1.03,-2.98,334.979666666667,0.94825,-0.064575,-0.265925,-6.82,-1.46,3.11,88.606,-1.023,0.1799,0.0414,87.13,-19,18.29,0.0413333333333333,-0.8749,-0.2419,0.0143,35,-8.11,-36.402,420.7315,1,0,1,1
24-May-2018 13:28:45,56,0.9191,0.1879,-0.1995,-70.3,-1.03,-2.98,334.979666666667,0.94825,-0.064575,-0.265925,-6.82,-1.46,3.11,88.606,-1.023,0.1799,0.0414,87.13,-19,18.29,0.0413333333333333,-0.8749,-0.2419,0.0143,35,-8.11,-36.402,420.7315,1,0,1,1
24-May-2018 13:28:45,56,0.9191,0.1879,-0.1995,-70.3,-1.03,-2.98,334.979666666667,0,0,0,-6.82,-1.46,3.11,88.606,-1.023,0.1799,0.0414,87.13,-19,18.29,0.0413333333333333,-0.8749,-0.2419,0.0143,35,-8.11,-36.402,420.7315,1,0,1,1
24-May-2018 13:28:46,94.8888888888889,0.943411111111111,0.166655555555556,-0.0868,-12.871375,-1.788625,0.779125,334.979666666667,0.94808,-0.07462,-0.2666,-1.81388888888889,13.9337777777778,2.84644444444444,88.606,-1.01868333333333,0.0139666666666667,0.121016666666667,3.71516666666667,-20.0463333333333,-12.3896666666667,0.0413333333333333,-0.94065,-0.20825,0.0746833333333333,22.9945555555556,3.06222222222222,-1.863,420.7315,1,0,1,1
24-May-2018 13:28:46,94.8888888888889,0.943411111111111,0.166655555555556,-0.0868,-12.871375,-1.788625,0.779125,334.979666666667,0.94808,-0.07462,-0.2666,-1.81388888888889,13.9337777777778,2.84644444444444,88.606,-1.01868333333333,0.0139666666666667,0.121016666666667,3.71516666666667,-20.0463333333333,-12.3896666666667,0.0413333333333333,-0.94065,-0.20825,0.0746833333333333,22.9945555555556,3.06222222222222,-1.863,420.7315,1,0,1,1
24-May-2018 13:28:46,94.8888888888889,0.943411111111111,0.166655555555556,-0.0868,-12.871375,-1.788625,0.779125,334.979666666667,0.94808,-0.07462,-0.2666,-1.81388888888889,13.9337777777778,2.84644444444444,88.606,-1.01868333333333,0.0139666666666667,0.121016666666667,3.71516666666667,-20.0463333333333,-12.3896666666667,0.0413333333333333,-0.94065,-0.20825,0.0746833333333333,22.9945555555556,3.06222222222222,-1.863,0,1,0,1,1
24-May-2018 13:28:46,94.8888888888889,0.943411111111111,0.166655555555556,-0.0868,-12.871375,-1.788625,0.779125,334.979666666667,0.94808,-0.07462,-0.2666,-1.81388888888889,13.9337777777778,2.84644444444444,88.606,-1.01868333333333,0.0139666666666667,0.121016666666667,3.71516666666667,-20.0463333333333,-12.3896666666667,0.0413333333333333,-0.94065,-0.20825,0.0746833333333333,22.9945555555556,3.06222222222222,-1.863,0,1,0,1,1
24-May-2018 13:28:47,84,0.948066666666667,0.0988888888888889,-0.115955555555556,-21.346,0.174125,5.518,334.979666666667,0.957975,-0.07225,-0.257625,0.276666666666667,18.2933333333333,3.49911111111111,88.5015,-1.0717,0.046975,-0.0195,10.41375,-17.20125,6.50875,0.0413333333333333,-0.93125,-0.158475,0.154025,19.512125,11.638625,0.220875,440.6515,1,1,1,1
24-May-2018 13:28:47,84,0.948066666666667,0.0988888888888889,-0.115955555555556,-21.346,0.174125,5.518,334.979666666667,0.957975,-0.07225,-0.257625,0.276666666666667,18.2933333333333,3.49911111111111,88.5015,-1.0717,0.046975,-0.0195,10.41375,-17.20125,6.50875,0.0413333333333333,-0.93125,-0.158475,0.154025,19.512125,11.638625,0.220875,440.6515,1,1,1,1
24-May-2018 13:28:47,84,0.948066666666667,0.0988888888888889,-0.115955555555556,-21.346,0.174125,5.518,334.979666666667,0.957975,-0.07225,-0.257625,0.276666666666667,18.2933333333333,3.49911111111111,88.5015,-1.0717,0.046975,-0.0195,10.41375,-17.20125,6.50875,0.0413333333333333,-0.93125,-0.158475,0.154025,19.512125,11.638625,0.220875,440.6515,1,1,1,1
24-May-2018 13:28:47,84,0.948066666666667,0.0988888888888889,-0.115955555555556,-21.346,0.174125,5.518,334.979666666667,0.957975,-0.07225,-0.257625,0.276666666666667,18.2933333333333,3.49911111111111,88.5015,-1.0717,0.046975,-0.0195,10.41375,-17.20125,6.50875,0.0413333333333333,-0.93125,-0.158475,0.154025,19.512125,11.638625,0.220875,440.6515,1,1,1,1
24-May-2018 13:28:48,16.3636363636364,0.92752,0.13904,-0.11914,-1.076,-1.802,2.072,321.655666666667,1.00834,-0.04738,-0.27738,23.01125,-6.744875,-17.60125,86.814,-1.00474,0.04118,0.27802,-37.3566666666667,20.017,-4.48933333333333,0.0413333333333333,-0.9377625,-0.2222625,0.08285,-5.97566666666667,-6.12816666666667,-5.66066666666667,384.446333333333,1,1,1,1
24-May-2018 13:28:48,16.3636363636364,0.92752,0.13904,-0.11914,-1.076,-1.802,2.072,321.655666666667,1.00834,-0.04738,-0.27738,23.01125,-6.744875,-17.60125,86.814,-1.00474,0.04118,0.27802,-37.3566666666667,20.017,-4.48933333333333,0.0413333333333333,-0.9377625,-0.2222625,0.08285,-5.97566666666667,-6.12816666666667,-5.66066666666667,384.446333333333,1,1,1,1
24-May-2018 13:28:48,16.3636363636364,0.92752,0.13904,-0.11914,-1.076,-1.802,2.072,321.655666666667,1.00834,-0.04738,-0.27738,23.01125,-6.744875,-17.60125,86.814,-1.00474,0.04118,0.27802,-37.3566666666667,20.017,-4.48933333333333,0.0413333333333333,-0.9377625,-0.2222625,0.08285,-5.97566666666667,-6.12816666666667,-5.66066666666667,384.446333333333,1,1,1,1
24-May-2018 13:28:48,16.3636363636364,0.92752,0.13904,-0.11914,-1.076,-1.802,2.072,321.655666666667,1.00834,-0.04738,-0.27738,23.01125,-6.744875,-17.60125,86.814,-1.00474,0.04118,0.27802,-37.3566666666667,20.017,-4.48933333333333,0.0413333333333333,-0.9377625,-0.2222625,0.08285,-5.97566666666667,-6.12816666666667,-5.66066666666667,384.446333333333,1,1,1,1
24-May-2018 13:28:49,37.4,0.9766,0.083525,-0.122025,-8.922,-1.2294,2.586,329.10575,0.85285,0.3505,-0.2501,-12.3133333333333,12.6277777777778,-13.0588888888889,87.91875,-1.03853333333333,0.157766666666667,0.0140666666666667,36.9175,9.83,3.53675,0.0413333333333333,-0.9301,-0.227171428571429,0.0866428571428571,6.34133333333333,10.2743333333333,8.36366666666667,388.905666666667,1,1,0,1
24-May-2018 13:28:49,37.4,0.9766,0.083525,-0.122025,-8.922,-1.2294,2.586,329.10575,0.85285,0.3505,-0.2501,-12.3133333333333,12.6277777777778,-13.0588888888889,87.91875,-1.03853333333333,0.157766666666667,0.0140666666666667,36.9175,9.83,3.53675,0.0413333333333333,-0.9301,-0.227171428571429,0.0866428571428571,6.34133333333333,10.2743333333333,8.36366666666667,388.905666666667,1,1,0,1
24-May-2018 13:28:49,37.4,0.9766,0.083525,-0.122025,-8.922,-1.2294,2.586,329.10575,0.85285,0.3505,-0.2501,-12.3133333333333,12.6277777777778,-13.0588888888889,87.91875,-1.03853333333333,0.157766666666667,0.0140666666666667,36.9175,9.83,3.53675,0.0413333333333333,-0.9301,-0.227171428571429,0.0866428571428571,6.34133333333333,10.2743333333333,8.36366666666667,388.905666666667,1,1,0,1
24-May-2018 13:28:49,37.4,0.9766,0.083525,-0.122025,-8.922,-1.2294,2.586,329.10575,0.85285,0.3505,-0.2501,-12.3133333333333,12.6277777777778,-13.0588888888889,87.91875,-1.03853333333333,0.157766666666667,0.0140666666666667,36.9175,9.83,3.53675,0.0413333333333333,-0.9301,-0.227171428571429,0.0866428571428571,6.34133333333333,10.2743333333333,8.36366666666667,388.905666666667,1,1,0,1
24-May-2018 13:28:50,36.6363636363636,0.958,0.141383333333333,-0.0854333333333333,3.12,2.257875,-4.25675,347.919,0.91522,0.27166,-0.26284,9.26242857142857,-3.45,1.16428571428572,88.287,-1.03425,0.0938,0.0664,-15.6645,-24,-0.453,0.0413333333333333,-0.948566666666667,-0.22395,0.0791833333333333,40.442,9.55825,3.5825,466.78,1,1,1,1
24-May-2018 13:28:50,36.6363636363636,0.958,0.141383333333333,-0.0854333333333333,3.12,2.257875,-4.25675,347.919,0.91522,0.27166,-0.26284,9.26242857142857,-3.45,1.16428571428572,88.287,-1.03425,0.0938,0.0664,-15.6645,-24,-0.453,0.0413333333333333,-0.948566666666667,-0.22395,0.0791833333333333,40.442,9.55825,3.5825,466.78,1,1,1,1
24-May-2018 13:28:50,36.6363636363636,0.958,0.141383333333333,-0.0854333333333333,3.12,2.257875,-4.25675,347.919,0.91522,0.27166,-0.26284,9.26242857142857,-3.45,1.16428571428572,88.287,-1.03425,0.0938,0.0664,-15.6645,-24,-0.453,0.0413333333333333,-0.948566666666667,-0.22395,0.0791833333333333,40.442,9.55825,3.5825,466.78,1,1,1,1
24-May-2018 13:28:50,36.6363636363636,0.958,0.141383333333333,-0.0854333333333333,3.12,2.257875,-4.25675,347.919,0.91522,0.27166,-0.26284,9.26242857142857,-3.45,1.16428571428572,88.287,-1.03425,0.0938,0.0664,-15.6645,-24,-0.453,0.0413333333333333,-0.948566666666667,-0.22395,0.0791833333333333,40.442,9.55825,3.5825,466.78,1,1,1,1
24-May-2018 13:28:51,66.7272727272727,0.97024,0.05146,-0.08848,-22.1611111111111,-0.437888888888889,7.59766666666667,342.6495,0.889925,0.3872,-0.257425,15.85375,-9.424125,32.60925,86.433,-1.0195,0.121428571428571,-0.0248571428571429,26.36,18.5763333333333,10.2833333333333,0.0413333333333333,-0.955175,-0.22045,0.065225,45.6586,1.744,-17.805,410.349,1,1,1,1
24-May-2018 13:28:51,66.7272727272727,0.97024,0.05146,-0.08848,-22.1611111111111,-0.437888888888889,7.59766666666667,342.6495,0.889925,0.3872,-0.257425,15.85375,-9.424125,32.60925,86.433,-1.0195,0.121428571428571,-0.0248571428571429,26.36,18.5763333333333,10.2833333333333,0.0413333333333333,-0.955175,-0.22045,0.065225,45.6586,1.744,-17.805,410.349,1,1,1,1
24-May-2018 13:28:51,66.7272727272727,0.97024,0.05146,-0.08848,-22.1611111111111,-0.437888888888889,7.59766666666667,342.6495,0.889925,0.3872,-0.257425,15.85375,-9.424125,32.60925,86.433,-1.0195,0.121428571428571,-0.0248571428571429,26.36,18.5763333333333,10.2833333333333,0,-0.955175,-0.22045,0.065225,45.6586,1.744,-17.805,410.349,1,1,1,1
24-May-2018 13:28:51,66.7272727272727,0.97024,0.05146,-0.08848,-22.1611111111111,-0.437888888888889,7.59766666666667,342.6495,0.889925,0.3872,-0.257425,15.85375,-9.424125,32.60925,86.433,-1.0195,0.121428571428571,-0.0248571428571429,26.36,18.5763333333333,10.2833333333333,0,-0.955175,-0.22045,0.065225,45.6586,1.744,-17.805,410.349,1,1,1,1
24-May-2018 13:28:52,75.2,0.94555,0.12335,-0.083375,-1.2274,-3.7386,-3.9534,333.649,1.09814,-0.03454,-0.35598,15.5912222222222,51.3,30.4111111111111,84.579,-1.08256,0.09028,0.04846,28.9528571428571,-20.6642857142857,-2.25728571428571,0.047,-0.934433333333333,-0.242333333333333,0.0593,18.1586,-3.3294,8.7074,374.009,1,1,1,1
24-May-2018 13:28:52,75.2,0.94555,0.12335,-0.083375,-1.2274,-3.7386,-3.9534,333.649,1.09814,-0.03454,-0.35598,15.5912222222222,51.3,30.4111111111111,84.579,-1.08256,0.09028,0.04846,28.9528571428571,-20.6642857142857,-2.25728571428571,0.047,-0.934433333333333,-0.242333333333333,0.0593,18.1586,-3.3294,8.7074,374.009,1,1,1,1
24-May-2018 13:28:52,75.2,0.94555,0.12335,-0.083375,-1.2274,-3.7386,-3.9534,333.649,1.09814,-0.03454,-0.35598,15.5912222222222,51.3,30.4111111111111,84.579,-1.08256,0.09028,0.04846,28.9528571428571,-20.6642857142857,-2.25728571428571,0.047,-0.934433333333333,-0.242333333333333,0.0593,18.1586,-3.3294,8.7074,374.009,1,1,1,1
24-May-2018 13:28:52,75.2,0.94555,0.12335,-0.083375,-1.2274,-3.7386,-3.9534,333.649,1.09814,-0.03454,-0.35598,15.5912222222222,51.3,30.4111111111111,84.579,-1.08256,0.09028,0.04846,28.9528571428571,-20.6642857142857,-2.25728571428571,0.047,-0.934433333333333,-0.242333333333333,0.0593,18.1586,-3.3294,8.7074,374.009,1,1,1,1
24-May-2018 13:28:53,65.7,0.9556375,0.0697125,-0.0754875,-68.8,-3.95316666666667,8.54566666666667,308.906,0.8625,-0.240025,-0.272625,41.1433333333333,-75.3211111111111,61.4244444444444,84.579,-1.0324,0.0546,0.021,21.6643333333333,7.35733333333333,5.14233333333333,0.094,-0.919,-0.17986,0.1626,36.00625,16.08225,6.89025,371.178666666667,1,1,1,1
24-May-2018 13:28:53,65.7,0.9556375,0.0697125,-0.0754875,-68.8,-3.95316666666667,8.54566666666667,308.906,0.8625,-0.240025,-0.272625,41.1433333333333,-75.3211111111111,61.4244444444444,84.579,-1.0324,0.0546,0.021,21.6643333333333,7.35733333333333,5.14233333333333,0.094,-0.919,-0.17986,0.1626,36.00625,16.08225,6.89025,371.178666666667,1,1,1,1
24-May-2018 13:28:53,65.7,0.9556375,0.0697125,-0.0754875,-68.8,-3.95316666666667,8.54566666666667,308.906,0.8625,-0.240025,-0.272625,41.1433333333333,-75.3211111111111,61.4244444444444,84.579,-1.0324,0.0546,0.021,21.6643333333333,7.35733333333333,5.14233333333333,0.094,-0.919,-0.17986,0.1626,36.00625,16.08225,6.89025,371.178666666667,1,1,1,1
24-May-2018 13:28:53,65.7,0.9556375,0.0697125,-0.0754875,-68.8,-3.95316666666667,8.54566666666667,308.906,0.8625,-0.240025,-0.272625,41.1433333333333,-75.3211111111111,61.4244444444444,84.579,-1.0324,0.0546,0.021,21.6643333333333,7.35733333333333,5.14233333333333,0.094,-0.919,-0.17986,0.1626,36.00625,16.08225,6.89025,371.178666666667,1,1,1,1
24-May-2018 13:28:54,130.909090909091,0.9666,0.144183333333333,-0.08985,-36.62,-3.7158,-1.6792,395.0745,0.81688,-0.33236,-0.30642,-23.545,96.95625,7.690375,91.6016666666667,-1.03756,0.08112,-0.03226,62.0075,-30.873,6.12925,0.094,-0.93005,-0.214883333333333,0.0449166666666667,25.0813333333333,6.09733333333333,1.21966666666667,630.6215,1,1,1,1
24-May-2018 13:28:54,130.909090909091,0.9666,0.144183333333333,-0.08985,-36.62,-3.7158,-1.6792,395.0745,0.81688,-0.33236,-0.30642,-23.545,96.95625,7.690375,91.6016666666667,-1.03756,0.08112,-0.03226,62.0075,-30.873,6.12925,0.094,-0.93005,-0.214883333333333,0.0449166666666667,25.0813333333333,6.09733333333333,1.21966666666667,630.6215,1,1,1,1
24-May-2018 13:28:54,130.909090909091,0.9666,0.144183333333333,-0.08985,-36.62,-3.7158,-1.6792,395.0745,0.81688,-0.33236,-0.30642,-23.545,96.95625,7.690375,91.6016666666667,-1.03756,0.08112,-0.03226,62.0075,-30.873,6.12925,0.094,-0.93005,-0.214883333333333,0.0449166666666667,25.0813333333333,6.09733333333333,1.21966666666667,630.6215,1,1,1,1
24-May-2018 13:28:54,130.909090909091,0.9666,0.144183333333333,-0.08985,-36.62,-3.7158,-1.6792,395.0745,0.81688,-0.33236,-0.30642,-23.545,96.95625,7.690375,91.6016666666667,-1.03756,0.08112,-0.03226,62.0075,-30.873,6.12925,0.094,-0.93005,-0.214883333333333,0.0449166666666667,25.0813333333333,6.09733333333333,1.21966666666667,630.6215,1,1,1,1
24-May-2018 13:28:55,119.363636363636,0.95715,0.0553333333333333,-0.0905,-28.9331111111111,-2.626,6.63266666666667,504.5235,0.85475,-0.154275,-0.188975,0.935374999999998,17.05175,-18.53375,95.113,-1.071775,0.059525,0.24315,-0.261666666666664,12.8698333333333,1.12033333333333,0.0985,-0.903416666666667,-0.1597,0.159166666666667,16.57,26.20425,16.6615,760.956,1,1,1,1
24-May-2018 13:28:55,119.363636363636,0.95715,0.0553333333333333,-0.0905,-28.9331111111111,-2.626,6.63266666666667,504.5235,0.85475,-0.154275,-0.188975,0.935374999999998,17.05175,-18.53375,95.113,-1.071775,0.059525,0.24315,-0.261666666666664,12.8698333333333,1.12033333333333,0.0985,-0.903416666666667,-0.1597,0.159166666666667,16.57,26.20425,16.6615,760.956,1,1,1,1
24-May-2018 13:28:55,119.363636363636,0.95715,0.0553333333333333,-0.0905,-28.9331111111111,-2.626,6.63266666666667,504.5235,0.85475,-0.154275,-0.188975,0.935374999999998,17.05175,-18.53375,95.113,-1.071775,0.059525,0.24315,-0.261666666666664,12.8698333333333,1.12033333333333,0.0985,-0.903416666666667,-0.1597,0.159166666666667,16.57,26.20425,16.6615,760.956,1,1,1,1
24-May-2018 13:28:55,119.363636363636,0.95715,0.0553333333333333,-0.0905,-28.9331111111111,-2.626,6.63266666666667,504.5235,0.85475,-0.154275,-0.188975,0.935374999999998,17.05175,-18.53375,95.113,-1.071775,0.059525,0.24315,-0.261666666666664,12.8698333333333,1.12033333333333,0.0985,-0.903416666666667,-0.1597,0.159166666666667,16.57,26.20425,16.6615,760.956,1,1,1,1
24-May-2018 13:28:56,30.2,0.944225,0.116825,-0.098725,-8.8395,0.945875,-2.734625,504.5235,0.844,-0.168733333333333,-0.2,18.1234285714286,-5.65,-16.4657142857143,95.113,-0.98685,0.133216666666667,0.0885166666666667,-44.5,-10.4205,-0.6985,0.092,-0.985725,-0.2454,0.112125,12.6482857142857,-0.0697142857142856,1.70728571428571,764.789333333333,1,1,1,1
24-May-2018 13:28:56,30.2,0.944225,0.116825,-0.098725,-8.8395,0.945875,-2.734625,504.5235,0.844,-0.168733333333333,-0.2,18.1234285714286,-5.65,-16.4657142857143,95.113,-0.98685,0.133216666666667,0.0885166666666667,-44.5,-10.4205,-0.6985,0.092,-0.985725,-0.2454,0.112125,12.6482857142857,-0.0697142857142856,1.70728571428571,764.789333333333,1,1,1,1
24-May-2018 13:28:56,30.2,0.944225,0.116825,-0.098725,-8.8395,0.945875,-2.734625,504.5235,0.844,-0.168733333333333,-0.2,18.1234285714286,-5.65,-16.4657142857143,95.113,-0.98685,0.133216666666667,0.0885166666666667,-44.5,-10.4205,-0.6985,0.092,-0.985725,-0.2454,0.112125,12.6482857142857,-0.0697142857142856,1.70728571428571,764.789333333333,1,1,1,1
24-May-2018 13:28:56,30.2,0.944225,0.116825,-0.098725,-8.8395,0.945875,-2.734625,0,0.844,-0.168733333333333,-0.2,18.1234285714286,-5.65,-16.4657142857143,95.113,-0.98685,0.133216666666667,0.0885166666666667,-44.5,-10.4205,-0.6985,0.092,-0.985725,-0.2454,0.112125,12.6482857142857,-0.0697142857142856,1.70728571428571,764.789333333333,1,1,1,1
24-May-2018 13:28:57,53.8181818181818,0.942285714285714,0.1149,-0.1544,-15.9451666666667,-2.31416666666667,5.34916666666667,514.352,0.9331,-0.13725,-0.177475,-1.626625,24.6,-15.97375,95.113,-1.04318333333333,0.102533333333333,-0.0738333333333333,131.285,50.6645,3.30875,0.092,-0.9118,-0.183833333333333,0.0801333333333333,58.6485,6.40216666666667,-8.57716666666667,769.897,1,1,1,1
24-May-2018 13:28:57,53.8181818181818,0.942285714285714,0.1149,-0.1544,-15.9451666666667,-2.31416666666667,5.34916666666667,514.352,0.9331,-0.13725,-0.177475,-1.626625,24.6,-15.97375,95.113,-1.04318333333333,0.102533333333333,-0.0738333333333333,131.285,50.6645,3.30875,0.092,-0.9118,-0.183833333333333,0.0801333333333333,58.6485,6.40216666666667,-8.57716666666667,769.897,1,1,1,1
24-May-2018 13:28:57,53.8181818181818,0.942285714285714,0.1149,-0.1544,-15.9451666666667,-2.31416666666667,5.34916666666667,514.352,0.9331,-0.13725,-0.177475,-1.626625,24.6,-15.97375,95.113,-1.04318333333333,0.102533333333333,-0.0738333333333333,131.285,50.6645,3.30875,0.092,-0.9118,-0.183833333333333,0.0801333333333333,58.6485,6.40216666666667,-8.57716666666667,769.897,1,1,1,1
24-May-2018 13:28:57,53.8181818181818,0.942285714285714,0.1149,-0.1544,-15.9451666666667,-2.31416666666667,5.34916666666667,514.352,0.9331,-0.13725,-0.177475,-1.626625,24.6,-15.97375,95.113,-1.04318333333333,0.102533333333333,-0.0738333333333333,131.285,50.6645,3.30875,0.092,-0.9118,-0.183833333333333,0.0801333333333333,58.6485,6.40216666666667,-8.57716666666667,769.897,1,1,1,1
24-May-2018 13:28:58,45.1818181818182,0.9919,0.17255,-0.12215,5.71,5.134,-10.046,493.363,0.947325,-0.063975,-0.146825,-17.5751111111111,-47.1944444444444,-33.2222222222222,89.224,-1.070575,-0.047,-0.00605,27.567,-16.4616,8.4416,0.092,-0.9475,-0.19896,0.06638,14.1056666666667,6.26,-19.98,740.15,1,1,1,0
24-May-2018 13:28:58,45.1818181818182,0.9919,0.17255,-0.12215,5.71,5.134,-10.046,493.363,0.947325,-0.063975,-0.146825,-17.5751111111111,-47.1944444444444,-33.2222222222222,89.224,-1.070575,-0.047,-0.00605,27.567,-16.4616,8.4416,0.092,-0.9475,-0.19896,0.06638,14.1056666666667,6.26,-19.98,740.15,1,1,1,0
24-May-2018 13:28:58,45.1818181818182,0.9919,0.17255,-0.12215,5.71,5.134,-10.046,493.363,0.947325,-0.063975,-0.146825,-17.5751111111111,-47.1944444444444,-33.2222222222222,89.224,-1.070575,-0.047,-0.00605,27.567,-16.4616,8.4416,0.092,-0.9475,-0.19896,0.06638,14.1056666666667,6.26,-19.98,740.15,1,1,1,0
24-May-2018 13:28:58,45.1818181818182,0.9919,0.17255,-0.12215,5.71,5.134,-10.046,493.363,0.947325,-0.063975,-0.146825,-17.5751111111111,-47.1944444444444,-33.2222222222222,89.224,-1.070575,-0.047,-0.00605,27.567,-16.4616,8.4416,0.092,-0.9475,-0.19896,0.06638,14.1056666666667,6.26,-19.98,740.15,1,1,1,0
24-May-2018 13:28:59,35.75,0.9392,0.109075,-0.104625,-70.62,-8.552,12.9116,504.23025,0.91324,0.14102,-0.28326,-30.5604444444444,-46.4644444444445,-38.2111111111111,89.224,-0.984066666666667,0.0420666666666667,-0.0231,13.0933333333333,15.7076666666667,5.18466666666667,0.092,-0.951525,-0.23595,0.082475,30.7316666666667,10.5795,0.599666666666666,627.48225,1,1,1,1
24-May-2018 13:28:59,35.75,0.9392,0.109075,-0.104625,-70.62,-8.552,12.9116,504.23025,0.91324,0.14102,-0.28326,-30.5604444444444,-46.4644444444445,-38.2111111111111,89.224,-0.984066666666667,0.0420666666666667,-0.0231,13.0933333333333,15.7076666666667,5.18466666666667,0.092,-0.951525,-0.23595,0.082475,30.7316666666667,10.5795,0.599666666666666,627.48225,1,1,1,1
24-May-2018 13:28:59,35.75,0.9392,0.109075,-0.104625,-70.62,-8.552,12.9116,504.23025,0.91324,0.14102,-0.28326,-30.5604444444444,-46.4644444444445,-38.2111111111111,89.224,-0.984066666666667,0.0420666666666667,-0.0231,13.0933333333333,15.7076666666667,5.18466666666667,0.092,-0.951525,-0.23595,0.082475,30.7316666666667,10.5795,0.599666666666666,627.48225,1,1,1,1
24-May-2018 13:28:59,35.75,0.9392,0.109075,-0.104625,-70.62,-8.552,12.9116,504.23025,0.91324,0.14102,-0.28326,-30.5604444444444,-46.4644444444445,-38.2111111111111,89.224,-0.984066666666667,0.0420666666666667,-0.0231,13.0933333333333,15.7076666666667,5.18466666666667,0.092,-0.951525,-0.23595,0.082475,30.7316666666667,10.5795,0.599666666666666,627.48225,1,1,1,1
24-May-2018 13:29:00,29.8,0.9389625,0.1712375,-0.1094875,-25.662,-5.4244,5.0378,349.644666666667,0.955725,0.1722,-0.294375,29.7374,-10.126,-12.844,89.224,-1.04095,0.0465,-0.095725,77.2425,-34.09,9.99825,0.092,-0.328625,-0.441725,0.621,25.7521666666667,-20.1313333333333,-25.1931666666667,666.9045,1,1,1,1
24-May-2018 13:29:00,29.8,0.9389625,0.1712375,-0.1094875,-25.662,-5.4244,5.0378,349.644666666667,0.955725,0.1722,-0.294375,29.7374,-10.126,-12.844,89.224,-1.04095,0.0465,-0.095725,77.2425,-34.09,9.99825,0.092,-0.328625,-0.441725,0.621,25.7521666666667,-20.1313333333333,-25.1931666666667,666.9045,1,1,1,1
24-May-2018 13:29:00,29.8,0.9389625,0.1712375,-0.1094875,-25.662,-5.4244,5.0378,349.644666666667,0.955725,0.1722,-0.294375,29.7374,-10.126,-12.844,89.224,-1.04095,0.0465,-0.095725,77.2425,-34.09,9.99825,0.092,-0.328625,-0.441725,0.621,25.7521666666667,-20.1313333333333,-25.1931666666667,666.9045,1,1,1,1
24-May-2018 13:29:00,29.8,0.9389625,0.1712375,-0.1094875,-25.662,-5.4244,5.0378,349.644666666667,0.955725,0.1722,-0.294375,29.7374,-10.126,-12.844,89.224,-1.04095,0.0465,-0.095725,77.2425,-34.09,9.99825,0.092,-0.328625,-0.441725,0.621,25.7521666666667,-20.1313333333333,-25.1931666666667,666.9045,1,1,1,1
24-May-2018 13:29:01,41.2,0.932775,0.1305,-0.128825,-45.6285714285714,-1.571,13.135,290.364,0.954125,0.237275,-0.2859,-13.9361111111111,1.29788888888889,-9.58311111111111,101.991,-1.01985,0.0695333333333333,0.128566666666667,-5.318,9.966,2.514,0.092,-0.7529,-0.1553,0.198933333333333,47.6502857142857,-7.168,17.9878571428571,822.724666666667,1,0,1,1
24-May-2018 13:29:01,41.2,0.932775,0.1305,-0.128825,-45.6285714285714,-1.571,13.135,290.364,0.954125,0.237275,-0.2859,-13.9361111111111,1.29788888888889,-9.58311111111111,101.991,-1.01985,0.0695333333333333,0.128566666666667,-5.318,9.966,2.514,0.092,-0.7529,-0.1553,0.198933333333333,47.6502857142857,-7.168,17.9878571428571,822.724666666667,1,0,1,1
24-May-2018 13:29:01,41.2,0.932775,0.1305,-0.128825,-45.6285714285714,-1.571,13.135,290.364,0.954125,0.237275,-0.2859,-13.9361111111111,1.29788888888889,-9.58311111111111,101.991,-1.01985,0.0695333333333333,0.128566666666667,-5.318,9.966,2.514,0.092,-0.7529,-0.1553,0.198933333333333,47.6502857142857,-7.168,17.9878571428571,822.724666666667,1,0,1,1
24-May-2018 13:29:01,41.2,0.932775,0.1305,-0.128825,-45.6285714285714,-1.571,13.135,290.364,0.954125,0.237275,-0.2859,-13.9361111111111,1.29788888888889,-9.58311111111111,101.991,-1.01985,0.0695333333333333,0.128566666666667,-5.318,9.966,2.514,0.092,-0.7529,-0.1553,0.198933333333333,47.6502857142857,-7.168,17.9878571428571,822.724666666667,1,0,1,1
24-May-2018 13:29:02,53.9,0.956928571428571,0.144171428571429,-0.0774142857142857,-12.3392,-5.5968,-8.0058,319.1065,0.9291,0.26375,-0.302625,-0.152777777777778,3.524,4.73577777777778,101.991,-1.005125,-0.0246,0.10425,2.75333333333333,-30.4338333333333,5.06,0.092,-0.926,-0.2329,0.0461142857142857,-18.1462,10.5364,11.3046,472.993,1,1,1,1
24-May-2018 13:29:02,53.9,0.956928571428571,0.144171428571429,-0.0774142857142857,-12.3392,-5.5968,-8.0058,319.1065,0.9291,0.26375,-0.302625,-0.152777777777778,3.524,4.73577777777778,101.991,-1.005125,-0.0246,0.10425,2.75333333333333,-30.4338333333333,5.06,0.092,-0.926,-0.2329,0.0461142857142857,-18.1462,10.5364,11.3046,472.993,1,1,1,1
24-May-2018 13:29:02,53.9,0.956928571428571,0.144171428571429,-0.0774142857142857,-12.3392,-5.5968,-8.0058,319.1065,0.9291,0.26375,-0.302625,-0.152777777777778,3.524,4.73577777777778,101.991,-1.005125,-0.0246,0.10425,2.75333333333333,-30.4338333333333,5.06,0.092,-0.926,-0.2329,0.0461142857142857,-18.1462,10.5364,11.3046,472.993,1,1,1,1
24-May-2018 13:29:02,53.9,0.956928571428571,0.144171428571429,-0.0774142857142857,-12.3392,-5.5968,-8.0058,319.1065,0.9291,0.26375,-0.302625,-0.152777777777778,3.524,4.73577777777778,101.991,-1.005125,-0.0246,0.10425,2.75333333333333,-30.4338333333333,5.06,0.092,-0.926,-0.2329,0.0461142857142857,-18.1462,10.5364,11.3046,472.993,1,1,1,1
24-May-2018 13:29:03,60.4,0.9176,0.0770333333333333,-0.165483333333333,-15.91975,-1.514125,5.49225,298.588666666667,0.9137,0.2479,-0.3006,-7.2775,-3.7775,2.7745,101.991,-1.0176,0.08515,0.005925,-10.908,27.582,9.1074,0.092,-0.94002,-0.21102,0.09852,15.3416,24.4878,34.1584,368.9658,1,0,1,1
24-May-2018 13:29:03,60.4,0.9176,0.0770333333333333,-0.165483333333333,-15.91975,-1.514125,5.49225,298.588666666667,0.9137,0.2479,-0.3006,-7.2775,-3.7775,2.7745,101.991,-1.0176,0.08515,0.005925,-10.908,27.582,9.1074,0.092,-0.94002,-0.21102,0.09852,15.3416,24.4878,34.1584,368.9658,1,0,1,1
24-May-2018 13:29:03,60.4,0.9176,0.0770333333333333,-0.165483333333333,-15.91975,-1.514125,5.49225,298.588666666667,0.9137,0.2479,-0.3006,-7.2775,-3.7775,2.7745,101.991,-1.0176,0.08515,0.005925,-10.908,27.582,9.1074,0.092,-0.94002,-0.21102,0.09852,15.3416,24.4878,34.1584,368.9658,1,0,1,1
24-May-2018 13:29:03,60.4,0.9176,0.0770333333333333,-0.165483333333333,-15.91975,-1.514125,5.49225,298.588666666667,0.9137,0.2479,-0.3006,-7.2775,-3.7775,2.7745,101.991,-1.0176,0.08515,0.005925,-10.908,27.582,9.1074,0.092,-0.94002,-0.21102,0.09852,15.3416,24.4878,34.1584,368.9658,1,0,1,1
24-May-2018 13:29:04,41.9,0.955716666666667,0.165866666666667,-0.0980833333333333,33.645,3.40483333333333,-7.41,326.076333333333,0.9233,0.273966666666667,-0.3046,1.525,-1.06871428571429,2.00428571428571,98.845,-1.029475,0.05615,-0.042825,26.5333333333333,-24.145,-0.209333333333333,0.092,-0.912857142857143,-0.213428571428571,-0.0445,43.549,4.2686,-11.6098,352.4335,1,1,1,1
24-May-2018 13:29:04,41.9,0.955716666666667,0.165866666666667,-0.0980833333333333,33.645,3.40483333333333,-7.41,326.076333333333,0.9233,0.273966666666667,-0.3046,1.525,-1.06871428571429,2.00428571428571,98.845,-1.029475,0.05615,-0.042825,26.5333333333333,-24.145,-0.209333333333333,0.092,-0.912857142857143,-0.213428571428571,-0.0445,43.549,4.2686,-11.6098,352.4335,1,1,1,1
24-May-2018 13:29:04,41.9,0.955716666666667,0.165866666666667,-0.0980833333333333,33.645,3.40483333333333,-7.41,326.076333333333,0.9233,0.273966666666667,-0.3046,1.525,-1.06871428571429,2.00428571428571,98.845,-1.029475,0.05615,-0.042825,26.5333333333333,-24.145,-0.209333333333333,0.092,-0.912857142857143,-0.213428571428571,-0.0445,43.549,4.2686,-11.6098,352.4335,1,1,1,1
24-May-2018 13:29:04,41.9,0.955716666666667,0.165866666666667,-0.0980833333333333,33.645,3.40483333333333,-7.41,326.076333333333,0.9233,0.273966666666667,-0.3046,1.525,-1.06871428571429,2.00428571428571,98.845,-1.029475,0.05615,-0.042825,26.5333333333333,-24.145,-0.209333333333333,0.092,-0.912857142857143,-0.213428571428571,-0.0445,43.549,4.2686,-11.6098,352.4335,1,1,1,1
24-May-2018 13:29:05,52.7,0.935871428571429,0.103028571428571,-0.1362,-14.032,-2.9628,6.1708,326.076333333333,0.92716,0.33978,-0.33294,26.6022222222222,-3.54888888888889,-11.3927777777778,97.272,-1.02538333333333,0.0136333333333333,0.1423,7.9894,10.8574,-1.741,0.092,-0.82436,-0.19744,0.4821,-27.2865,-56.40125,23.6585,350.9885,1,1,1,1
24-May-2018 13:29:05,52.7,0.935871428571429,0.103028571428571,-0.1362,-14.032,-2.9628,6.1708,326.076333333333,0.92716,0.33978,-0.33294,26.6022222222222,-3.54888888888889,-11.3927777777778,97.272,-1.02538333333333,0.0136333333333333,0.1423,7.9894,10.8574,-1.741,0.092,-0.82436,-0.19744,0.4821,-27.2865,-56.40125,23.6585,350.9885,1,1,1,1
24-May-2018 13:29:05,52.7,0.935871428571429,0.103028571428571,-0.1362,-14.032,-2.9628,6.1708,326.076333333333,0.92716,0.33978,-0.33294,26.6022222222222,-3.54888888888889,-11.3927777777778,97.272,-1.02538333333333,0.0136333333333333,0.1423,7.9894,10.8574,-1.741,0.092,-0.82436,-0.19744,0.4821,-27.2865,-56.40125,23.6585,350.9885,1,1,1,1
24-May-2018 13:29:05,52.7,0.935871428571429,0.103028571428571,-0.1362,-14.032,-2.9628,6.1708,0,0.92716,0.33978,-0.33294,26.6022222222222,-3.54888888888889,-11.3927777777778,97.272,-1.02538333333333,0.0136333333333333,0.1423,7.9894,10.8574,-1.741,0.092,-0.82436,-0.19744,0.4821,-27.2865,-56.40125,23.6585,350.9885,1,1,1,1
24-May-2018 13:29:06,29.4545454545455,0.928022222222222,0.156311111111111,-0.142133333333333,-18.2342857142857,-2.22557142857143,3.07442857142857,320.156,0.84474,0.46362,-0.29072,113.9225,13.87575,-86.3375,97.30425,-1.00778333333333,0.0347,0.00989999999999999,60.335,-13.0375,3.2715,0.092,-0.90745,-0.118225,0.201225,102.4998,62.7806,-3.0366,640.2485,1,1,1,1
24-May-2018 13:29:06,29.4545454545455,0.928022222222222,0.156311111111111,-0.142133333333333,-18.2342857142857,-2.22557142857143,3.07442857142857,320.156,0.84474,0.46362,-0.29072,113.9225,13.87575,-86.3375,97.30425,-1.00778333333333,0.0347,0.00989999999999999,60.335,-13.0375,3.2715,0.092,-0.90745,-0.118225,0.201225,102.4998,62.7806,-3.0366,640.2485,1,1,1,1
24-May-2018 13:29:06,29.4545454545455,0.928022222222222,0.156311111111111,-0.142133333333333,-18.2342857142857,-2.22557142857143,3.07442857142857,320.156,0.84474,0.46362,-0.29072,113.9225,13.87575,-86.3375,97.30425,-1.00778333333333,0.0347,0.00989999999999999,60.335,-13.0375,3.2715,0.092,-0.90745,-0.118225,0.201225,102.4998,62.7806,-3.0366,640.2485,1,1,1,1
24-May-2018 13:29:06,29.4545454545455,0.928022222222222,0.156311111111111,-0.142133333333333,-18.2342857142857,-2.22557142857143,3.07442857142857,320.156,0.84474,0.46362,-0.29072,113.9225,13.87575,-86.3375,97.30425,-1.00778333333333,0.0347,0.00989999999999999,60.335,-13.0375,3.2715,0,-0.90745,-0.118225,0.201225,102.4998,62.7806,-3.0366,640.2485,1,1,1,1
24-May-2018 13:29:07,59.7777777777778,0.94318,0.09796,-0.16608,-51.2333333333333,2.05333333333333,8.35333333333333,313.058,0.84224,0.4663,-0.28014,43.3833333333333,68.6266666666667,9.57555555555555,97.315,-1.05031428571429,0.0394428571428571,0.0311571428571429,47.9525,19.26625,7.089,0.0293333333333333,-0.9696,-0.0632,-0.05354,89.573,4.2835,-14.43575,439.5436,1,1,1,1
24-May-2018 13:29:07,59.7777777777778,0.94318,0.09796,-0.16608,-51.2333333333333,2.05333333333333,8.35333333333333,313.058,0.84224,0.4663,-0.28014,43.3833333333333,68.6266666666667,9.57555555555555,97.315,-1.05031428571429,0.0394428571428571,0.0311571428571429,47.9525,19.26625,7.089,0.0293333333333333,-0.9696,-0.0632,-0.05354,89.573,4.2835,-14.43575,439.5436,1,1,1,1
24-May-2018 13:29:07,59.7777777777778,0.94318,0.09796,-0.16608,-51.2333333333333,2.05333333333333,8.35333333333333,313.058,0.84224,0.4663,-0.28014,43.3833333333333,68.6266666666667,9.57555555555555,97.315,-1.05031428571429,0.0394428571428571,0.0311571428571429,47.9525,19.26625,7.089,0.0293333333333333,-0.9696,-0.0632,-0.05354,89.573,4.2835,-14.43575,439.5436,1,1,1,1
24-May-2018 13:29:07,59.7777777777778,0.94318,0.09796,-0.16608,-51.2333333333333,2.05333333333333,8.35333333333333,313.058,0.84224,0.4663,-0.28014,43.3833333333333,68.6266666666667,9.57555555555555,97.315,-1.05031428571429,0.0394428571428571,0.0311571428571429,47.9525,19.26625,7.089,0.0293333333333333,-0.9696,-0.0632,-0.05354,89.573,4.2835,-14.43575,439.5436,1,1,1,1
24-May-2018 13:29:08,-87.7272727272727,0.942066666666667,0.145366666666667,-0.0854333333333333,-57.38,-5.362,2.6812,286.301,0.89718,-0.02682,-0.3041,-23.1331428571429,-7.98428571428571,9.40714285714286,96.638,-1.02705714285714,0.112971428571429,0.0423142857142857,15.4812,-13.296,2.2088,0.094,-0.944314285714286,-0.223414285714286,0.0404,76.0974,20.4758,-4.061,480.69,1,1,1,1
24-May-2018 13:29:08,-87.7272727272727,0.942066666666667,0.145366666666667,-0.0854333333333333,-57.38,-5.362,2.6812,286.301,0.89718,-0.02682,-0.3041,-23.1331428571429,-7.98428571428571,9.40714285714286,96.638,-1.02705714285714,0.112971428571429,0.0423142857142857,15.4812,-13.296,2.2088,0.094,-0.944314285714286,-0.223414285714286,0.0404,76.0974,20.4758,-4.061,480.69,1,1,1,1
24-May-2018 13:29:08,-87.7272727272727,0.942066666666667,0.145366666666667,-0.0854333333333333,-57.38,-5.362,2.6812,286.301,0.89718,-0.02682,-0.3041,-23.1331428571429,-7.98428571428571,9.40714285714286,96.638,-1.02705714285714,0.112971428571429,0.0423142857142857,15.4812,-13.296,2.2088,0.094,-0.944314285714286,-0.223414285714286,0.0404,76.0974,20.4758,-4.061,480.69,1,1,1,1
24-May-2018 13:29:08,-87.7272727272727,0.942066666666667,0.145366666666667,-0.0854333333333333,-57.38,-5.362,2.6812,286.301,0.89718,-0.02682,-0.3041,-23.1331428571429,-7.98428571428571,9.40714285714286,96.638,-1.02705714285714,0.112971428571429,0.0423142857142857,15.4812,-13.296,2.2088,0.094,-0.944314285714286,-0.223414285714286,0.0404,76.0974,20.4758,-4.061,480.69,1,1,1,1
24-May-2018 13:29:09,69.1,0.946066666666667,0.1326,-0.117116666666667,-75.5,-5.5015,13.03,381.786714285714,0.98684,0.2294,-0.34678,-60.6875,-41.387125,-4.293,143.9332,-1.04082,0.0963,-0.00734,20.8033333333333,19.9248333333333,1.15116666666667,0.094,-0.9576,-0.199,0.11325,7.6525,7.2765,1.9815,696.432333333333,1,1,1,1
24-May-2018 13:29:09,69.1,0.946066666666667,0.1326,-0.117116666666667,-75.5,-5.5015,13.03,381.786714285714,0.98684,0.2294,-0.34678,-60.6875,-41.387125,-4.293,143.9332,-1.04082,0.0963,-0.00734,20.8033333333333,19.9248333333333,1.15116666666667,0.094,-0.9576,-0.199,0.11325,7.6525,7.2765,1.9815,696.432333333333,1,1,1,1
24-May-2018 13:29:09,69.1,0.946066666666667,0.1326,-0.117116666666667,-75.5,-5.5015,13.03,381.786714285714,0.98684,0.2294,-0.34678,-60.6875,-41.387125,-4.293,143.9332,-1.04082,0.0963,-0.00734,20.8033333333333,19.9248333333333,1.15116666666667,0.094,-0.9576,-0.199,0.11325,7.6525,7.2765,1.9815,696.432333333333,1,1,1,1
24-May-2018 13:29:09,69.1,0.946066666666667,0.1326,-0.117116666666667,-75.5,-5.5015,13.03,381.786714285714,0.98684,0.2294,-0.34678,-60.6875,-41.387125,-4.293,143.9332,-1.04082,0.0963,-0.00734,20.8033333333333,19.9248333333333,1.15116666666667,0.094,-0.9576,-0.199,0.11325,7.6525,7.2765,1.9815,696.432333333333,1,1,1,1
24-May-2018 13:29:10,29.3333333333333,0.956833333333333,0.1694,-0.0325166666666667,-10.95925,-4.399875,1.747,526.627,0.84,0.26668,-0.40192,-50.3455555555556,0.723666666666666,30.0355555555556,155.757,-1.05998,-0.0824,0.2085,33.808,-4.896,-12.782,0.0353333333333333,-0.92694,-0.20316,0.04642,21.867375,-16.41775,-25.449875,728.7715,1,1,1,1
24-May-2018 13:29:10,29.3333333333333,0.956833333333333,0.1694,-0.0325166666666667,-10.95925,-4.399875,1.747,526.627,0.84,0.26668,-0.40192,-50.3455555555556,0.723666666666666,30.0355555555556,155.757,-1.05998,-0.0824,0.2085,33.808,-4.896,-12.782,0.0353333333333333,-0.92694,-0.20316,0.04642,21.867375,-16.41775,-25.449875,728.7715,1,1,1,1
24-May-2018 13:29:10,29.3333333333333,0.956833333333333,0.1694,-0.0325166666666667,-10.95925,-4.399875,1.747,526.627,0.84,0.26668,-0.40192,-50.3455555555556,0.723666666666666,30.0355555555556,155.757,-1.05998,-0.0824,0.2085,33.808,-4.896,-12.782,0.0353333333333333,-0.92694,-0.20316,0.04642,21.867375,-16.41775,-25.449875,728.7715,1,1,1,1
24-May-2018 13:29:10,29.3333333333333,0.956833333333333,0.1694,-0.0325166666666667,-10.95925,-4.399875,1.747,526.627,0.84,0.26668,-0.40192,-50.3455555555556,0.723666666666666,30.0355555555556,155.757,-1.05998,-0.0824,0.2085,33.808,-4.896,-12.782,0.0353333333333333,-0.92694,-0.20316,0.04642,21.867375,-16.41775,-25.449875,728.7715,1,1,1,1
24-May-2018 13:29:11,24,0.919114285714286,0.133071428571429,-0.101342857142857,-27.2528571428571,0.326,11.9582857142857,476.99825,0.85312,0.33328,-0.43896,-43.7,-13.82875,20.605,153.1665,-1.00878333333333,0.131016666666667,-0.0716166666666667,49.935,16.9175,12.54025,0.0353333333333333,-0.8591,-0.3865,0.2973,69.4055,-16.0975,-32.3475,765.3664,1,1,1,0
24-May-2018 13:29:11,24,0.919114285714286,0.133071428571429,-0.101342857142857,-27.2528571428571,0.326,11.9582857142857,476.99825,0.85312,0.33328,-0.43896,-43.7,-13.82875,20.605,153.1665,-1.00878333333333,0.131016666666667,-0.0716166666666667,49.935,16.9175,12.54025,0.0353333333333333,-0.8591,-0.3865,0.2973,69.4055,-16.0975,-32.3475,765.3664,1,1,1,0
24-May-2018 13:29:11,24,0.919114285714286,0.133071428571429,-0.101342857142857,-27.2528571428571,0.326,11.9582857142857,476.99825,0.85312,0.33328,-0.43896,-43.7,-13.82875,20.605,153.1665,-1.00878333333333,0.131016666666667,-0.0716166666666667,49.935,16.9175,12.54025,0.0353333333333333,-0.8591,-0.3865,0.2973,69.4055,-16.0975,-32.3475,765.3664,1,1,1,0
24-May-2018 13:29:11,24,0.919114285714286,0.133071428571429,-0.101342857142857,-27.2528571428571,0.326,11.9582857142857,476.99825,0.85312,0.33328,-0.43896,-43.7,-13.82875,20.605,153.1665,-1.00878333333333,0.131016666666667,-0.0716166666666667,49.935,16.9175,12.54025,0.0353333333333333,-0.8591,-0.3865,0.2973,69.4055,-16.0975,-32.3475,765.3664,1,1,1,0
24-May-2018 13:29:12,31.875,0.948057142857143,0.1784,-0.125242857142857,-37.2416666666667,-6.513,8.59683333333333,402.500666666667,0.939725,0.028975,-0.32575,-21.1477777777778,20.4238888888889,31.8322222222222,152.303,-1.04783333333333,-0.111233333333333,-0.0213,59.5433333333333,-41.1533333333333,1.49,0.0353333333333333,-0.74476,-0.45482,0.71704,-1.11716666666666,-10.3658333333333,-3.41433333333333,846.628,1,1,1,1
24-May-2018 13:29:12,31.875,0.948057142857143,0.1784,-0.125242857142857,-37.2416666666667,-6.513,8.59683333333333,402.500666666667,0.939725,0.028975,-0.32575,-21.1477777777778,20.4238888888889,31.8322222222222,152.303,-1.04783333333333,-0.111233333333333,-0.0213,59.5433333333333,-41.1533333333333,1.49,0.0353333333333333,-0.74476,-0.45482,0.71704,-1.11716666666666,-10.3658333333333,-3.41433333333333,846.628,1,1,1,1
24-May-2018 13:29:12,31.875,0.948057142857143,0.1784,-0.125242857142857,-37.2416666666667,-6.513,8.59683333333333,402.500666666667,0.939725,0.028975,-0.32575,-21.1477777777778,20.4238888888889,31.8322222222222,152.303,-1.04783333333333,-0.111233333333333,-0.0213,59.5433333333333,-41.1533333333333,1.49,0.0353333333333333,-0.74476,-0.45482,0.71704,-1.11716666666666,-10.3658333333333,-3.41433333333333,846.628,1,1,1,1
24-May-2018 13:29:12,31.875,0.948057142857143,0.1784,-0.125242857142857,-37.2416666666667,-6.513,8.59683333333333,402.500666666667,0.939725,0.028975,-0.32575,-21.1477777777778,20.4238888888889,31.8322222222222,152.303,-1.04783333333333,-0.111233333333333,-0.0213,59.5433333333333,-41.1533333333333,1.49,0.0353333333333333,-0.74476,-0.45482,0.71704,-1.11716666666666,-10.3658333333333,-3.41433333333333,846.628,1,1,1,1
24-May-2018 13:29:13,92.2,0.946585714285714,0.1062,-0.110657142857143,-50.8285714285714,-4.30714285714286,2.74471428571429,316.11575,0.91956,0.03426,-0.25288,-12.8833333333333,10.723,12.0852222222222,157.98025,-1.02516666666667,-0.0902666666666667,0.0942333333333333,14.97,3.872,-10.95,0.0353333333333333,-0.57454,-0.1673,0.75424,-4.42066666666667,20.9451666666667,13.3536666666667,824.1102,0,0,1,1
24-May-2018 13:29:13,92.2,0.946585714285714,0.1062,-0.110657142857143,-50.8285714285714,-4.30714285714286,2.74471428571429,316.11575,0.91956,0.03426,-0.25288,-12.8833333333333,10.723,12.0852222222222,157.98025,-1.02516666666667,-0.0902666666666667,0.0942333333333333,14.97,3.872,-10.95,0.0353333333333333,-0.57454,-0.1673,0.75424,-4.42066666666667,20.9451666666667,13.3536666666667,824.1102,0,0,1,1
24-May-2018 13:29:13,92.2,0.946585714285714,0.1062,-0.110657142857143,-50.8285714285714,-4.30714285714286,2.74471428571429,316.11575,0.91956,0.03426,-0.25288,-12.8833333333333,10.723,12.0852222222222,157.98025,-1.02516666666667,-0.0902666666666667,0.0942333333333333,14.97,3.872,-10.95,0.0353333333333333,-0.57454,-0.1673,0.75424,-4.42066666666667,20.9451666666667,13.3536666666667,824.1102,0,0,1,1
24-May-2018 13:29:13,92.2,0.946585714285714,0.1062,-0.110657142857143,-50.8285714285714,-4.30714285714286,2.74471428571429,316.11575,0.91956,0.03426,-0.25288,-12.8833333333333,10.723,12.0852222222222,157.98025,-1.02516666666667,-0.0902666666666667,0.0942333333333333,14.97,3.872,-10.95,0.0353333333333333,-0.57454,-0.1673,0.75424,-4.42066666666667,20.9451666666667,13.3536666666667,824.1102,0,0,1,1
24-May-2018 13:29:14,164.4,0.93292,0.23503,-0.1005,-2.63533333333333,-0.505,6.64666666666667,302.538,0.930225,0.12245,-0.249675,-15.768,-22.226,-10.5282,175.012,-1.0401,0.04005,0.03845,30.1275714285714,8.50928571428572,9.98171428571429,0.0353333333333333,-1.02917142857143,-0.0668714285714286,0.1076,41.5456666666667,6.13816666666667,-2.8455,501.861333333333,1,1,1,1
24-May-2018 13:29:14,164.4,0.93292,0.23503,-0.1005,-2.63533333333333,-0.505,6.64666666666667,302.538,0.930225,0.12245,-0.249675,-15.768,-22.226,-10.5282,175.012,-1.0401,0.04005,0.03845,30.1275714285714,8.50928571428572,9.98171428571429,0.0353333333333333,-1.02917142857143,-0.0668714285714286,0.1076,41.5456666666667,6.13816666666667,-2.8455,501.861333333333,1,1,1,1
24-May-2018 13:29:14,164.4,0.93292,0.23503,-0.1005,-2.63533333333333,-0.505,6.64666666666667,302.538,0.930225,0.12245,-0.249675,-15.768,-22.226,-10.5282,175.012,-1.0401,0.04005,0.03845,30.1275714285714,8.50928571428572,9.98171428571429,0.0353333333333333,-1.02917142857143,-0.0668714285714286,0.1076,41.5456666666667,6.13816666666667,-2.8455,501.861333333333,1,1,1,1
24-May-2018 13:29:14,164.4,0.93292,0.23503,-0.1005,-2.63533333333333,-0.505,6.64666666666667,302.538,0.930225,0.12245,-0.249675,-15.768,-22.226,-10.5282,175.012,-1.0401,0.04005,0.03845,30.1275714285714,8.50928571428572,9.98171428571429,0.0353333333333333,-1.02917142857143,-0.0668714285714286,0.1076,41.5456666666667,6.13816666666667,-2.8455,501.861333333333,1,1,1,1
24-May-2018 13:29:15,168.727272727273,0.974114285714286,0.00425714285714286,-0.1495,-22.7433333333333,-2.02166666666667,7.09322222222222,302.538,0.73862,0.17726,-0.3331,-19.6458888888889,-45.2066666666667,-15.8305555555556,175.012,-1.0155,0.0828,0.021275,-28.0625,-13.8775,-8.545,0.0353333333333333,-0.946666666666667,-0.172433333333333,0.0875666666666667,1.805,1.2926,0.4268,446.5506,1,1,1,1
24-May-2018 13:29:15,168.727272727273,0.974114285714286,0.00425714285714286,-0.1495,-22.7433333333333,-2.02166666666667,7.09322222222222,302.538,0.73862,0.17726,-0.3331,-19.6458888888889,-45.2066666666667,-15.8305555555556,175.012,-1.0155,0.0828,0.021275,-28.0625,-13.8775,-8.545,0.0353333333333333,-0.946666666666667,-0.172433333333333,0.0875666666666667,1.805,1.2926,0.4268,446.5506,1,1,1,1
24-May-2018 13:29:15,168.727272727273,0.974114285714286,0.00425714285714286,-0.1495,-22.7433333333333,-2.02166666666667,7.09322222222222,302.538,0.73862,0.17726,-0.3331,-19.6458888888889,-45.2066666666667,-15.8305555555556,175.012,-1.0155,0.0828,0.021275,-28.0625,-13.8775,-8.545,0.0353333333333333,-0.946666666666667,-0.172433333333333,0.0875666666666667,1.805,1.2926,0.4268,446.5506,1,1,1,1
24-May-2018 13:29:15,168.727272727273,0.974114285714286,0.00425714285714286,-0.1495,-22.7433333333333,-2.02166666666667,7.09322222222222,0,0.73862,0.17726,-0.3331,-19.6458888888889,-45.2066666666667,-15.8305555555556,175.012,-1.0155,0.0828,0.021275,-28.0625,-13.8775,-8.545,0.0353333333333333,-0.946666666666667,-0.172433333333333,0.0875666666666667,1.805,1.2926,0.4268,446.5506,1,1,1,1
24-May-2018 13:29:16,117.25,0.936657142857143,0.0970142857142857,-0.105142857142857,-8.96733333333333,-2.47533333333333,-0.608,335.6075,0.78355,0.396025,-0.519375,-195.051111111111,139.247444444444,91.5063333333333,179.75125,-0.9791,-0.0042,0.20745,9.8125,14.328,2.5305,0.0353333333333333,-0.91334,-0.11696,0.129,6.05428571428571,-4.32928571428571,-4.59057142857143,423.9725,0,1,1,1
24-May-2018 13:29:16,117.25,0.936657142857143,0.0970142857142857,-0.105142857142857,-8.96733333333333,-2.47533333333333,-0.608,335.6075,0.78355,0.396025,-0.519375,-195.051111111111,139.247444444444,91.5063333333333,179.75125,-0.9791,-0.0042,0.20745,9.8125,14.328,2.5305,0.0353333333333333,-0.91334,-0.11696,0.129,6.05428571428571,-4.32928571428571,-4.59057142857143,423.9725,0,1,1,1
24-May-2018 13:29:16,117.25,0.936657142857143,0.0970142857142857,-0.105142857142857,-8.96733333333333,-2.47533333333333,-0.608,335.6075,0.78355,0.396025,-0.519375,-195.051111111111,139.247444444444,91.5063333333333,179.75125,-0.9791,-0.0042,0.20745,9.8125,14.328,2.5305,0.0353333333333333,-0.91334,-0.11696,0.129,6.05428571428571,-4.32928571428571,-4.59057142857143,423.9725,0,1,1,1
24-May-2018 13:29:16,117.25,0.936657142857143,0.0970142857142857,-0.105142857142857,-8.96733333333333,-2.47533333333333,-0.608,335.6075,0.78355,0.396025,-0.519375,-195.051111111111,139.247444444444,91.5063333333333,179.75125,-0.9791,-0.0042,0.20745,9.8125,14.328,2.5305,0.0353333333333333,-0.91334,-0.11696,0.129,6.05428571428571,-4.32928571428571,-4.59057142857143,423.9725,0,1,1,1
24-May-2018 13:29:17,50.9,0.955575,0.065475,-0.10975,-9.0128,3.6466,-1.2872,337.4292,0.66232,0.14032,-0.2522,-11.81125,-8.0435,69.62,181.331,-1.0562,0.17118,-0.03576,14.8487142857143,-6.48771428571428,3.92,0.0353333333333333,-0.95508,-0.15702,0.07764,-13.65825,8.5975,3.35375,452.652,1,1,1,1
24-May-2018 13:29:17,50.9,0.955575,0.065475,-0.10975,-9.0128,3.6466,-1.2872,337.4292,0.66232,0.14032,-0.2522,-11.81125,-8.0435,69.62,181.331,-1.0562,0.17118,-0.03576,14.8487142857143,-6.48771428571428,3.92,0.0353333333333333,-0.95508,-0.15702,0.07764,-13.65825,8.5975,3.35375,452.652,1,1,1,1
24-May-2018 13:29:17,50.9,0.955575,0.065475,-0.10975,-9.0128,3.6466,-1.2872,337.4292,0.66232,0.14032,-0.2522,-11.81125,-8.0435,69.62,181.331,-1.0562,0.17118,-0.03576,14.8487142857143,-6.48771428571428,3.92,0.0353333333333333,-0.95508,-0.15702,0.07764,-13.65825,8.5975,3.35375,452.652,1,1,1,1
24-May-2018 13:29:17,50.9,0.955575,0.065475,-0.10975,-9.0128,3.6466,-1.2872,337.4292,0.66232,0.14032,-0.2522,-11.81125,-8.0435,69.62,181.331,-1.0562,0.17118,-0.03576,14.8487142857143,-6.48771428571428,3.92,0.0353333333333333,-0.95508,-0.15702,0.07764,-13.65825,8.5975,3.35375,452.652,1,1,1,1
24-May-2018 13:29:18,-84.4,0.95655,0.0863,-0.0963833333333333,69.0885714285714,7.53428571428571,-7.46,361.6314,0.99405,-0.50885,-0.250416666666667,-121.46,-124.047777777778,30.7265555555556,103.792,-1.03194,0.09122,0.0773,-54.5666666666667,-10.275,3.94533333333333,0.0353333333333333,-0.918975,-0.140625,0.081675,-64.5275,-37.7135,-10.25925,495.216,1,1,1,1
24-May-2018 13:29:18,-84.4,0.95655,0.0863,-0.0963833333333333,69.0885714285714,7.53428571428571,-7.46,361.6314,0.99405,-0.50885,-0.250416666666667,-121.46,-124.047777777778,30.7265555555556,103.792,-1.03194,0.09122,0.0773,-54.5666666666667,-10.275,3.94533333333333,0.0353333333333333,-0.918975,-0.140625,0.081675,-64.5275,-37.7135,-10.25925,495.216,1,1,1,1
24-May-2018 13:29:18,-84.4,0.95655,0.0863,-0.0963833333333333,69.0885714285714,7.53428571428571,-7.46,361.6314,0.99405,-0.50885,-0.250416666666667,-121.46,-124.047777777778,30.7265555555556,103.792,-1.03194,0.09122,0.0773,-54.5666666666667,-10.275,3.94533333333333,0,-0.918975,-0.140625,0.081675,-64.5275,-37.7135,-10.25925,495.216,1,1,1,1
24-May-2018 13:29:18,-84.4,0.95655,0.0863,-0.0963833333333333,69.0885714285714,7.53428571428571,-7.46,361.6314,0.99405,-0.50885,-0.250416666666667,-121.46,-124.047777777778,30.7265555555556,103.792,-1.03194,0.09122,0.0773,-54.5666666666667,-10.275,3.94533333333333,0,-0.918975,-0.140625,0.081675,-64.5275,-37.7135,-10.25925,495.216,1,1,1,1
