TIME,HELMET_RAW,BELT_ACC_X,BELT_ACC_Y,BELT_ACC_Z,BELT_ANG_X,BELT_ANG_Y,BELT_ANG_Z,BELT_LUMINOSITY,NECK_ACC_X,NECK_ACC_Y,NECK_ACC_Z,NECK_ANG_X,NECK_ANG_Y,NECK_ANG_Z,NECK_LUMINOSITY,PCKT_ACC_X,PCKT_ACC_Y,PCKT_ACC_Z,PCKT_ANG_X,PCKT_ANG_Y,PCKT_ANG_Z,PCKT_LUMINOSITY,WRST_ACC_X,WRST_ACC_Y,WRST_ACC_Z,WRST_ANG_X,WRST_ANG_Y,WRST_ANG_Z,WRST_LUMINOSITY,IR_1,IR_2,IR_3,IR_4
24-May-2018 13:27:19,58.8181818181818,0.9655,0.00941428571428572,-0.1476,14.4983333333333,4.433,-0.8895,495.25,0.695816666666667,-0.405366666666667,-0.358516666666667,-2.01222222222223,-28.8702222222222,-36.5555555555556,85.255,-0.96775,0.1001,0.01745,-59.65,17.45075,-3.77875,0.106,-0.92796,-0.17172,0.15544,-38.2684,6.195,6.9998,662.6536,1,1,1,1
24-May-2018 13:27:19,58.8181818181818,0.9655,0.00941428571428572,-0.1476,14.4983333333333,4.433,-0.8895,495.25,0.695816666666667,-0.405366666666667,-0.358516666666667,-2.01222222222223,-28.8702222222222,-36.5555555555556,85.255,-0.96775,0.1001,0.01745,-59.65,17.45075,-3.77875,0.106,-0.92796,-0.17172,0.15544,-38.2684,6.195,6.9998,662.6536,1,1,1,1
24-May-2018 13:27:19,58.8181818181818,0.9655,0.00941428571428572,-0.1476,14.4983333333333,4.433,-0.8895,495.25,0.695816666666667,-0.405366666666667,-0.358516666666667,-2.01222222222223,-28.8702222222222,-36.5555555555556,85.255,-0.96775,0.1001,0.01745,-59.65,17.45075,-3.77875,0.106,-0.92796,-0.17172,0.15544,-38.2684,6.195,6.9998,662.6536,1,1,1,1
24-May-2018 13:27:19,58.8181818181818,0.9655,0.00941428571428572,-0.1476,14.4983333333333,4.433,-0.8895,495.25,0.695816666666667,-0.405366666666667,-0.358516666666667,-2.01222222222223,-28.8702222222222,-36.5555555555556,85.255,-0.96775,0.1001,0.01745,-59.65,17.45075,-3.77875,0.106,-0.92796,-0.17172,0.15544,-38.2684,6.195,6.9998,662.6536,1,1,1,1
24-May-2018 13:27:20,120.9,0.94852,0.068,-0.00954,21.1455,5.83366666666667,-6.2295,437.1815,0.84546,0.20054,-0.234,-97.3628571428571,80.2971428571429,-128.642857142857,104.206,-0.998175,0.123925,0.029975,-34.4,6.4234,-2.66,0.098,-1.04285,-0.1555,0.11845,17.8251666666667,-6.8595,-24.604,486.795,0,1,1,1
24-May-2018 13:27:20,120.9,0.94852,0.068,-0.00954,21.1455,5.83366666666667,-6.2295,437.1815,0.84546,0.20054,-0.234,-97.3628571428571,80.2971428571429,-128.642857142857,104.206,-0.998175,0.123925,0.029975,-34.4,6.4234,-2.66,0.098,-1.04285,-0.1555,0.11845,17.8251666666667,-6.8595,-24.604,486.795,0,1,1,1
24-May-2018 13:27:20,120.9,0.94852,0.068,-0.00954,21.1455,5.83366666666667,-6.2295,437.1815,0.84546,0.20054,-0.234,-97.3628571428571,80.2971428571429,-128.642857142857,104.206,-0.998175,0.123925,0.029975,-34.4,6.4234,-2.66,0.098,-1.04285,-0.1555,0.11845,17.8251666666667,-6.8595,-24.604,486.795,0,1,1,1
24-May-2018 13:27:20,120.9,0.94852,0.068,-0.00954,21.1455,5.83366666666667,-6.2295,437.1815,0.84546,0.20054,-0.234,-97.3628571428571,80.2971428571429,-128.642857142857,104.206,-0.998175,0.123925,0.029975,-34.4,6.4234,-2.66,0.098,-1.04285,-0.1555,0.11845,17.8251666666667,-6.8595,-24.604,486.795,0,1,1,1
24-May-2018 13:27:21,93.6,0.9581,0.0892166666666667,-0.0832,-12.866,-3.2742,-2.3396,396.42,0.803733333333333,0.3863,-0.187166666666667,-38.8516666666667,-14.8538333333333,-45.9333333333333,108.920333333333,-1.14783333333333,0.0875333333333333,0.0715,-4.17,13.5862,2.2224,0.086,-0.7292,-0.298633333333333,0.427566666666667,19.3414,-52.2682,-21.7196,439.1305,1,1,1,1
24-May-2018 13:27:21,93.6,0.9581,0.0892166666666667,-0.0832,-12.866,-3.2742,-2.3396,396.42,0.803733333333333,0.3863,-0.187166666666667,-38.8516666666667,-14.8538333333333,-45.9333333333333,108.920333333333,-1.14783333333333,0.0875333333333333,0.0715,-4.17,13.5862,2.2224,0.086,-0.7292,-0.298633333333333,0.427566666666667,19.3414,-52.2682,-21.7196,439.1305,1,1,1,1
24-May-2018 13:27:21,93.6,0.9581,0.0892166666666667,-0.0832,-12.866,-3.2742,-2.3396,396.42,0.803733333333333,0.3863,-0.187166666666667,-38.8516666666667,-14.8538333333333,-45.9333333333333,108.920333333333,-1.14783333333333,0.0875333333333333,0.0715,-4.17,13.5862,2.2224,0.086,-0.7292,-0.298633333333333,0.427566666666667,19.3414,-52.2682,-21.7196,439.1305,1,1,1,1
24-May-2018 13:27:21,93.6,0.9581,0.0892166666666667,-0.0832,-12.866,-3.2742,-2.3396,396.42,0.803733333333333,0.3863,-0.187166666666667,-38.8516666666667,-14.8538333333333,-45.9333333333333,108.920333333333,-1.14783333333333,0.0875333333333333,0.0715,-4.17,13.5862,2.2224,0.086,-0.7292,-0.298633333333333,0.427566666666667,19.3414,-52.2682,-21.7196,439.1305,1,1,1,1
24-May-2018 13:27:22,55.4444444444444,0.935671428571428,0.165242857142857,-0.138671428571429,10.12,1.6228,0.3312,244.9925,0.82998,0.30584,-0.21136,47.17625,22.2825,-0.637375,105.715,-1.045325,0.089275,0.0176,3.105,-11.66,-1.6645,0.082,-0.44658,-0.24036,0.89198,-2.805,2.74366666666667,-19.4106666666667,590.214,1,1,1,1
24-May-2018 13:27:22,55.4444444444444,0.935671428571428,0.165242857142857,-0.138671428571429,10.12,1.6228,0.3312,244.9925,0.82998,0.30584,-0.21136,47.17625,22.2825,-0.637375,105.715,-1.045325,0.089275,0.0176,3.105,-11.66,-1.6645,0.082,-0.44658,-0.24036,0.89198,-2.805,2.74366666666667,-19.4106666666667,590.214,1,1,1,1
24-May-2018 13:27:22,55.4444444444444,0.935671428571428,0.165242857142857,-0.138671428571429,10.12,1.6228,0.3312,244.9925,0.82998,0.30584,-0.21136,47.17625,22.2825,-0.637375,105.715,-1.045325,0.089275,0.0176,3.105,-11.66,-1.6645,0.082,-0.44658,-0.24036,0.89198,-2.805,2.74366666666667,-19.4106666666667,590.214,1,1,1,1
24-May-2018 13:27:22,55.4444444444444,0.935671428571428,0.165242857142857,-0.138671428571429,10.12,1.6228,0.3312,244.9925,0.82998,0.30584,-0.21136,47.17625,22.2825,-0.637375,105.715,-1.045325,0.089275,0.0176,3.105,-11.66,-1.6645,0.082,-0.44658,-0.24036,0.89198,-2.805,2.74366666666667,-19.4106666666667,590.214,1,1,1,1
24-May-2018 13:27:23,33.5555555555556,0.943085714285714,0.123771428571429,-0.120857142857143,-4.052,-0.863,1.9878,244.9925,0.995516666666667,0.318066666666667,-0.155866666666667,50.2072857142857,-18.3408571428571,-6.07314285714286,98.862,-1.03453333333333,0.108,0.0348,-8.407,-0.17975,-1.70225,0.0546666666666667,-0.43625,-0.30015,0.85025,-8.57733333333334,-12.3373333333333,0.244,502.926,1,1,1,1
24-May-2018 13:27:23,33.5555555555556,0.943085714285714,0.123771428571429,-0.120857142857143,-4.052,-0.863,1.9878,244.9925,0.995516666666667,0.318066666666667,-0.155866666666667,50.2072857142857,-18.3408571428571,-6.07314285714286,98.862,-1.03453333333333,0.108,0.0348,-8.407,-0.17975,-1.70225,0.0546666666666667,-0.43625,-0.30015,0.85025,-8.57733333333334,-12.3373333333333,0.244,502.926,1,1,1,1
24-May-2018 13:27:23,33.5555555555556,0.943085714285714,0.123771428571429,-0.120857142857143,-4.052,-0.863,1.9878,244.9925,0.995516666666667,0.318066666666667,-0.155866666666667,50.2072857142857,-18.3408571428571,-6.07314285714286,98.862,-1.03453333333333,0.108,0.0348,-8.407,-0.17975,-1.70225,0.0546666666666667,-0.43625,-0.30015,0.85025,-8.57733333333334,-12.3373333333333,0.244,502.926,1,1,1,1
24-May-2018 13:27:23,33.5555555555556,0.943085714285714,0.123771428571429,-0.120857142857143,-4.052,-0.863,1.9878,244.9925,0.995516666666667,0.318066666666667,-0.155866666666667,50.2072857142857,-18.3408571428571,-6.07314285714286,98.862,-1.03453333333333,0.108,0.0348,-8.407,-0.17975,-1.70225,0.0546666666666667,-0.43625,-0.30015,0.85025,-8.57733333333334,-12.3373333333333,0.244,502.926,1,1,1,1
24-May-2018 13:27:24,33.5555555555556,0.9379375,0.13965,-0.167625,-1.93716666666667,-4.145,-1.612,244.9925,0.888183333333333,0.363766666666667,-0.307466666666667,-5.17285714285714,2.06114285714286,-2.30614285714286,98.1576666666667,-1.0276,0.120825,0.04655,3.59783333333333,1.54633333333333,0.286,0.0546666666666667,-0.3778,-0.4013,0.826066666666667,33.872,7.4695,-9.2075,442.700333333333,1,1,1,1
24-May-2018 13:27:24,33.5555555555556,0.9379375,0.13965,-0.167625,-1.93716666666667,-4.145,-1.612,244.9925,0.888183333333333,0.363766666666667,-0.307466666666667,-5.17285714285714,2.06114285714286,-2.30614285714286,98.1576666666667,-1.0276,0.120825,0.04655,3.59783333333333,1.54633333333333,0.286,0.0546666666666667,-0.3778,-0.4013,0.826066666666667,33.872,7.4695,-9.2075,442.700333333333,1,1,1,1
24-May-2018 13:27:24,33.5555555555556,0.9379375,0.13965,-0.167625,-1.93716666666667,-4.145,-1.612,0,0.888183333333333,0.363766666666667,-0.307466666666667,-5.17285714285714,2.06114285714286,-2.30614285714286,98.1576666666667,-1.0276,0.120825,0.04655,3.59783333333333,1.54633333333333,0.286,0.0546666666666667,-0.3778,-0.4013,0.826066666666667,33.872,7.4695,-9.2075,442.700333333333,1,1,1,1
24-May-2018 13:27:24,33.5555555555556,0.9379375,0.13965,-0.167625,-1.93716666666667,-4.145,-1.612,0,0.888183333333333,0.363766666666667,-0.307466666666667,-5.17285714285714,2.06114285714286,-2.30614285714286,98.1576666666667,-1.0276,0.120825,0.04655,3.59783333333333,1.54633333333333,0.286,0,-0.3778,-0.4013,0.826066666666667,33.872,7.4695,-9.2075,442.700333333333,1,1,1,1
24-May-2018 13:27:25,207.8,0.92424,0.16106,-0.19722,1.91133333333333,0.123666666666667,-0.304333333333333,216.603,0.86594,0.41026,-0.29928,6.871,9.92244444444445,-6.611,110.455,-1.02155714285714,0.109028571428571,-0.0482285714285714,1.5275,0.6425,-0.6695,0.082,0.0654166666666667,-0.7191,0.645483333333333,46.6666666666667,-8.39433333333333,-11.2803333333333,430.481,1,1,1,1
24-May-2018 13:27:25,207.8,0.92424,0.16106,-0.19722,1.91133333333333,0.123666666666667,-0.304333333333333,216.603,0.86594,0.41026,-0.29928,6.871,9.92244444444445,-6.611,110.455,-1.02155714285714,0.109028571428571,-0.0482285714285714,1.5275,0.6425,-0.6695,0.082,0.0654166666666667,-0.7191,0.645483333333333,46.6666666666667,-8.39433333333333,-11.2803333333333,430.481,1,1,1,1
24-May-2018 13:27:25,207.8,0.92424,0.16106,-0.19722,1.91133333333333,0.123666666666667,-0.304333333333333,216.603,0.86594,0.41026,-0.29928,6.871,9.92244444444445,-6.611,110.455,-1.02155714285714,0.109028571428571,-0.0482285714285714,1.5275,0.6425,-0.6695,0.082,0.0654166666666667,-0.7191,0.645483333333333,46.6666666666667,-8.39433333333333,-11.2803333333333,430.481,1,1,1,1
24-May-2018 13:27:25,207.8,0.92424,0.16106,-0.19722,1.91133333333333,0.123666666666667,-0.304333333333333,216.603,0.86594,0.41026,-0.29928,6.871,9.92244444444445,-6.611,110.455,-1.02155714285714,0.109028571428571,-0.0482285714285714,1.5275,0.6425,-0.6695,0.082,0.0654166666666667,-0.7191,0.645483333333333,46.6666666666667,-8.39433333333333,-11.2803333333333,430.481,1,1,1,1
24-May-2018 13:27:26,108.222222222222,0.927875,0.156725,-0.193125,0.854,0.092,0.519,216.20375,0.872366666666667,0.378533333333333,-0.28855,27.6377777777778,15.2603333333333,-3.63377777777778,108.999,-1.02375,0.10045,-0.051025,-1.9356,-1.142,-0.643,0.082,-0.01014,-0.6668,0.71882,8.63816666666667,9.08516666666667,14.8271666666667,415.736,1,1,1,1
24-May-2018 13:27:26,108.222222222222,0.927875,0.156725,-0.193125,0.854,0.092,0.519,216.20375,0.872366666666667,0.378533333333333,-0.28855,27.6377777777778,15.2603333333333,-3.63377777777778,108.999,-1.02375,0.10045,-0.051025,-1.9356,-1.142,-0.643,0.082,-0.01014,-0.6668,0.71882,8.63816666666667,9.08516666666667,14.8271666666667,415.736,1,1,1,1
24-May-2018 13:27:26,108.222222222222,0.927875,0.156725,-0.193125,0.854,0.092,0.519,216.20375,0.872366666666667,0.378533333333333,-0.28855,27.6377777777778,15.2603333333333,-3.63377777777778,108.999,-1.02375,0.10045,-0.051025,-1.9356,-1.142,-0.643,0.082,-0.01014,-0.6668,0.71882,8.63816666666667,9.08516666666667,14.8271666666667,415.736,1,1,1,1
24-May-2018 13:27:26,108.222222222222,0.927875,0.156725,-0.193125,0.854,0.092,0.519,216.20375,0.872366666666667,0.378533333333333,-0.28855,27.6377777777778,15.2603333333333,-3.63377777777778,108.999,-1.02375,0.10045,-0.051025,-1.9356,-1.142,-0.643,0.082,-0.01014,-0.6668,0.71882,8.63816666666667,9.08516666666667,14.8271666666667,415.736,1,1,1,1
24-May-2018 13:27:27,87.25,0.93256,0.12386,-0.19838,2.1134,2.4756,3.5976,216.967,0.8975,0.357975,-0.251075,10.0865555555556,9.158,-0.925777777777778,108.999,-1.0306,0.121066666666667,-0.0111,-3.0455,-2.3875,0.413,0.082,-0.41876,-0.27348,0.91304,5.488,29.37,-19.1463333333333,594.635,1,1,1,1
24-May-2018 13:27:27,87.25,0.93256,0.12386,-0.19838,2.1134,2.4756,3.5976,216.967,0.8975,0.357975,-0.251075,10.0865555555556,9.158,-0.925777777777778,108.999,-1.0306,0.121066666666667,-0.0111,-3.0455,-2.3875,0.413,0.082,-0.41876,-0.27348,0.91304,5.488,29.37,-19.1463333333333,594.635,1,1,1,1
24-May-2018 13:27:27,87.25,0.93256,0.12386,-0.19838,2.1134,2.4756,3.5976,216.967,0.8975,0.357975,-0.251075,10.0865555555556,9.158,-0.925777777777778,108.999,-1.0306,0.121066666666667,-0.0111,-3.0455,-2.3875,0.413,0.082,-0.41876,-0.27348,0.91304,5.488,29.37,-19.1463333333333,594.635,1,1,1,1
24-May-2018 13:27:27,87.25,0.93256,0.12386,-0.19838,2.1134,2.4756,3.5976,216.967,0.8975,0.357975,-0.251075,10.0865555555556,9.158,-0.925777777777778,108.999,-1.0306,0.121066666666667,-0.0111,-3.0455,-2.3875,0.413,0.082,-0.41876,-0.27348,0.91304,5.488,29.37,-19.1463333333333,594.635,1,1,1,1
24-May-2018 13:27:28,77.4444444444444,0.9661,0.08646,-0.09614,-45.9875,-2.06375,7.85825,374.97525,0.8979,0.36885,-0.26045,4.490625,-0.93725,-2.845,95.963,-1.03742,0.08494,0.0455,68.8083333333333,-25.3833333333333,1.0505,0.0723333333333333,-0.72665,-0.188083333333333,0.576,30.939,48.2076,-49.6828,816.896,1,1,1,1
24-May-2018 13:27:28,77.4444444444444,0.9661,0.08646,-0.09614,-45.9875,-2.06375,7.85825,374.97525,0.8979,0.36885,-0.26045,4.490625,-0.93725,-2.845,95.963,-1.03742,0.08494,0.0455,68.8083333333333,-25.3833333333333,1.0505,0.0723333333333333,-0.72665,-0.188083333333333,0.576,30.939,48.2076,-49.6828,816.896,1,1,1,1
24-May-2018 13:27:28,77.4444444444444,0.9661,0.08646,-0.09614,-45.9875,-2.06375,7.85825,374.97525,0.8979,0.36885,-0.26045,4.490625,-0.93725,-2.845,95.963,-1.03742,0.08494,0.0455,68.8083333333333,-25.3833333333333,1.0505,0.0723333333333333,-0.72665,-0.188083333333333,0.576,30.939,48.2076,-49.6828,816.896,1,1,1,1
24-May-2018 13:27:28,77.4444444444444,0.9661,0.08646,-0.09614,-45.9875,-2.06375,7.85825,374.97525,0.8979,0.36885,-0.26045,4.490625,-0.93725,-2.845,95.963,-1.03742,0.08494,0.0455,68.8083333333333,-25.3833333333333,1.0505,0.0723333333333333,-0.72665,-0.188083333333333,0.576,30.939,48.2076,-49.6828,816.896,1,1,1,1
24-May-2018 13:27:29,26,0.959883333333333,0.0406333333333333,-0.152366666666667,-38.5,-2.55516666666667,-1.27716666666667,510.487333333333,0.87332,0.4081,-0.28614,-1.58111111111111,-12.0188888888889,-8.77111111111111,95.963,-0.9927,0.149975,0.073925,34.894,-1.7858,3.8178,0.0706666666666667,-0.968866666666667,-0.1464,0.0810333333333333,3.757,2.1096,9.2684,675.746333333333,1,1,1,1
24-May-2018 13:27:29,26,0.959883333333333,0.0406333333333333,-0.152366666666667,-38.5,-2.55516666666667,-1.27716666666667,510.487333333333,0.87332,0.4081,-0.28614,-1.58111111111111,-12.0188888888889,-8.77111111111111,95.963,-0.9927,0.149975,0.073925,34.894,-1.7858,3.8178,0.0706666666666667,-0.968866666666667,-0.1464,0.0810333333333333,3.757,2.1096,9.2684,675.746333333333,1,1,1,1
24-May-2018 13:27:29,26,0.959883333333333,0.0406333333333333,-0.152366666666667,-38.5,-2.55516666666667,-1.27716666666667,510.487333333333,0.87332,0.4081,-0.28614,-1.58111111111111,-12.0188888888889,-8.77111111111111,95.963,-0.9927,0.149975,0.073925,34.894,-1.7858,3.8178,0.0706666666666667,-0.968866666666667,-0.1464,0.0810333333333333,3.757,2.1096,9.2684,675.746333333333,1,1,1,1
24-May-2018 13:27:29,26,0.959883333333333,0.0406333333333333,-0.152366666666667,-38.5,-2.55516666666667,-1.27716666666667,510.487333333333,0.87332,0.4081,-0.28614,-1.58111111111111,-12.0188888888889,-8.77111111111111,95.963,-0.9927,0.149975,0.073925,34.894,-1.7858,3.8178,0.0706666666666667,-0.968866666666667,-0.1464,0.0810333333333333,3.757,2.1096,9.2684,675.746333333333,1,1,1,1
24-May-2018 13:27:30,120.75,0.99435,0.12375,-0.12115,-42.295,1.8784,13.2048,472.720666666667,0.834625,0.44105,-0.287075,-4.60185714285714,-7.12571428571429,-8.84142857142857,96.796,-0.95575,0.00795,0.0595833333333333,52.4128571428571,-5.02985714285714,5.70514285714286,0.051,-0.915,-0.229285714285714,0.102128571428571,49.1204285714286,-16.115,-16.8641428571429,900.689,1,1,1,1
24-May-2018 13:27:30,120.75,0.99435,0.12375,-0.12115,-42.295,1.8784,13.2048,472.720666666667,0.834625,0.44105,-0.287075,-4.60185714285714,-7.12571428571429,-8.84142857142857,96.796,-0.95575,0.00795,0.0595833333333333,52.4128571428571,-5.02985714285714,5.70514285714286,0.051,-0.915,-0.229285714285714,0.102128571428571,49.1204285714286,-16.115,-16.8641428571429,900.689,1,1,1,1
24-May-2018 13:27:30,120.75,0.99435,0.12375,-0.12115,-42.295,1.8784,13.2048,472.720666666667,0.834625,0.44105,-0.287075,-4.60185714285714,-7.12571428571429,-8.84142857142857,96.796,-0.95575,0.00795,0.0595833333333333,52.4128571428571,-5.02985714285714,5.70514285714286,0.051,-0.915,-0.229285714285714,0.102128571428571,49.1204285714286,-16.115,-16.8641428571429,900.689,1,1,1,1
24-May-2018 13:27:30,120.75,0.99435,0.12375,-0.12115,-42.295,1.8784,13.2048,472.720666666667,0.834625,0.44105,-0.287075,-4.60185714285714,-7.12571428571429,-8.84142857142857,96.796,-0.95575,0.00795,0.0595833333333333,52.4128571428571,-5.02985714285714,5.70514285714286,0.051,-0.915,-0.229285714285714,0.102128571428571,49.1204285714286,-16.115,-16.8641428571429,900.689,1,1,1,1
24-May-2018 13:27:31,46.3333333333333,0.945816666666667,0.0920166666666667,-0.0984,-75.1857142857143,0.629142857142857,0.327428571428572,350.413333333333,0.80858,0.54796,-0.29566,32.2785,-2.4002,-35.7864,99.295,-0.9813,0.17875,0.0241,111.722,-51.4058,11.9368,0.051,-0.92772,-0.23218,0.06894,60.7072,10.622,-3.8538,732.626333333333,1,1,1,1
24-May-2018 13:27:31,46.3333333333333,0.945816666666667,0.0920166666666667,-0.0984,-75.1857142857143,0.629142857142857,0.327428571428572,350.413333333333,0.80858,0.54796,-0.29566,32.2785,-2.4002,-35.7864,99.295,-0.9813,0.17875,0.0241,111.722,-51.4058,11.9368,0.051,-0.92772,-0.23218,0.06894,60.7072,10.622,-3.8538,732.626333333333,1,1,1,1
24-May-2018 13:27:31,46.3333333333333,0.945816666666667,0.0920166666666667,-0.0984,-75.1857142857143,0.629142857142857,0.327428571428572,350.413333333333,0.80858,0.54796,-0.29566,32.2785,-2.4002,-35.7864,99.295,-0.9813,0.17875,0.0241,111.722,-51.4058,11.9368,0.051,-0.92772,-0.23218,0.06894,60.7072,10.622,-3.8538,732.626333333333,1,1,1,1
24-May-2018 13:27:31,46.3333333333333,0.945816666666667,0.0920166666666667,-0.0984,-75.1857142857143,0.629142857142857,0.327428571428572,350.413333333333,0.80858,0.54796,-0.29566,32.2785,-2.4002,-35.7864,99.295,-0.9813,0.17875,0.0241,111.722,-51.4058,11.9368,0.051,-0.92772,-0.23218,0.06894,60.7072,10.622,-3.8538,732.626333333333,1,1,1,1
24-May-2018 13:27:32,51,0.9542,0.0988166666666667,-0.0401333333333333,-15.4785714285714,0.598428571428571,5.661,337.3015,0.7496,0.671675,-0.226875,-3.61555555555556,42.107,23.4,99.295,-0.90994,0.04988,0.15824,13.876,9.372,-2.9782,0.051,-0.912071428571429,-0.153828571428571,0.152342857142857,8.06628571428571,11.7768571428571,5.11342857142857,480.63,1,1,1,1
24-May-2018 13:27:32,51,0.9542,0.0988166666666667,-0.0401333333333333,-15.4785714285714,0.598428571428571,5.661,337.3015,0.7496,0.671675,-0.226875,-3.61555555555556,42.107,23.4,99.295,-0.90994,0.04988,0.15824,13.876,9.372,-2.9782,0.051,-0.912071428571429,-0.153828571428571,0.152342857142857,8.06628571428571,11.7768571428571,5.11342857142857,480.63,1,1,1,1
24-May-2018 13:27:32,51,0.9542,0.0988166666666667,-0.0401333333333333,-15.4785714285714,0.598428571428571,5.661,337.3015,0.7496,0.671675,-0.226875,-3.61555555555556,42.107,23.4,99.295,-0.90994,0.04988,0.15824,13.876,9.372,-2.9782,0.051,-0.912071428571429,-0.153828571428571,0.152342857142857,8.06628571428571,11.7768571428571,5.11342857142857,480.63,1,1,1,1
24-May-2018 13:27:32,51,0.9542,0.0988166666666667,-0.0401333333333333,-15.4785714285714,0.598428571428571,5.661,337.3015,0.7496,0.671675,-0.226875,-3.61555555555556,42.107,23.4,99.295,-0.90994,0.04988,0.15824,13.876,9.372,-2.9782,0.051,-0.912071428571429,-0.153828571428571,0.152342857142857,8.06628571428571,11.7768571428571,5.11342857142857,480.63,1,1,1,1
24-May-2018 13:27:33,12.3,0.9442125,0.1347875,-0.079925,-3.88614285714286,1.62685714285714,-3.84071428571429,337.3015,0.77586,0.68092,-0.24396,123.5875,-45.669125,-2.62125,94.097,-1.04383333333333,0.0707833333333333,0.0110166666666667,39.1233333333333,-6.64,-2.84266666666667,0.051,-0.9881,-0.2244,0.062575,13.1506666666667,15.1928333333333,13.6686666666667,442.986,1,1,1,1
24-May-2018 13:27:33,12.3,0.9442125,0.1347875,-0.079925,-3.88614285714286,1.62685714285714,-3.84071428571429,337.3015,0.77586,0.68092,-0.24396,123.5875,-45.669125,-2.62125,94.097,-1.04383333333333,0.0707833333333333,0.0110166666666667,39.1233333333333,-6.64,-2.84266666666667,0.051,-0.9881,-0.2244,0.062575,13.1506666666667,15.1928333333333,13.6686666666667,442.986,1,1,1,1
24-May-2018 13:27:33,12.3,0.9442125,0.1347875,-0.079925,-3.88614285714286,1.62685714285714,-3.84071428571429,337.3015,0.77586,0.68092,-0.24396,123.5875,-45.669125,-2.62125,94.097,-1.04383333333333,0.0707833333333333,0.0110166666666667,39.1233333333333,-6.64,-2.84266666666667,0.051,-0.9881,-0.2244,0.062575,13.1506666666667,15.1928333333333,13.6686666666667,442.986,1,1,1,1
24-May-2018 13:27:33,12.3,0.9442125,0.1347875,-0.079925,-3.88614285714286,1.62685714285714,-3.84071428571429,337.3015,0.77586,0.68092,-0.24396,123.5875,-45.669125,-2.62125,94.097,-1.04383333333333,0.0707833333333333,0.0110166666666667,39.1233333333333,-6.64,-2.84266666666667,0.051,-0.9881,-0.2244,0.062575,13.1506666666667,15.1928333333333,13.6686666666667,442.986,1,1,1,1
24-May-2018 13:27:34,-96.8,0.9568875,0.1175625,-0.0724,-6.17716666666667,-4.642,5.6185,337.3015,1.023275,0.328375,-0.482775,-21.2734,63.2689,61.886,88.899,-1.034,0.0366333333333333,0.155983333333333,-7.416,2.20883333333333,2.2225,0.051,-0.89712,-0.27144,0.22028,4.09566666666667,-34.807,-33.0691666666667,416.7605,1,1,1,1
24-May-2018 13:27:34,-96.8,0.9568875,0.1175625,-0.0724,-6.17716666666667,-4.642,5.6185,337.3015,1.023275,0.328375,-0.482775,-21.2734,63.2689,61.886,88.899,-1.034,0.0366333333333333,0.155983333333333,-7.416,2.20883333333333,2.2225,0.051,-0.89712,-0.27144,0.22028,4.09566666666667,-34.807,-33.0691666666667,416.7605,1,1,1,1
24-May-2018 13:27:34,-96.8,0.9568875,0.1175625,-0.0724,-6.17716666666667,-4.642,5.6185,0,1.023275,0.328375,-0.482775,-21.2734,63.2689,61.886,88.899,-1.034,0.0366333333333333,0.155983333333333,-7.416,2.20883333333333,2.2225,0.051,-0.89712,-0.27144,0.22028,4.09566666666667,-34.807,-33.0691666666667,416.7605,1,1,1,1
24-May-2018 13:27:34,-96.8,0.9568875,0.1175625,-0.0724,-6.17716666666667,-4.642,5.6185,0,1.023275,0.328375,-0.482775,-21.2734,63.2689,61.886,88.899,-1.034,0.0366333333333333,0.155983333333333,-7.416,2.20883333333333,2.2225,0.051,-0.89712,-0.27144,0.22028,4.09566666666667,-34.807,-33.0691666666667,416.7605,1,1,1,1
24-May-2018 13:27:35,-64.625,0.94578,0.11086,-0.13364,1.945,-0.68175,-6.82375,346.372,0.976,-0.18465,-0.42105,130.968571428571,-36.1842857142857,14.2014285714286,88.899,-1.02622,0.07018,-0.0673,21.2935,9.819,2.44075,0.051,-0.69735,-0.36945,0.508625,8.618,-19.116,4.38016666666667,687.3774,1,0,1,1
24-May-2018 13:27:35,-64.625,0.94578,0.11086,-0.13364,1.945,-0.68175,-6.82375,346.372,0.976,-0.18465,-0.42105,130.968571428571,-36.1842857142857,14.2014285714286,88.899,-1.02622,0.07018,-0.0673,21.2935,9.819,2.44075,0.051,-0.69735,-0.36945,0.508625,8.618,-19.116,4.38016666666667,687.3774,1,0,1,1
24-May-2018 13:27:35,-64.625,0.94578,0.11086,-0.13364,1.945,-0.68175,-6.82375,346.372,0.976,-0.18465,-0.42105,130.968571428571,-36.1842857142857,14.2014285714286,88.899,-1.02622,0.07018,-0.0673,21.2935,9.819,2.44075,0.051,-0.69735,-0.36945,0.508625,8.618,-19.116,4.38016666666667,687.3774,1,0,1,1
24-May-2018 13:27:35,-64.625,0.94578,0.11086,-0.13364,1.945,-0.68175,-6.82375,346.372,0.976,-0.18465,-0.42105,130.968571428571,-36.1842857142857,14.2014285714286,88.899,-1.02622,0.07018,-0.0673,21.2935,9.819,2.44075,0.051,-0.69735,-0.36945,0.508625,8.618,-19.116,4.38016666666667,687.3774,1,0,1,1
24-May-2018 13:27:36,21.5,0.949775,0.159375,-0.115825,12.3041666666667,2.5625,4.23833333333333,337.340166666667,0.7744,-0.18638,-0.4841,-20.7875,-19.93625,26.89175,113.25675,-1.05056,0.07454,0.10316,-25.84,-4.6134,4.8282,0.051,-0.7270625,-0.19775,0.62545,4.25942857142857,0.269857142857143,17.709,686.88,1,1,1,1
24-May-2018 13:27:36,21.5,0.949775,0.159375,-0.115825,12.3041666666667,2.5625,4.23833333333333,337.340166666667,0.7744,-0.18638,-0.4841,-20.7875,-19.93625,26.89175,113.25675,-1.05056,0.07454,0.10316,-25.84,-4.6134,4.8282,0.051,-0.7270625,-0.19775,0.62545,4.25942857142857,0.269857142857143,17.709,686.88,1,1,1,1
24-May-2018 13:27:36,21.5,0.949775,0.159375,-0.115825,12.3041666666667,2.5625,4.23833333333333,337.340166666667,0.7744,-0.18638,-0.4841,-20.7875,-19.93625,26.89175,113.25675,-1.05056,0.07454,0.10316,-25.84,-4.6134,4.8282,0.051,-0.7270625,-0.19775,0.62545,4.25942857142857,0.269857142857143,17.709,686.88,1,1,1,1
24-May-2018 13:27:36,21.5,0.949775,0.159375,-0.115825,12.3041666666667,2.5625,4.23833333333333,337.340166666667,0.7744,-0.18638,-0.4841,-20.7875,-19.93625,26.89175,113.25675,-1.05056,0.07454,0.10316,-25.84,-4.6134,4.8282,0.051,-0.7270625,-0.19775,0.62545,4.25942857142857,0.269857142857143,17.709,686.88,1,1,1,1
24-May-2018 13:27:37,-172.3,0.966675,0.062425,-0.13355,-50.96,-2.8392,3.233,361.0104,0.86264,-0.04982,-0.4619,-18.5525,-0.812625,-20.84875,121.376,-1.02126666666667,0.132366666666667,-0.0351,17.6944,8.132,5.743,0.051,-0.858825,0.068375,0.245325,36.0246,17.817,-20.7184,622.6766,1,1,1,1
24-May-2018 13:27:37,-172.3,0.966675,0.062425,-0.13355,-50.96,-2.8392,3.233,361.0104,0.86264,-0.04982,-0.4619,-18.5525,-0.812625,-20.84875,121.376,-1.02126666666667,0.132366666666667,-0.0351,17.6944,8.132,5.743,0.051,-0.858825,0.068375,0.245325,36.0246,17.817,-20.7184,622.6766,1,1,1,1
24-May-2018 13:27:37,-172.3,0.966675,0.062425,-0.13355,-50.96,-2.8392,3.233,361.0104,0.86264,-0.04982,-0.4619,-18.5525,-0.812625,-20.84875,121.376,-1.02126666666667,0.132366666666667,-0.0351,17.6944,8.132,5.743,0.051,-0.858825,0.068375,0.245325,36.0246,17.817,-20.7184,622.6766,1,1,1,1
24-May-2018 13:27:37,-172.3,0.966675,0.062425,-0.13355,-50.96,-2.8392,3.233,361.0104,0.86264,-0.04982,-0.4619,-18.5525,-0.812625,-20.84875,121.376,-1.02126666666667,0.132366666666667,-0.0351,17.6944,8.132,5.743,0.051,-0.858825,0.068375,0.245325,36.0246,17.817,-20.7184,622.6766,1,1,1,1
24-May-2018 13:27:38,-305,0.926083333333333,0.183316666666667,-0.037,-42.4983333333333,-4.28416666666667,1.51833333333333,329.37775,0.847816666666667,0.1606,-0.539216666666667,-56.51,-22.7457142857143,20.4785714285714,129.8085,-1.012825,0.101425,-0.110475,58.312,-45.14,-4.1054,0.051,-0.936325,-0.22905,0.09235,94.2886666666667,26.1076666666667,-20.4776666666667,470.0605,1,1,1,1
24-May-2018 13:27:38,-305,0.926083333333333,0.183316666666667,-0.037,-42.4983333333333,-4.28416666666667,1.51833333333333,329.37775,0.847816666666667,0.1606,-0.539216666666667,-56.51,-22.7457142857143,20.4785714285714,129.8085,-1.012825,0.101425,-0.110475,58.312,-45.14,-4.1054,0.051,-0.936325,-0.22905,0.09235,94.2886666666667,26.1076666666667,-20.4776666666667,470.0605,1,1,1,1
24-May-2018 13:27:38,-305,0.926083333333333,0.183316666666667,-0.037,-42.4983333333333,-4.28416666666667,1.51833333333333,329.37775,0.847816666666667,0.1606,-0.539216666666667,-56.51,-22.7457142857143,20.4785714285714,129.8085,-1.012825,0.101425,-0.110475,58.312,-45.14,-4.1054,0.051,-0.936325,-0.22905,0.09235,94.2886666666667,26.1076666666667,-20.4776666666667,470.0605,1,1,1,1
24-May-2018 13:27:38,-305,0.926083333333333,0.183316666666667,-0.037,-42.4983333333333,-4.28416666666667,1.51833333333333,329.37775,0.847816666666667,0.1606,-0.539216666666667,-56.51,-22.7457142857143,20.4785714285714,129.8085,-1.012825,0.101425,-0.110475,58.312,-45.14,-4.1054,0.051,-0.936325,-0.22905,0.09235,94.2886666666667,26.1076666666667,-20.4776666666667,470.0605,1,1,1,1
24-May-2018 13:27:39,-297.8,0.998933333333333,0.08895,-0.0778166666666667,-57.65,-7.44366666666667,11.3898333333333,305.13,0.74184,0.2221,-0.67414,-38.85,-18.81,36.26125,138.241,-0.99755,0.0301,0.217,25.6325,2.05125,-0.849500000000001,0.051,-0.679533333333333,-0.4806,0.3628,24.0143333333333,43.2425,-95.3843333333333,562.55925,1,1,0,1
24-May-2018 13:27:39,-297.8,0.998933333333333,0.08895,-0.0778166666666667,-57.65,-7.44366666666667,11.3898333333333,305.13,0.74184,0.2221,-0.67414,-38.85,-18.81,36.26125,138.241,-0.99755,0.0301,0.217,25.6325,2.05125,-0.849500000000001,0.051,-0.679533333333333,-0.4806,0.3628,24.0143333333333,43.2425,-95.3843333333333,562.55925,1,1,0,1
24-May-2018 13:27:39,-297.8,0.998933333333333,0.08895,-0.0778166666666667,-57.65,-7.44366666666667,11.3898333333333,305.13,0.74184,0.2221,-0.67414,-38.85,-18.81,36.26125,138.241,-0.99755,0.0301,0.217,25.6325,2.05125,-0.849500000000001,0.051,-0.679533333333333,-0.4806,0.3628,24.0143333333333,43.2425,-95.3843333333333,562.55925,1,1,0,1
24-May-2018 13:27:39,-297.8,0.998933333333333,0.08895,-0.0778166666666667,-57.65,-7.44366666666667,11.3898333333333,305.13,0.74184,0.2221,-0.67414,-38.85,-18.81,36.26125,138.241,-0.99755,0.0301,0.217,25.6325,2.05125,-0.849500000000001,0.051,-0.679533333333333,-0.4806,0.3628,24.0143333333333,43.2425,-95.3843333333333,562.55925,1,1,0,1
24-May-2018 13:27:40,-19.6,0.87945,0.13475,-0.2313,-35.4,24.508,15.1795,305.13,0.7816,-0.1329,-0.6307,-36.4,-28.85,37.895,138.241,-0.99755,0.0301,0.217,25.6325,2.05125,-0.849500000000001,0.051,-0.333,-0.6415,0.3273,-2.012,44.878,-17.866,676.002,1,1,1,1
24-May-2018 13:27:40,-19.6,0.87945,0.13475,-0.2313,-35.4,24.508,15.1795,305.13,0.7816,-0.1329,-0.6307,-36.4,-28.85,37.895,138.241,-0.99755,0.0301,0.217,25.6325,2.05125,-0.849500000000001,0.051,-0.333,-0.6415,0.3273,-2.012,44.878,-17.866,676.002,1,1,1,1
24-May-2018 13:27:40,-19.6,0.87945,0.13475,-0.2313,-35.4,24.508,15.1795,305.13,0.7816,-0.1329,-0.6307,-36.4,-28.85,37.895,138.241,-0.99755,0.0301,0.217,25.6325,2.05125,-0.849500000000001,0.051,-0.333,-0.6415,0.3273,-2.012,44.878,-17.866,676.002,1,1,1,1
24-May-2018 13:27:40,-19.6,0.87945,0.13475,-0.2313,-35.4,24.508,15.1795,0,0.7816,-0.1329,-0.6307,-36.4,-28.85,37.895,138.241,0,0,0,0,0,0,0,-0.333,-0.6415,0.3273,-2.012,44.878,-17.866,676.002,1,1,1,1
24-May-2018 13:27:41,9.2,0.982183333333333,0.236633333333333,0.0497166666666667,-24.6744,2.5738,-20.644,491.177333333333,0.687233333333333,-0.0805333333333333,-0.676433333333333,-37.54,-7.644,42.972,155.084,-0.96425,0.11505,-0.0348,38.818,-28.283,6.15585714285714,0.041,-0.558183333333333,-0.779016666666667,0.165883333333333,40.3456666666667,29.3088333333333,0.243833333333333,703.2605,1,1,0,1
24-May-2018 13:27:41,9.2,0.982183333333333,0.236633333333333,0.0497166666666667,-24.6744,2.5738,-20.644,491.177333333333,0.687233333333333,-0.0805333333333333,-0.676433333333333,-37.54,-7.644,42.972,155.084,-0.96425,0.11505,-0.0348,38.818,-28.283,6.15585714285714,0.041,-0.558183333333333,-0.779016666666667,0.165883333333333,40.3456666666667,29.3088333333333,0.243833333333333,703.2605,1,1,0,1
24-May-2018 13:27:41,9.2,0.982183333333333,0.236633333333333,0.0497166666666667,-24.6744,2.5738,-20.644,491.177333333333,0.687233333333333,-0.0805333333333333,-0.676433333333333,-37.54,-7.644,42.972,155.084,-0.96425,0.11505,-0.0348,38.818,-28.283,6.15585714285714,0.041,-0.558183333333333,-0.779016666666667,0.165883333333333,40.3456666666667,29.3088333333333,0.243833333333333,703.2605,1,1,0,1
24-May-2018 13:27:41,9.2,0.982183333333333,0.236633333333333,0.0497166666666667,-24.6744,2.5738,-20.644,491.177333333333,0.687233333333333,-0.0805333333333333,-0.676433333333333,-37.54,-7.644,42.972,155.084,-0.96425,0.11505,-0.0348,38.818,-28.283,6.15585714285714,0.041,-0.558183333333333,-0.779016666666667,0.165883333333333,40.3456666666667,29.3088333333333,0.243833333333333,703.2605,1,1,0,1
24-May-2018 13:27:42,25.3333333333333,0.959516666666667,0.00791666666666666,-0.1052,-10.5126666666667,2.24166666666667,8.55066666666667,314.31025,0.70284,-0.05494,-0.6984,-20.5857142857143,0.236857142857143,16.1834285714286,158.2275,-1.05678,0.01356,0.14156,45.3733333333333,3.41416666666667,3.10233333333333,0.1012,-0.887033333333333,-0.660466666666667,0.176366666666667,74.7997142857143,19.7822857142857,-6.27185714285714,913.3532,1,1,1,1
24-May-2018 13:27:42,25.3333333333333,0.959516666666667,0.00791666666666666,-0.1052,-10.5126666666667,2.24166666666667,8.55066666666667,314.31025,0.70284,-0.05494,-0.6984,-20.5857142857143,0.236857142857143,16.1834285714286,158.2275,-1.05678,0.01356,0.14156,45.3733333333333,3.41416666666667,3.10233333333333,0.1012,-0.887033333333333,-0.660466666666667,0.176366666666667,74.7997142857143,19.7822857142857,-6.27185714285714,913.3532,1,1,1,1
24-May-2018 13:27:42,25.3333333333333,0.959516666666667,0.00791666666666666,-0.1052,-10.5126666666667,2.24166666666667,8.55066666666667,314.31025,0.70284,-0.05494,-0.6984,-20.5857142857143,0.236857142857143,16.1834285714286,158.2275,-1.05678,0.01356,0.14156,45.3733333333333,3.41416666666667,3.10233333333333,0.1012,-0.887033333333333,-0.660466666666667,0.176366666666667,74.7997142857143,19.7822857142857,-6.27185714285714,913.3532,1,1,1,1
24-May-2018 13:27:42,25.3333333333333,0.959516666666667,0.00791666666666666,-0.1052,-10.5126666666667,2.24166666666667,8.55066666666667,314.31025,0.70284,-0.05494,-0.6984,-20.5857142857143,0.236857142857143,16.1834285714286,158.2275,-1.05678,0.01356,0.14156,45.3733333333333,3.41416666666667,3.10233333333333,0.1012,-0.887033333333333,-0.660466666666667,0.176366666666667,74.7997142857143,19.7822857142857,-6.27185714285714,913.3532,1,1,1,1
24-May-2018 13:27:43,104.75,0.934333333333333,0.0254,-0.0628333333333333,7.6225,-3.3225,-7.666,85.438,0.7284,-0.00415,-0.70965,0.1845,8.125,2.0145,167.658,-1.09506666666667,0.1803,-0.0978666666666667,-5.93,-53.573,-6.3255,0.094,-0.59215,-0.565375,0.64705,17.3576666666667,-9.431,8.57733333333333,913.3532,1,1,1,1
24-May-2018 13:27:43,104.75,0.934333333333333,0.0254,-0.0628333333333333,7.6225,-3.3225,-7.666,85.438,0.7284,-0.00415,-0.70965,0.1845,8.125,2.0145,167.658,-1.09506666666667,0.1803,-0.0978666666666667,-5.93,-53.573,-6.3255,0.094,-0.59215,-0.565375,0.64705,17.3576666666667,-9.431,8.57733333333333,913.3532,1,1,1,1
24-May-2018 13:27:43,104.75,0.934333333333333,0.0254,-0.0628333333333333,7.6225,-3.3225,-7.666,85.438,0.7284,-0.00415,-0.70965,0.1845,8.125,2.0145,167.658,-1.09506666666667,0.1803,-0.0978666666666667,-5.93,-53.573,-6.3255,0.094,-0.59215,-0.565375,0.64705,17.3576666666667,-9.431,8.57733333333333,913.3532,1,1,1,1
24-May-2018 13:27:43,104.75,0.934333333333333,0.0254,-0.0628333333333333,7.6225,-3.3225,-7.666,85.438,0.7284,-0.00415,-0.70965,0.1845,8.125,2.0145,167.658,-1.09506666666667,0.1803,-0.0978666666666667,-5.93,-53.573,-6.3255,0.094,-0.59215,-0.565375,0.64705,17.3576666666667,-9.431,8.57733333333333,0,1,1,1,1
24-May-2018 13:27:44,122.090909090909,1.03252,0.14502,-0.17468,-16.846,-29.596,-6.9016,85.438,0.728,-0.00536666666666667,-0.687066666666667,4.4526,13.348,0.3304,167.658,-0.969166666666667,-0.0103666666666667,0.185166666666667,7.21,11.441,8.96666666666667,0.142,-0.5242,-0.540125,0.612675,-31.61575,-9.5885,5.7775,1039.8955,1,1,1,1
24-May-2018 13:27:44,122.090909090909,1.03252,0.14502,-0.17468,-16.846,-29.596,-6.9016,85.438,0.728,-0.00536666666666667,-0.687066666666667,4.4526,13.348,0.3304,167.658,-0.969166666666667,-0.0103666666666667,0.185166666666667,7.21,11.441,8.96666666666667,0.142,-0.5242,-0.540125,0.612675,-31.61575,-9.5885,5.7775,1039.8955,1,1,1,1
24-May-2018 13:27:44,122.090909090909,1.03252,0.14502,-0.17468,-16.846,-29.596,-6.9016,85.438,0.728,-0.00536666666666667,-0.687066666666667,4.4526,13.348,0.3304,167.658,-0.969166666666667,-0.0103666666666667,0.185166666666667,7.21,11.441,8.96666666666667,0.142,-0.5242,-0.540125,0.612675,-31.61575,-9.5885,5.7775,1039.8955,1,1,1,1
24-May-2018 13:27:44,122.090909090909,1.03252,0.14502,-0.17468,-16.846,-29.596,-6.9016,85.438,0.728,-0.00536666666666667,-0.687066666666667,4.4526,13.348,0.3304,167.658,-0.969166666666667,-0.0103666666666667,0.185166666666667,7.21,11.441,8.96666666666667,0.142,-0.5242,-0.540125,0.612675,-31.61575,-9.5885,5.7775,1039.8955,1,1,1,1
24-May-2018 13:27:45,149.9,0.93682,0.07416,-0.15962,-30.96,1.7826,13.792,85.438,0.725533333333333,0.00473333333333333,-0.679433333333333,6.8052,17.544,-0.886,167.658,-1.05166,0.06826,0.01746,31.737,19.205,1.74,0.112,-0.03935,-0.2467,0.66955,41.2206666666667,10.589,-6.03466666666667,913.107,1,1,1,1
24-May-2018 13:27:45,149.9,0.93682,0.07416,-0.15962,-30.96,1.7826,13.792,85.438,0.725533333333333,0.00473333333333333,-0.679433333333333,6.8052,17.544,-0.886,167.658,-1.05166,0.06826,0.01746,31.737,19.205,1.74,0.112,-0.03935,-0.2467,0.66955,41.2206666666667,10.589,-6.03466666666667,913.107,1,1,1,1
24-May-2018 13:27:45,149.9,0.93682,0.07416,-0.15962,-30.96,1.7826,13.792,85.438,0.725533333333333,0.00473333333333333,-0.679433333333333,6.8052,17.544,-0.886,167.658,-1.05166,0.06826,0.01746,31.737,19.205,1.74,0.112,-0.03935,-0.2467,0.66955,41.2206666666667,10.589,-6.03466666666667,913.107,1,1,1,1
24-May-2018 13:27:45,149.9,0.93682,0.07416,-0.15962,-30.96,1.7826,13.792,85.438,0.725533333333333,0.00473333333333333,-0.679433333333333,6.8052,17.544,-0.886,167.658,-1.05166,0.06826,0.01746,31.737,19.205,1.74,0.112,-0.03935,-0.2467,0.66955,41.2206666666667,10.589,-6.03466666666667,913.107,1,1,1,1
24-May-2018 13:27:46,140.375,0.935075,0.1486375,-0.14265,-16.7538571428571,17.7242857142857,6.06971428571429,85.438,0.73395,-0.00335,-0.630625,12.222875,24.50625,-2.7935,165.085333333333,-1.02522857142857,0.0511,0.103771428571429,21.35,27.583,-2.4206,0.0376,-1.157,-0.2154,0.05184,-33.665875,14.48175,22.934625,898.97,1,1,1,1
24-May-2018 13:27:46,140.375,0.935075,0.1486375,-0.14265,-16.7538571428571,17.7242857142857,6.06971428571429,85.438,0.73395,-0.00335,-0.630625,12.222875,24.50625,-2.7935,165.085333333333,-1.02522857142857,0.0511,0.103771428571429,21.35,27.583,-2.4206,0.0376,-1.157,-0.2154,0.05184,-33.665875,14.48175,22.934625,898.97,1,1,1,1
24-May-2018 13:27:46,140.375,0.935075,0.1486375,-0.14265,-16.7538571428571,17.7242857142857,6.06971428571429,85.438,0.73395,-0.00335,-0.630625,12.222875,24.50625,-2.7935,165.085333333333,-1.02522857142857,0.0511,0.103771428571429,21.35,27.583,-2.4206,0.0376,-1.157,-0.2154,0.05184,-33.665875,14.48175,22.934625,898.97,1,1,1,1
24-May-2018 13:27:46,140.375,0.935075,0.1486375,-0.14265,-16.7538571428571,17.7242857142857,6.06971428571429,85.438,0.73395,-0.00335,-0.630625,12.222875,24.50625,-2.7935,165.085333333333,-1.02522857142857,0.0511,0.103771428571429,21.35,27.583,-2.4206,0.0376,-1.157,-0.2154,0.05184,-33.665875,14.48175,22.934625,898.97,1,1,1,1
24-May-2018 13:27:47,99.3333333333333,0.920933333333333,0.08725,-0.179466666666667,-34.26,-3.2276,12.107,442.6036,0.714933333333333,-0.0252666666666667,-0.572133333333333,16.2071428571429,38.67,-0.580428571428571,163.799,-1.0228,0.152533333333333,-0.130133333333333,64.4033333333333,3.51666666666667,6.298,0.0376,-0.93566,-0.14076,0.09786,31.814,13.4755,1.47875,780.743166666667,1,1,1,1
24-May-2018 13:27:47,99.3333333333333,0.920933333333333,0.08725,-0.179466666666667,-34.26,-3.2276,12.107,442.6036,0.714933333333333,-0.0252666666666667,-0.572133333333333,16.2071428571429,38.67,-0.580428571428571,163.799,-1.0228,0.152533333333333,-0.130133333333333,64.4033333333333,3.51666666666667,6.298,0.0376,-0.93566,-0.14076,0.09786,31.814,13.4755,1.47875,780.743166666667,1,1,1,1
24-May-2018 13:27:47,99.3333333333333,0.920933333333333,0.08725,-0.179466666666667,-34.26,-3.2276,12.107,442.6036,0.714933333333333,-0.0252666666666667,-0.572133333333333,16.2071428571429,38.67,-0.580428571428571,163.799,-1.0228,0.152533333333333,-0.130133333333333,64.4033333333333,3.51666666666667,6.298,0.0376,-0.93566,-0.14076,0.09786,31.814,13.4755,1.47875,780.743166666667,1,1,1,1
24-May-2018 13:27:47,99.3333333333333,0.920933333333333,0.08725,-0.179466666666667,-34.26,-3.2276,12.107,442.6036,0.714933333333333,-0.0252666666666667,-0.572133333333333,16.2071428571429,38.67,-0.580428571428571,163.799,-1.0228,0.152533333333333,-0.130133333333333,64.4033333333333,3.51666666666667,6.298,0.0376,-0.93566,-0.14076,0.09786,31.814,13.4755,1.47875,780.743166666667,1,1,1,1
24-May-2018 13:27:48,136.333333333333,0.91825,0.17195,-0.21995,-83.4,-1.58,10.91,319.277,0.71615,-0.0297,-0.52825,8.04866666666667,38.1066666666667,6.15833333333333,163.799,-1.03476666666667,-0.0885666666666667,-0.0462,115.35,-56.2,30.73,0.0376,-0.954933333333333,-0.221533333333333,0.0298333333333333,60.1216666666667,7.74433333333333,-8.76033333333333,780.743166666667,0,1,1,0
24-May-2018 13:27:48,136.333333333333,0.91825,0.17195,-0.21995,-83.4,-1.58,10.91,319.277,0.71615,-0.0297,-0.52825,8.04866666666667,38.1066666666667,6.15833333333333,163.799,-1.03476666666667,-0.0885666666666667,-0.0462,115.35,-56.2,30.73,0.0376,-0.954933333333333,-0.221533333333333,0.0298333333333333,60.1216666666667,7.74433333333333,-8.76033333333333,780.743166666667,0,1,1,0
24-May-2018 13:27:48,136.333333333333,0.91825,0.17195,-0.21995,-83.4,-1.58,10.91,319.277,0.71615,-0.0297,-0.52825,8.04866666666667,38.1066666666667,6.15833333333333,163.799,-1.03476666666667,-0.0885666666666667,-0.0462,115.35,-56.2,30.73,0.0376,-0.954933333333333,-0.221533333333333,0.0298333333333333,60.1216666666667,7.74433333333333,-8.76033333333333,780.743166666667,0,1,1,0
24-May-2018 13:27:48,136.333333333333,0.91825,0.17195,-0.21995,-83.4,-1.58,10.91,319.277,0.71615,-0.0297,-0.52825,8.04866666666667,38.1066666666667,6.15833333333333,163.799,-1.03476666666667,-0.0885666666666667,-0.0462,115.35,-56.2,30.73,0.0376,-0.954933333333333,-0.221533333333333,0.0298333333333333,60.1216666666667,7.74433333333333,-8.76033333333333,0,0,1,1,0
24-May-2018 13:27:49,147.8,0.91874,0.16932,-0.12656,-22.0716,-3.4054,1.4896,288.44975,0.751466666666667,-0.0366,-0.453433333333333,28.1142857142857,41.5657142857143,-0.424285714285714,163.799,-1.00306,-0.01572,0.22,5.67,-0.826666666666666,-3.76883333333333,0.0376,-0.91682,-0.16756,0.09616,14.3088333333333,6.08716666666667,-1.94116666666667,557.7,1,1,1,1
24-May-2018 13:27:49,147.8,0.91874,0.16932,-0.12656,-22.0716,-3.4054,1.4896,288.44975,0.751466666666667,-0.0366,-0.453433333333333,28.1142857142857,41.5657142857143,-0.424285714285714,163.799,-1.00306,-0.01572,0.22,5.67,-0.826666666666666,-3.76883333333333,0.0376,-0.91682,-0.16756,0.09616,14.3088333333333,6.08716666666667,-1.94116666666667,557.7,1,1,1,1
24-May-2018 13:27:49,147.8,0.91874,0.16932,-0.12656,-22.0716,-3.4054,1.4896,288.44975,0.751466666666667,-0.0366,-0.453433333333333,28.1142857142857,41.5657142857143,-0.424285714285714,163.799,-1.00306,-0.01572,0.22,5.67,-0.826666666666666,-3.76883333333333,0.0376,-0.91682,-0.16756,0.09616,14.3088333333333,6.08716666666667,-1.94116666666667,557.7,1,1,1,1
24-May-2018 13:27:49,147.8,0.91874,0.16932,-0.12656,-22.0716,-3.4054,1.4896,288.44975,0.751466666666667,-0.0366,-0.453433333333333,28.1142857142857,41.5657142857143,-0.424285714285714,163.799,-1.00306,-0.01572,0.22,5.67,-0.826666666666666,-3.76883333333333,0.0376,-0.91682,-0.16756,0.09616,14.3088333333333,6.08716666666667,-1.94116666666667,557.7,1,1,1,1
24-May-2018 13:27:50,69.6,0.989675,0.0559,-0.161475,-37.5,-1.20977777777778,16.3788888888889,309.227333333333,0.80454,-0.0538,-0.37358,10.595,34.34625,-1.689,143.893,-1.03105,0.13725,-0.0291166666666667,38.825,-18.4146666666667,8.96283333333333,0.0376,-0.925,-0.202333333333333,0.104366666666667,46.9756,-11.4388,-17.3656,488.356,1,1,1,1
24-May-2018 13:27:50,69.6,0.989675,0.0559,-0.161475,-37.5,-1.20977777777778,16.3788888888889,309.227333333333,0.80454,-0.0538,-0.37358,10.595,34.34625,-1.689,143.893,-1.03105,0.13725,-0.0291166666666667,38.825,-18.4146666666667,8.96283333333333,0.0376,-0.925,-0.202333333333333,0.104366666666667,46.9756,-11.4388,-17.3656,488.356,1,1,1,1
24-May-2018 13:27:50,69.6,0.989675,0.0559,-0.161475,-37.5,-1.20977777777778,16.3788888888889,309.227333333333,0.80454,-0.0538,-0.37358,10.595,34.34625,-1.689,143.893,-1.03105,0.13725,-0.0291166666666667,38.825,-18.4146666666667,8.96283333333333,0.0376,-0.925,-0.202333333333333,0.104366666666667,46.9756,-11.4388,-17.3656,488.356,1,1,1,1
24-May-2018 13:27:50,69.6,0.989675,0.0559,-0.161475,-37.5,-1.20977777777778,16.3788888888889,309.227333333333,0.80454,-0.0538,-0.37358,10.595,34.34625,-1.689,143.893,-1.03105,0.13725,-0.0291166666666667,38.825,-18.4146666666667,8.96283333333333,0.0376,-0.925,-0.202333333333333,0.104366666666667,46.9756,-11.4388,-17.3656,488.356,1,1,1,1
24-May-2018 13:27:51,43.75,0.94164,0.12998,-0.08072,-1.72,1.78475,-6.3345,318.2645,0.67135,-0.042625,-0.396075,-10.43,8.25444444444444,-3.39822222222222,133.94,-1.06063333333333,0.0289333333333333,0.10225,21.1142,10.062,-1.064,0.0376,-0.9206,-0.184375,0.0535625,17.632,22.2561666666667,9.25816666666667,471.7065,1,1,1,1
24-May-2018 13:27:51,43.75,0.94164,0.12998,-0.08072,-1.72,1.78475,-6.3345,318.2645,0.67135,-0.042625,-0.396075,-10.43,8.25444444444444,-3.39822222222222,133.94,-1.06063333333333,0.0289333333333333,0.10225,21.1142,10.062,-1.064,0.0376,-0.9206,-0.184375,0.0535625,17.632,22.2561666666667,9.25816666666667,471.7065,1,1,1,1
24-May-2018 13:27:51,43.75,0.94164,0.12998,-0.08072,-1.72,1.78475,-6.3345,318.2645,0.67135,-0.042625,-0.396075,-10.43,8.25444444444444,-3.39822222222222,133.94,-1.06063333333333,0.0289333333333333,0.10225,21.1142,10.062,-1.064,0.0376,-0.9206,-0.184375,0.0535625,17.632,22.2561666666667,9.25816666666667,471.7065,1,1,1,1
24-May-2018 13:27:51,43.75,0.94164,0.12998,-0.08072,-1.72,1.78475,-6.3345,318.2645,0.67135,-0.042625,-0.396075,-10.43,8.25444444444444,-3.39822222222222,133.94,-1.06063333333333,0.0289333333333333,0.10225,21.1142,10.062,-1.064,0.0376,-0.9206,-0.184375,0.0535625,17.632,22.2561666666667,9.25816666666667,471.7065,1,1,1,1
24-May-2018 13:27:52,43.0909090909091,0.9145,0.1411,-0.1706,-13.44875,-4.32025,13.36475,314.219,0.24845,0.0087,-0.225625,14.03,-14.446375,-1.3325,133.94,-1.0379,0.0581333333333333,0.00186666666666666,-34.4202,-24.318,4.4392,0.0376,-0.95486,-0.14072,0.06458,9.441,-4.54283333333333,-8.69933333333333,470.7116,1,1,1,1
24-May-2018 13:27:52,43.0909090909091,0.9145,0.1411,-0.1706,-13.44875,-4.32025,13.36475,314.219,0.24845,0.0087,-0.225625,14.03,-14.446375,-1.3325,133.94,-1.0379,0.0581333333333333,0.00186666666666666,-34.4202,-24.318,4.4392,0.0376,-0.95486,-0.14072,0.06458,9.441,-4.54283333333333,-8.69933333333333,470.7116,1,1,1,1
24-May-2018 13:27:52,43.0909090909091,0.9145,0.1411,-0.1706,-13.44875,-4.32025,13.36475,314.219,0.24845,0.0087,-0.225625,14.03,-14.446375,-1.3325,133.94,-1.0379,0.0581333333333333,0.00186666666666666,-34.4202,-24.318,4.4392,0.0376,-0.95486,-0.14072,0.06458,9.441,-4.54283333333333,-8.69933333333333,470.7116,1,1,1,1
24-May-2018 13:27:52,43.0909090909091,0.9145,0.1411,-0.1706,-13.44875,-4.32025,13.36475,314.219,0.24845,0.0087,-0.225625,14.03,-14.446375,-1.3325,133.94,-1.0379,0.0581333333333333,0.00186666666666666,-34.4202,-24.318,4.4392,0.0376,-0.95486,-0.14072,0.06458,9.441,-4.54283333333333,-8.69933333333333,470.7116,1,1,1,1
24-May-2018 13:27:53,64.2,0.941114285714286,0.125357142857143,-0.136142857142857,1.93614285714286,1.92628571428571,-1.71028571428571,325.4435,1.326175,-0.413125,-0.428425,58.05125,-59.03625,106.83125,132.993666666667,-1.01974,0.13396,-0.08278,31.6757142857143,8.51957142857143,5.34014285714286,0.0376,-0.924616666666667,-0.1887,0.0490833333333333,-3.65866666666667,-16.1586666666667,-12.561,373.975,1,1,0,1
24-May-2018 13:27:53,64.2,0.941114285714286,0.125357142857143,-0.136142857142857,1.93614285714286,1.92628571428571,-1.71028571428571,325.4435,1.326175,-0.413125,-0.428425,58.05125,-59.03625,106.83125,132.993666666667,-1.01974,0.13396,-0.08278,31.6757142857143,8.51957142857143,5.34014285714286,0.0376,-0.924616666666667,-0.1887,0.0490833333333333,-3.65866666666667,-16.1586666666667,-12.561,373.975,1,1,0,1
24-May-2018 13:27:53,64.2,0.941114285714286,0.125357142857143,-0.136142857142857,1.93614285714286,1.92628571428571,-1.71028571428571,325.4435,1.326175,-0.413125,-0.428425,58.05125,-59.03625,106.83125,132.993666666667,-1.01974,0.13396,-0.08278,31.6757142857143,8.51957142857143,5.34014285714286,0.0376,-0.924616666666667,-0.1887,0.0490833333333333,-3.65866666666667,-16.1586666666667,-12.561,373.975,1,1,0,1
24-May-2018 13:27:53,64.2,0.941114285714286,0.125357142857143,-0.136142857142857,1.93614285714286,1.92628571428571,-1.71028571428571,325.4435,1.326175,-0.413125,-0.428425,58.05125,-59.03625,106.83125,132.993666666667,-1.01974,0.13396,-0.08278,31.6757142857143,8.51957142857143,5.34014285714286,0.0376,-0.924616666666667,-0.1887,0.0490833333333333,-3.65866666666667,-16.1586666666667,-12.561,373.975,1,1,0,1
24-May-2018 13:27:54,19.2,1.0463,0.17325,-0.12275,17.25,0.9475,-1.185,340.797,1.6187,-0.7987,-0.3411,-61.75,-40.15,55.52,131.101,-0.9781,0.1329,0.261566666666667,81.23,-61.35,9.445,0.0376,-0.9628,-0.1383,0.1215,48.232,49.065,22.256,375.904,0,1,0,1
24-May-2018 13:27:54,19.2,1.0463,0.17325,-0.12275,17.25,0.9475,-1.185,340.797,1.6187,-0.7987,-0.3411,-61.75,-40.15,55.52,131.101,-0.9781,0.1329,0.261566666666667,81.23,-61.35,9.445,0.0376,-0.9628,-0.1383,0.1215,48.232,49.065,22.256,375.904,0,1,0,1
24-May-2018 13:27:54,19.2,1.0463,0.17325,-0.12275,17.25,0.9475,-1.185,340.797,1.6187,-0.7987,-0.3411,-61.75,-40.15,55.52,131.101,-0.9781,0.1329,0.261566666666667,81.23,-61.35,9.445,0.0376,-0.9628,-0.1383,0.1215,48.232,49.065,22.256,375.904,0,1,0,1
24-May-2018 13:27:54,19.2,1.0463,0.17325,-0.12275,17.25,0.9475,-1.185,340.797,1.6187,-0.7987,-0.3411,-61.75,-40.15,55.52,131.101,-0.9781,0.1329,0.261566666666667,81.23,-61.35,9.445,0.0376,-0.9628,-0.1383,0.1215,48.232,49.065,22.256,375.904,0,1,0,1
24-May-2018 13:27:55,45.6666666666667,0.93284,0.10148,-0.13978,-41.6175,-2.177,8.85625,347.81,0.943133333333333,-0.513833333333333,-0.285833333333333,-35.745,89.7891666666667,-2.29866666666667,131.101,-1.02393333333333,0.0211,0.0938,23.13975,17.32975,-3.47275,0.0376,-0.976933333333333,-0.200966666666667,0.0271666666666667,57.6626666666667,-11.6466666666667,-10.183,394.568,0,1,1,1
24-May-2018 13:27:55,45.6666666666667,0.93284,0.10148,-0.13978,-41.6175,-2.177,8.85625,347.81,0.943133333333333,-0.513833333333333,-0.285833333333333,-35.745,89.7891666666667,-2.29866666666667,131.101,-1.02393333333333,0.0211,0.0938,23.13975,17.32975,-3.47275,0.0376,-0.976933333333333,-0.200966666666667,0.0271666666666667,57.6626666666667,-11.6466666666667,-10.183,394.568,0,1,1,1
24-May-2018 13:27:55,45.6666666666667,0.93284,0.10148,-0.13978,-41.6175,-2.177,8.85625,347.81,0.943133333333333,-0.513833333333333,-0.285833333333333,-35.745,89.7891666666667,-2.29866666666667,131.101,-1.02393333333333,0.0211,0.0938,23.13975,17.32975,-3.47275,0.0376,-0.976933333333333,-0.200966666666667,0.0271666666666667,57.6626666666667,-11.6466666666667,-10.183,394.568,0,1,1,1
24-May-2018 13:27:55,45.6666666666667,0.93284,0.10148,-0.13978,-41.6175,-2.177,8.85625,347.81,0.943133333333333,-0.513833333333333,-0.285833333333333,-35.745,89.7891666666667,-2.29866666666667,131.101,-1.02393333333333,0.0211,0.0938,23.13975,17.32975,-3.47275,0.0376,-0.976933333333333,-0.200966666666667,0.0271666666666667,57.6626666666667,-11.6466666666667,-10.183,394.568,0,1,1,1
24-May-2018 13:27:56,36.5,0.9421,0.157116666666667,-0.108333333333333,-51.3444444444444,-5.13611111111111,4.49277777777778,335.082,0.71208,0.2343,0.38842,177.9225,329.625,68.0625,131.101,-1.01068,0.10216,0.01816,58.245,-23.8996666666667,3.52,0.0492,-0.920925,-0.189,-0.01115,44.9912857142857,15.0524285714286,-0.435571428571428,453.1725,1,1,1,1
24-May-2018 13:27:56,36.5,0.9421,0.157116666666667,-0.108333333333333,-51.3444444444444,-5.13611111111111,4.49277777777778,335.082,0.71208,0.2343,0.38842,177.9225,329.625,68.0625,131.101,-1.01068,0.10216,0.01816,58.245,-23.8996666666667,3.52,0.0492,-0.920925,-0.189,-0.01115,44.9912857142857,15.0524285714286,-0.435571428571428,453.1725,1,1,1,1
24-May-2018 13:27:56,36.5,0.9421,0.157116666666667,-0.108333333333333,-51.3444444444444,-5.13611111111111,4.49277777777778,335.082,0.71208,0.2343,0.38842,177.9225,329.625,68.0625,131.101,-1.01068,0.10216,0.01816,58.245,-23.8996666666667,3.52,0.0492,-0.920925,-0.189,-0.01115,44.9912857142857,15.0524285714286,-0.435571428571428,453.1725,1,1,1,1
24-May-2018 13:27:56,36.5,0.9421,0.157116666666667,-0.108333333333333,-51.3444444444444,-5.13611111111111,4.49277777777778,335.082,0.71208,0.2343,0.38842,177.9225,329.625,68.0625,131.101,-1.01068,0.10216,0.01816,58.245,-23.8996666666667,3.52,0.0492,-0.920925,-0.189,-0.01115,44.9912857142857,15.0524285714286,-0.435571428571428,453.1725,1,1,1,1
24-May-2018 13:27:57,69,0.940533333333333,0.160788888888889,-0.137577777777778,-47.82625,-3.48525,9.01475,335.082,-0.09678,0.03628,0.79092,58.2082857142857,138.42,11.5428571428571,140.893,-1.0384125,0.0507125,0.0814375,23.884,17.301,12.4506,0.094,-0.92,-0.224216666666667,-0.0556666666666667,81.6465,4.98475,-2.39325,427.527,1,1,1,1
24-May-2018 13:27:57,69,0.940533333333333,0.160788888888889,-0.137577777777778,-47.82625,-3.48525,9.01475,335.082,-0.09678,0.03628,0.79092,58.2082857142857,138.42,11.5428571428571,140.893,-1.0384125,0.0507125,0.0814375,23.884,17.301,12.4506,0.094,-0.92,-0.224216666666667,-0.0556666666666667,81.6465,4.98475,-2.39325,427.527,1,1,1,1
24-May-2018 13:27:57,69,0.940533333333333,0.160788888888889,-0.137577777777778,-47.82625,-3.48525,9.01475,335.082,-0.09678,0.03628,0.79092,58.2082857142857,138.42,11.5428571428571,140.893,-1.0384125,0.0507125,0.0814375,23.884,17.301,12.4506,0.094,-0.92,-0.224216666666667,-0.0556666666666667,81.6465,4.98475,-2.39325,427.527,1,1,1,1
24-May-2018 13:27:57,69,0.940533333333333,0.160788888888889,-0.137577777777778,-47.82625,-3.48525,9.01475,0,-0.09678,0.03628,0.79092,58.2082857142857,138.42,11.5428571428571,140.893,-1.0384125,0.0507125,0.0814375,23.884,17.301,12.4506,0.094,-0.92,-0.224216666666667,-0.0556666666666667,81.6465,4.98475,-2.39325,427.527,1,1,1,1
24-May-2018 13:27:58,-13.375,0.936814285714286,0.142342857142857,-0.128057142857143,-67.7257142857143,-6.26285714285714,11.1318571428571,484.769,0.101225,0.044975,0.663525,68.1,161.257777777778,-344.765111111111,116.257,-1.09671428571429,0.0490142857142857,0.221728571428571,-54.88,1.184,3.7814,0.0716,-0.94254,-0.133,0.12438,0.653142857142858,3.04,1.97742857142857,726.8276,1,1,1,1
24-May-2018 13:27:58,-13.375,0.936814285714286,0.142342857142857,-0.128057142857143,-67.7257142857143,-6.26285714285714,11.1318571428571,484.769,0.101225,0.044975,0.663525,68.1,161.257777777778,-344.765111111111,116.257,-1.09671428571429,0.0490142857142857,0.221728571428571,-54.88,1.184,3.7814,0.0716,-0.94254,-0.133,0.12438,0.653142857142858,3.04,1.97742857142857,726.8276,1,1,1,1
24-May-2018 13:27:58,-13.375,0.936814285714286,0.142342857142857,-0.128057142857143,-67.7257142857143,-6.26285714285714,11.1318571428571,484.769,0.101225,0.044975,0.663525,68.1,161.257777777778,-344.765111111111,116.257,-1.09671428571429,0.0490142857142857,0.221728571428571,-54.88,1.184,3.7814,0.0716,-0.94254,-0.133,0.12438,0.653142857142858,3.04,1.97742857142857,726.8276,1,1,1,1
24-May-2018 13:27:58,-13.375,0.936814285714286,0.142342857142857,-0.128057142857143,-67.7257142857143,-6.26285714285714,11.1318571428571,484.769,0.101225,0.044975,0.663525,68.1,161.257777777778,-344.765111111111,116.257,-1.09671428571429,0.0490142857142857,0.221728571428571,-54.88,1.184,3.7814,0.0716,-0.94254,-0.133,0.12438,0.653142857142858,3.04,1.97742857142857,726.8276,1,1,1,1
24-May-2018 13:27:59,-15,0.937866666666667,0.130783333333333,-0.0814333333333333,-30.45,-5.6465,13.83925,475.037571428571,0.377614285714286,-0.0228714285714286,1.01838571428571,-17.5221428571429,-39.1714285714286,0.882428571428571,66.985,-1.01238333333333,0.1598,-0.0219333333333333,19.66,18.986,0.784,0.124,-0.911614285714286,0.0208714285714286,0.153271428571429,-4.1464,7.2314,34.2684,796.2855,1,0,1,1
24-May-2018 13:27:59,-15,0.937866666666667,0.130783333333333,-0.0814333333333333,-30.45,-5.6465,13.83925,475.037571428571,0.377614285714286,-0.0228714285714286,1.01838571428571,-17.5221428571429,-39.1714285714286,0.882428571428571,66.985,-1.01238333333333,0.1598,-0.0219333333333333,19.66,18.986,0.784,0.124,-0.911614285714286,0.0208714285714286,0.153271428571429,-4.1464,7.2314,34.2684,796.2855,1,0,1,1
24-May-2018 13:27:59,-15,0.937866666666667,0.130783333333333,-0.0814333333333333,-30.45,-5.6465,13.83925,475.037571428571,0.377614285714286,-0.0228714285714286,1.01838571428571,-17.5221428571429,-39.1714285714286,0.882428571428571,66.985,-1.01238333333333,0.1598,-0.0219333333333333,19.66,18.986,0.784,0.124,-0.911614285714286,0.0208714285714286,0.153271428571429,-4.1464,7.2314,34.2684,796.2855,1,0,1,1
24-May-2018 13:27:59,-15,0.937866666666667,0.130783333333333,-0.0814333333333333,-30.45,-5.6465,13.83925,475.037571428571,0.377614285714286,-0.0228714285714286,1.01838571428571,-17.5221428571429,-39.1714285714286,0.882428571428571,66.985,-1.01238333333333,0.1598,-0.0219333333333333,19.66,18.986,0.784,0.124,-0.911614285714286,0.0208714285714286,0.153271428571429,-4.1464,7.2314,34.2684,796.2855,1,0,1,1
24-May-2018 13:28:00,53.5,0.9575,0.1431,-0.29154,17.736,-2.1538,-3.622,441.671166666667,0.380075,-0.057775,0.8824,0.653428571428571,-0.179714285714286,0.193,32.2802,-0.973975,0.13635,0.0363,-56.9666666666667,-17.5633333333333,10.2545,0.136,-0.9481,0.03655,0.207625,-20.5122,21.9756,0.3414,785.163,1,1,1,0
24-May-2018 13:28:00,53.5,0.9575,0.1431,-0.29154,17.736,-2.1538,-3.622,441.671166666667,0.380075,-0.057775,0.8824,0.653428571428571,-0.179714285714286,0.193,32.2802,-0.973975,0.13635,0.0363,-56.9666666666667,-17.5633333333333,10.2545,0.136,-0.9481,0.03655,0.207625,-20.5122,21.9756,0.3414,785.163,1,1,1,0
24-May-2018 13:28:00,53.5,0.9575,0.1431,-0.29154,17.736,-2.1538,-3.622,441.671166666667,0.380075,-0.057775,0.8824,0.653428571428571,-0.179714285714286,0.193,32.2802,-0.973975,0.13635,0.0363,-56.9666666666667,-17.5633333333333,10.2545,0.136,-0.9481,0.03655,0.207625,-20.5122,21.9756,0.3414,785.163,1,1,1,0
24-May-2018 13:28:00,53.5,0.9575,0.1431,-0.29154,17.736,-2.1538,-3.622,441.671166666667,0.380075,-0.057775,0.8824,0.653428571428571,-0.179714285714286,0.193,32.2802,-0.973975,0.13635,0.0363,-56.9666666666667,-17.5633333333333,10.2545,0.136,-0.9481,0.03655,0.207625,-20.5122,21.9756,0.3414,785.163,1,1,1,0
24-May-2018 13:28:01,62.5,0.881966666666667,-0.0318833333333333,-0.312033333333333,9.709,6.989125,-4.83925,308.559,0.38865,-0.06025,0.8945,0.5185,0.321,0.373625,31.629,-1.10428,0.1706,0.14702,-73.325,-12.21,4.0395,0.0866666666666667,-0.91982,-0.14106,0.04982,-34.86075,-5.8995,4.596,670.701333333333,0,1,1,0
24-May-2018 13:28:01,62.5,0.881966666666667,-0.0318833333333333,-0.312033333333333,9.709,6.989125,-4.83925,308.559,0.38865,-0.06025,0.8945,0.5185,0.321,0.373625,31.629,-1.10428,0.1706,0.14702,-73.325,-12.21,4.0395,0.0866666666666667,-0.91982,-0.14106,0.04982,-34.86075,-5.8995,4.596,670.701333333333,0,1,1,0
24-May-2018 13:28:01,62.5,0.881966666666667,-0.0318833333333333,-0.312033333333333,9.709,6.989125,-4.83925,308.559,0.38865,-0.06025,0.8945,0.5185,0.321,0.373625,31.629,-1.10428,0.1706,0.14702,-73.325,-12.21,4.0395,0.0866666666666667,-0.91982,-0.14106,0.04982,-34.86075,-5.8995,4.596,670.701333333333,0,1,1,0
24-May-2018 13:28:01,62.5,0.881966666666667,-0.0318833333333333,-0.312033333333333,9.709,6.989125,-4.83925,308.559,0.38865,-0.06025,0.8945,0.5185,0.321,0.373625,31.629,-1.10428,0.1706,0.14702,-73.325,-12.21,4.0395,0.0866666666666667,-0.91982,-0.14106,0.04982,-34.86075,-5.8995,4.596,670.701333333333,0,1,1,0
24-May-2018 13:28:02,66.5,0.933585714285714,0.100928571428571,-0.116828571428571,40.9016666666667,11.2666666666667,-12.415,482.1185,0.38805,-0.059475,0.892375,0.327875,0.968125,0.427,31.281,-1.05786666666667,0.163,-0.0443333333333333,-33.7623333333333,26.3566666666667,-2.27333333333333,0.0866666666666667,-1.020475,-0.129,0.110975,-49.9376666666667,-19.065,23.9633333333333,462.4976,1,1,1,1
24-May-2018 13:28:02,66.5,0.933585714285714,0.100928571428571,-0.116828571428571,40.9016666666667,11.2666666666667,-12.415,482.1185,0.38805,-0.059475,0.892375,0.327875,0.968125,0.427,31.281,-1.05786666666667,0.163,-0.0443333333333333,-33.7623333333333,26.3566666666667,-2.27333333333333,0.0866666666666667,-1.020475,-0.129,0.110975,-49.9376666666667,-19.065,23.9633333333333,462.4976,1,1,1,1
24-May-2018 13:28:02,66.5,0.933585714285714,0.100928571428571,-0.116828571428571,40.9016666666667,11.2666666666667,-12.415,482.1185,0.38805,-0.059475,0.892375,0.327875,0.968125,0.427,31.281,-1.05786666666667,0.163,-0.0443333333333333,-33.7623333333333,26.3566666666667,-2.27333333333333,0.0866666666666667,-1.020475,-0.129,0.110975,-49.9376666666667,-19.065,23.9633333333333,462.4976,1,1,1,1
24-May-2018 13:28:02,66.5,0.933585714285714,0.100928571428571,-0.116828571428571,40.9016666666667,11.2666666666667,-12.415,482.1185,0.38805,-0.059475,0.892375,0.327875,0.968125,0.427,31.281,-1.05786666666667,0.163,-0.0443333333333333,-33.7623333333333,26.3566666666667,-2.27333333333333,0.0866666666666667,-1.020475,-0.129,0.110975,-49.9376666666667,-19.065,23.9633333333333,462.4976,1,1,1,1
24-May-2018 13:28:03,22.3,0.922742857142857,0.0754285714285714,-0.172228571428571,60.77375,3.96375,-7.8915,360.36,0.38318,-0.06058,0.89108,0.480375,0.40425,0.427,31.397,-1.0416875,0.0605375,0.0455375,-60.8425,5.3845,5.01925,0.0866666666666667,-1.004975,-0.14015,0.05795,-84.7025714285714,11.9511428571429,20.6792857142857,495.949,1,0,1,1
24-May-2018 13:28:03,22.3,0.922742857142857,0.0754285714285714,-0.172228571428571,60.77375,3.96375,-7.8915,360.36,0.38318,-0.06058,0.89108,0.480375,0.40425,0.427,31.397,-1.0416875,0.0605375,0.0455375,-60.8425,5.3845,5.01925,0.0866666666666667,-1.004975,-0.14015,0.05795,-84.7025714285714,11.9511428571429,20.6792857142857,495.949,1,0,1,1
24-May-2018 13:28:03,22.3,0.922742857142857,0.0754285714285714,-0.172228571428571,60.77375,3.96375,-7.8915,360.36,0.38318,-0.06058,0.89108,0.480375,0.40425,0.427,31.397,-1.0416875,0.0605375,0.0455375,-60.8425,5.3845,5.01925,0.0866666666666667,-1.004975,-0.14015,0.05795,-84.7025714285714,11.9511428571429,20.6792857142857,495.949,1,0,1,1
24-May-2018 13:28:03,22.3,0.922742857142857,0.0754285714285714,-0.172228571428571,60.77375,3.96375,-7.8915,360.36,0.38318,-0.06058,0.89108,0.480375,0.40425,0.427,31.397,-1.0416875,0.0605375,0.0455375,-60.8425,5.3845,5.01925,0.0866666666666667,-1.004975,-0.14015,0.05795,-84.7025714285714,11.9511428571429,20.6792857142857,495.949,1,0,1,1
24-May-2018 13:28:04,43.6666666666667,0.927514285714286,0.105985714285714,-0.132414285714286,51.5702,2.9406,-3.6572,305.115666666667,0.387166666666667,-0.0642333333333333,0.893266666666667,0.383428571428571,0.288285714285714,0.418285714285714,31.6585,-1.03635,0.07575,-0.00355,-16.2666666666667,-12.9643333333333,5.01033333333333,0.0866666666666667,-0.9355,-0.154075,0.076875,-6.48366666666667,14.685,9.51216666666667,437.6995,1,1,1,1
24-May-2018 13:28:04,43.6666666666667,0.927514285714286,0.105985714285714,-0.132414285714286,51.5702,2.9406,-3.6572,305.115666666667,0.387166666666667,-0.0642333333333333,0.893266666666667,0.383428571428571,0.288285714285714,0.418285714285714,31.6585,-1.03635,0.07575,-0.00355,-16.2666666666667,-12.9643333333333,5.01033333333333,0.0866666666666667,-0.9355,-0.154075,0.076875,-6.48366666666667,14.685,9.51216666666667,437.6995,1,1,1,1
24-May-2018 13:28:04,43.6666666666667,0.927514285714286,0.105985714285714,-0.132414285714286,51.5702,2.9406,-3.6572,305.115666666667,0.387166666666667,-0.0642333333333333,0.893266666666667,0.383428571428571,0.288285714285714,0.418285714285714,31.6585,-1.03635,0.07575,-0.00355,-16.2666666666667,-12.9643333333333,5.01033333333333,0.0866666666666667,-0.9355,-0.154075,0.076875,-6.48366666666667,14.685,9.51216666666667,437.6995,1,1,1,1
24-May-2018 13:28:04,43.6666666666667,0.927514285714286,0.105985714285714,-0.132414285714286,51.5702,2.9406,-3.6572,305.115666666667,0.387166666666667,-0.0642333333333333,0.893266666666667,0.383428571428571,0.288285714285714,0.418285714285714,31.6585,-1.03635,0.07575,-0.00355,-16.2666666666667,-12.9643333333333,5.01033333333333,0.0866666666666667,-0.9355,-0.154075,0.076875,-6.48366666666667,14.685,9.51216666666667,437.6995,1,1,1,1
24-May-2018 13:28:05,60.625,0.959716666666667,0.0595666666666667,-0.103983333333333,10.9828571428571,2.58542857142857,-3.50785714285714,315.361,0.388625,-0.066975,0.8934,0.0638333333333333,0.3865,0.5795,31.513,-0.96402,0.11054,0.12934,-51.446,28.532,-5.76,0.0866666666666667,-0.982016666666667,-0.158866666666667,0.109033333333333,-12.2358333333333,-12.2255,-14.2175,430.231,1,1,1,1
24-May-2018 13:28:05,60.625,0.959716666666667,0.0595666666666667,-0.103983333333333,10.9828571428571,2.58542857142857,-3.50785714285714,315.361,0.388625,-0.066975,0.8934,0.0638333333333333,0.3865,0.5795,31.513,-0.96402,0.11054,0.12934,-51.446,28.532,-5.76,0.0866666666666667,-0.982016666666667,-0.158866666666667,0.109033333333333,-12.2358333333333,-12.2255,-14.2175,430.231,1,1,1,1
24-May-2018 13:28:05,60.625,0.959716666666667,0.0595666666666667,-0.103983333333333,10.9828571428571,2.58542857142857,-3.50785714285714,315.361,0.388625,-0.066975,0.8934,0.0638333333333333,0.3865,0.5795,31.513,-0.96402,0.11054,0.12934,-51.446,28.532,-5.76,0.0866666666666667,-0.982016666666667,-0.158866666666667,0.109033333333333,-12.2358333333333,-12.2255,-14.2175,430.231,1,1,1,1
24-May-2018 13:28:05,60.625,0.959716666666667,0.0595666666666667,-0.103983333333333,10.9828571428571,2.58542857142857,-3.50785714285714,315.361,0.388625,-0.066975,0.8934,0.0638333333333333,0.3865,0.5795,31.513,-0.96402,0.11054,0.12934,-51.446,28.532,-5.76,0.0866666666666667,-0.982016666666667,-0.158866666666667,0.109033333333333,-12.2358333333333,-12.2255,-14.2175,430.231,1,1,1,1
24-May-2018 13:28:06,111.111111111111,0.9668,0.138057142857143,-0.130657142857143,11.363,-2.08855555555556,0.509444444444445,315.361,0.38778,-0.06604,0.89194,0.522857142857143,1.15857142857143,0.339857142857143,31.0315,-1.03036666666667,0.0818166666666667,-0.0285333333333333,-48.548,4.3,8.8402,0.0866666666666667,-0.952416666666667,-0.148066666666667,0.0742333333333333,-32.2053333333333,-10.2743333333333,0.2845,462.3505,1,1,1,1
24-May-2018 13:28:06,111.111111111111,0.9668,0.138057142857143,-0.130657142857143,11.363,-2.08855555555556,0.509444444444445,315.361,0.38778,-0.06604,0.89194,0.522857142857143,1.15857142857143,0.339857142857143,31.0315,-1.03036666666667,0.0818166666666667,-0.0285333333333333,-48.548,4.3,8.8402,0.0866666666666667,-0.952416666666667,-0.148066666666667,0.0742333333333333,-32.2053333333333,-10.2743333333333,0.2845,462.3505,1,1,1,1
24-May-2018 13:28:06,111.111111111111,0.9668,0.138057142857143,-0.130657142857143,11.363,-2.08855555555556,0.509444444444445,315.361,0.38778,-0.06604,0.89194,0.522857142857143,1.15857142857143,0.339857142857143,31.0315,-1.03036666666667,0.0818166666666667,-0.0285333333333333,-48.548,4.3,8.8402,0,-0.952416666666667,-0.148066666666667,0.0742333333333333,-32.2053333333333,-10.2743333333333,0.2845,462.3505,1,1,1,1
24-May-2018 13:28:06,111.111111111111,0.9668,0.138057142857143,-0.130657142857143,11.363,-2.08855555555556,0.509444444444445,0,0.38778,-0.06604,0.89194,0.522857142857143,1.15857142857143,0.339857142857143,31.0315,-1.03036666666667,0.0818166666666667,-0.0285333333333333,-48.548,4.3,8.8402,0,-0.952416666666667,-0.148066666666667,0.0742333333333333,-32.2053333333333,-10.2743333333333,0.2845,462.3505,1,1,1,1
24-May-2018 13:28:07,134.1,0.9479,0.0941428571428571,-0.146114285714286,27.4708888888889,4.96566666666667,-2.75266666666667,360.718,0.3559,-0.0897666666666667,0.947133333333333,0.827444444444444,16.272,3.82066666666667,33.671,-0.99865,0.077,0.0716,-25.8616666666667,24.8555,0.206666666666667,0.0353333333333333,-0.924428571428571,-0.125014285714286,0.133057142857143,-23.147875,-1.859875,5.556375,454.089,1,1,1,1
24-May-2018 13:28:07,134.1,0.9479,0.0941428571428571,-0.146114285714286,27.4708888888889,4.96566666666667,-2.75266666666667,360.718,0.3559,-0.0897666666666667,0.947133333333333,0.827444444444444,16.272,3.82066666666667,33.671,-0.99865,0.077,0.0716,-25.8616666666667,24.8555,0.206666666666667,0.0353333333333333,-0.924428571428571,-0.125014285714286,0.133057142857143,-23.147875,-1.859875,5.556375,454.089,1,1,1,1
24-May-2018 13:28:07,134.1,0.9479,0.0941428571428571,-0.146114285714286,27.4708888888889,4.96566666666667,-2.75266666666667,360.718,0.3559,-0.0897666666666667,0.947133333333333,0.827444444444444,16.272,3.82066666666667,33.671,-0.99865,0.077,0.0716,-25.8616666666667,24.8555,0.206666666666667,0.0353333333333333,-0.924428571428571,-0.125014285714286,0.133057142857143,-23.147875,-1.859875,5.556375,454.089,1,1,1,1
24-May-2018 13:28:07,134.1,0.9479,0.0941428571428571,-0.146114285714286,27.4708888888889,4.96566666666667,-2.75266666666667,360.718,0.3559,-0.0897666666666667,0.947133333333333,0.827444444444444,16.272,3.82066666666667,33.671,-0.99865,0.077,0.0716,-25.8616666666667,24.8555,0.206666666666667,0.0353333333333333,-0.924428571428571,-0.125014285714286,0.133057142857143,-23.147875,-1.859875,5.556375,454.089,1,1,1,1
24-May-2018 13:28:08,49.25,0.95706,0.07446,-0.1554,12.486,0.7836,0.6,310.043666666667,0.28072,0.09362,0.98082,82.2877777777778,-195.66,313.351333333333,40.671,-1.01544,0.09758,-0.01218,-62.382,-2.952,9.4524,0.0353333333333333,-0.9538625,-0.1056625,0.0993125,-74.2988333333333,9.065,27.0225,554.785,1,1,1,1
24-May-2018 13:28:08,49.25,0.95706,0.07446,-0.1554,12.486,0.7836,0.6,310.043666666667,0.28072,0.09362,0.98082,82.2877777777778,-195.66,313.351333333333,40.671,-1.01544,0.09758,-0.01218,-62.382,-2.952,9.4524,0.0353333333333333,-0.9538625,-0.1056625,0.0993125,-74.2988333333333,9.065,27.0225,554.785,1,1,1,1
24-May-2018 13:28:08,49.25,0.95706,0.07446,-0.1554,12.486,0.7836,0.6,310.043666666667,0.28072,0.09362,0.98082,82.2877777777778,-195.66,313.351333333333,40.671,-1.01544,0.09758,-0.01218,-62.382,-2.952,9.4524,0.0353333333333333,-0.9538625,-0.1056625,0.0993125,-74.2988333333333,9.065,27.0225,554.785,1,1,1,1
24-May-2018 13:28:08,49.25,0.95706,0.07446,-0.1554,12.486,0.7836,0.6,310.043666666667,0.28072,0.09362,0.98082,82.2877777777778,-195.66,313.351333333333,40.671,-1.01544,0.09758,-0.01218,-62.382,-2.952,9.4524,0.0353333333333333,-0.9538625,-0.1056625,0.0993125,-74.2988333333333,9.065,27.0225,554.785,1,1,1,1
24-May-2018 13:28:09,34.6666666666667,0.92936,0.09236,-0.16482,57.522,7.5962,-12.192,271.765666666667,0.96255,0.087675,-0.411125,19.7777777777778,-500.711111111111,236.254444444444,79.6516666666667,-0.98832,0.13754,0.10206,-9.27714285714286,12.0985714285714,-3.59242857142857,0.0353333333333333,-0.953925,-0.16395,0.0484,-9.338,5.31371428571429,6.31542857142857,739.464,1,1,1,1
24-May-2018 13:28:09,34.6666666666667,0.92936,0.09236,-0.16482,57.522,7.5962,-12.192,271.765666666667,0.96255,0.087675,-0.411125,19.7777777777778,-500.711111111111,236.254444444444,79.6516666666667,-0.98832,0.13754,0.10206,-9.27714285714286,12.0985714285714,-3.59242857142857,0.0353333333333333,-0.953925,-0.16395,0.0484,-9.338,5.31371428571429,6.31542857142857,739.464,1,1,1,1
24-May-2018 13:28:09,34.6666666666667,0.92936,0.09236,-0.16482,57.522,7.5962,-12.192,271.765666666667,0.96255,0.087675,-0.411125,19.7777777777778,-500.711111111111,236.254444444444,79.6516666666667,-0.98832,0.13754,0.10206,-9.27714285714286,12.0985714285714,-3.59242857142857,0.0353333333333333,-0.953925,-0.16395,0.0484,-9.338,5.31371428571429,6.31542857142857,739.464,1,1,1,1
24-May-2018 13:28:09,34.6666666666667,0.92936,0.09236,-0.16482,57.522,7.5962,-12.192,271.765666666667,0.96255,0.087675,-0.411125,19.7777777777778,-500.711111111111,236.254444444444,79.6516666666667,-0.98832,0.13754,0.10206,-9.27714285714286,12.0985714285714,-3.59242857142857,0.0353333333333333,-0.953925,-0.16395,0.0484,-9.338,5.31371428571429,6.31542857142857,739.464,1,1,1,1
24-May-2018 13:28:10,54.2,0.9358,0.0795,-0.1684,35.74,3.23385714285714,-6.44042857142857,262.72025,0.70468,0.3044,-0.23898,59.20875,31.4,-65.095,99.142,-1.01216,0.07424,-0.09368,-34.9,3.6576,3.6466,0.0353333333333333,-0.937957142857143,-0.115757142857143,0.156742857142857,1.94083333333333,7.1035,-2.9065,803.829,1,1,1,1
24-May-2018 13:28:10,54.2,0.9358,0.0795,-0.1684,35.74,3.23385714285714,-6.44042857142857,262.72025,0.70468,0.3044,-0.23898,59.20875,31.4,-65.095,99.142,-1.01216,0.07424,-0.09368,-34.9,3.6576,3.6466,0.0353333333333333,-0.937957142857143,-0.115757142857143,0.156742857142857,1.94083333333333,7.1035,-2.9065,803.829,1,1,1,1
24-May-2018 13:28:10,54.2,0.9358,0.0795,-0.1684,35.74,3.23385714285714,-6.44042857142857,262.72025,0.70468,0.3044,-0.23898,59.20875,31.4,-65.095,99.142,-1.01216,0.07424,-0.09368,-34.9,3.6576,3.6466,0.0353333333333333,-0.937957142857143,-0.115757142857143,0.156742857142857,1.94083333333333,7.1035,-2.9065,803.829,1,1,1,1
24-May-2018 13:28:10,54.2,0.9358,0.0795,-0.1684,35.74,3.23385714285714,-6.44042857142857,262.72025,0.70468,0.3044,-0.23898,59.20875,31.4,-65.095,99.142,-1.01216,0.07424,-0.09368,-34.9,3.6576,3.6466,0.0353333333333333,-0.937957142857143,-0.115757142857143,0.156742857142857,1.94083333333333,7.1035,-2.9065,803.829,1,1,1,1
24-May-2018 13:28:11,91,0.95978,0.19732,-0.123,31.74175,1.19075,-3.729375,412.705333333333,0.965625,0.350575,-0.3407,143.10625,-166.8375,-70.0625,126.791,-1.0049,0.104633333333333,0.221066666666667,-40.7,-4.1,-2.5444,0.0746666666666667,-0.899975,-0.1658,0.01145,-6.5245,7.80483333333333,9.76633333333333,714.694,1,1,1,1
24-May-2018 13:28:11,91,0.95978,0.19732,-0.123,31.74175,1.19075,-3.729375,412.705333333333,0.965625,0.350575,-0.3407,143.10625,-166.8375,-70.0625,126.791,-1.0049,0.104633333333333,0.221066666666667,-40.7,-4.1,-2.5444,0.0746666666666667,-0.899975,-0.1658,0.01145,-6.5245,7.80483333333333,9.76633333333333,714.694,1,1,1,1
24-May-2018 13:28:11,91,0.95978,0.19732,-0.123,31.74175,1.19075,-3.729375,412.705333333333,0.965625,0.350575,-0.3407,143.10625,-166.8375,-70.0625,126.791,-1.0049,0.104633333333333,0.221066666666667,-40.7,-4.1,-2.5444,0.0746666666666667,-0.899975,-0.1658,0.01145,-6.5245,7.80483333333333,9.76633333333333,714.694,1,1,1,1
24-May-2018 13:28:11,91,0.95978,0.19732,-0.123,31.74175,1.19075,-3.729375,412.705333333333,0.965625,0.350575,-0.3407,143.10625,-166.8375,-70.0625,126.791,-1.0049,0.104633333333333,0.221066666666667,-40.7,-4.1,-2.5444,0.0746666666666667,-0.899975,-0.1658,0.01145,-6.5245,7.80483333333333,9.76633333333333,714.694,1,1,1,1
24-May-2018 13:28:12,113.25,0.955828571428571,0.0953571428571428,-0.121442857142857,-17.8658,-3.9632,3.9868,491.418,0.91895,0.197675,-0.311125,29.05875,1.1125,118.0075,154.44,-1.0238,0.0978,-0.01344,-28.76025,15.22425,-4.807,0.118,-0.910275,-0.10585,0.087975,-25.0368,-14.0002,-28.6952,631.54175,1,1,1,1
24-May-2018 13:28:12,113.25,0.955828571428571,0.0953571428571428,-0.121442857142857,-17.8658,-3.9632,3.9868,491.418,0.91895,0.197675,-0.311125,29.05875,1.1125,118.0075,154.44,-1.0238,0.0978,-0.01344,-28.76025,15.22425,-4.807,0.118,-0.910275,-0.10585,0.087975,-25.0368,-14.0002,-28.6952,631.54175,1,1,1,1
24-May-2018 13:28:12,113.25,0.955828571428571,0.0953571428571428,-0.121442857142857,-17.8658,-3.9632,3.9868,491.418,0.91895,0.197675,-0.311125,29.05875,1.1125,118.0075,154.44,-1.0238,0.0978,-0.01344,-28.76025,15.22425,-4.807,0.118,-0.910275,-0.10585,0.087975,-25.0368,-14.0002,-28.6952,631.54175,1,1,1,1
24-May-2018 13:28:12,113.25,0.955828571428571,0.0953571428571428,-0.121442857142857,-17.8658,-3.9632,3.9868,491.418,0.91895,0.197675,-0.311125,29.05875,1.1125,118.0075,154.44,-1.0238,0.0978,-0.01344,-28.76025,15.22425,-4.807,0.118,-0.910275,-0.10585,0.087975,-25.0368,-14.0002,-28.6952,631.54175,1,1,1,1
24-May-2018 13:28:13,-10.7,0.938228571428572,0.167542857142857,-0.0910285714285714,16.427,3.868,-6.71571428571429,492.437666666667,0.93922,0.27242,-0.26996,-9.98571428571428,10.1877142857143,-60.32,154.44,-1.03882,0.10856,0.08404,-89.75,-24.1375,4.23775,0.118,-0.94914,-0.14216,0.09424,-64.9148,-10.3902,17.4756,516.862,1,1,1,1
24-May-2018 13:28:13,-10.7,0.938228571428572,0.167542857142857,-0.0910285714285714,16.427,3.868,-6.71571428571429,492.437666666667,0.93922,0.27242,-0.26996,-9.98571428571428,10.1877142857143,-60.32,154.44,-1.03882,0.10856,0.08404,-89.75,-24.1375,4.23775,0.118,-0.94914,-0.14216,0.09424,-64.9148,-10.3902,17.4756,516.862,1,1,1,1
24-May-2018 13:28:13,-10.7,0.938228571428572,0.167542857142857,-0.0910285714285714,16.427,3.868,-6.71571428571429,492.437666666667,0.93922,0.27242,-0.26996,-9.98571428571428,10.1877142857143,-60.32,154.44,-1.03882,0.10856,0.08404,-89.75,-24.1375,4.23775,0.118,-0.94914,-0.14216,0.09424,-64.9148,-10.3902,17.4756,516.862,1,1,1,1
24-May-2018 13:28:13,-10.7,0.938228571428572,0.167542857142857,-0.0910285714285714,16.427,3.868,-6.71571428571429,492.437666666667,0.93922,0.27242,-0.26996,-9.98571428571428,10.1877142857143,-60.32,154.44,-1.03882,0.10856,0.08404,-89.75,-24.1375,4.23775,0.118,-0.94914,-0.14216,0.09424,-64.9148,-10.3902,17.4756,516.862,1,1,1,1
24-May-2018 13:28:14,-34.6666666666667,0.941716666666667,0.0561,-0.155916666666667,36.973,3.406,-2.81471428571429,514.291666666667,0.7233,0.3318,-0.324833333333333,39.70875,3.55125,-3.0835,157.1624,-1.01936,0.1723,-0.00824,-23.532,19.082,10.7352,0.118,-0.950083333333333,-0.13925,0.137666666666667,-3.97214285714286,-2.16028571428572,-10.6881428571429,468.647,1,1,1,0
24-May-2018 13:28:14,-34.6666666666667,0.941716666666667,0.0561,-0.155916666666667,36.973,3.406,-2.81471428571429,514.291666666667,0.7233,0.3318,-0.324833333333333,39.70875,3.55125,-3.0835,157.1624,-1.01936,0.1723,-0.00824,-23.532,19.082,10.7352,0.118,-0.950083333333333,-0.13925,0.137666666666667,-3.97214285714286,-2.16028571428572,-10.6881428571429,468.647,1,1,1,0
24-May-2018 13:28:14,-34.6666666666667,0.941716666666667,0.0561,-0.155916666666667,36.973,3.406,-2.81471428571429,514.291666666667,0.7233,0.3318,-0.324833333333333,39.70875,3.55125,-3.0835,157.1624,-1.01936,0.1723,-0.00824,-23.532,19.082,10.7352,0.118,-0.950083333333333,-0.13925,0.137666666666667,-3.97214285714286,-2.16028571428572,-10.6881428571429,468.647,1,1,1,0
24-May-2018 13:28:14,-34.6666666666667,0.941716666666667,0.0561,-0.155916666666667,36.973,3.406,-2.81471428571429,514.291666666667,0.7233,0.3318,-0.324833333333333,39.70875,3.55125,-3.0835,157.1624,-1.01936,0.1723,-0.00824,-23.532,19.082,10.7352,0.118,-0.950083333333333,-0.13925,0.137666666666667,-3.97214285714286,-2.16028571428572,-10.6881428571429,468.647,1,1,1,0
24-May-2018 13:28:15,15.625,0.94475,0.1074,-0.105,57.78,5.061,-12.3666666666667,514.291666666667,0.816,0.3988,-0.2505,6.8175,-145.875,-94.325,157.843,-1.05733333333333,0.0990333333333333,-0.0498,-52.35,-48.7,10.3645,0.118,-0.925566666666667,-0.1487,0.0953333333333333,-62.0706666666667,6.91066666666667,26.504,494.6365,1,1,1,0
24-May-2018 13:28:15,15.625,0.94475,0.1074,-0.105,57.78,5.061,-12.3666666666667,514.291666666667,0.816,0.3988,-0.2505,6.8175,-145.875,-94.325,157.843,-1.05733333333333,0.0990333333333333,-0.0498,-52.35,-48.7,10.3645,0.118,-0.925566666666667,-0.1487,0.0953333333333333,-62.0706666666667,6.91066666666667,26.504,494.6365,1,1,1,0
24-May-2018 13:28:15,15.625,0.94475,0.1074,-0.105,57.78,5.061,-12.3666666666667,514.291666666667,0.816,0.3988,-0.2505,6.8175,-145.875,-94.325,157.843,-1.05733333333333,0.0990333333333333,-0.0498,-52.35,-48.7,10.3645,0.118,-0.925566666666667,-0.1487,0.0953333333333333,-62.0706666666667,6.91066666666667,26.504,494.6365,1,1,1,0
24-May-2018 13:28:15,15.625,0.94475,0.1074,-0.105,57.78,5.061,-12.3666666666667,514.291666666667,0.816,0.3988,-0.2505,6.8175,-145.875,-94.325,157.843,-1.05733333333333,0.0990333333333333,-0.0498,-52.35,-48.7,10.3645,0.118,-0.925566666666667,-0.1487,0.0953333333333333,-62.0706666666667,6.91066666666667,26.504,494.6365,1,1,1,0
24-May-2018 13:28:16,81.4,0.9400375,0.08375,-0.1445,71.02375,2.050625,-7.721875,514.291666666667,0.98792,0.31602,-0.30596,-91.0085714285714,57.1571428571429,95.1428571428571,168.332,-1.01385,0.122783333333333,0.0490166666666667,-11.79,2.3928,4.552,0.118,-0.9149,-0.1559,0.183066666666667,-6.84671428571429,7.526,11.4024285714286,508.1,1,1,1,1
24-May-2018 13:28:16,81.4,0.9400375,0.08375,-0.1445,71.02375,2.050625,-7.721875,514.291666666667,0.98792,0.31602,-0.30596,-91.0085714285714,57.1571428571429,95.1428571428571,168.332,-1.01385,0.122783333333333,0.0490166666666667,-11.79,2.3928,4.552,0.118,-0.9149,-0.1559,0.183066666666667,-6.84671428571429,7.526,11.4024285714286,508.1,1,1,1,1
24-May-2018 13:28:16,81.4,0.9400375,0.08375,-0.1445,71.02375,2.050625,-7.721875,514.291666666667,0.98792,0.31602,-0.30596,-91.0085714285714,57.1571428571429,95.1428571428571,168.332,-1.01385,0.122783333333333,0.0490166666666667,-11.79,2.3928,4.552,0.118,-0.9149,-0.1559,0.183066666666667,-6.84671428571429,7.526,11.4024285714286,508.1,1,1,1,1
24-May-2018 13:28:16,81.4,0.9400375,0.08375,-0.1445,71.02375,2.050625,-7.721875,514.291666666667,0.98792,0.31602,-0.30596,-91.0085714285714,57.1571428571429,95.1428571428571,168.332,-1.01385,0.122783333333333,0.0490166666666667,-11.79,2.3928,4.552,0.118,-0.9149,-0.1559,0.183066666666667,-6.84671428571429,7.526,11.4024285714286,508.1,1,1,1,1
24-May-2018 13:28:17,145.8,0.946933333333333,0.101633333333333,-0.0970166666666667,14.7925,4.6527,-5.6998,514.291666666667,1.13925,-0.219125,-0.306875,69.34375,-231.0675,43.61875,178.821,-1.05306666666667,0.150733333333333,0.244533333333333,-23.78,-22.82775,11.40025,0.118,-0.9867,-0.13665,0.1172,28.3638333333333,4.187,-19.939,482.4525,1,1,1,1
24-May-2018 13:28:17,145.8,0.946933333333333,0.101633333333333,-0.0970166666666667,14.7925,4.6527,-5.6998,514.291666666667,1.13925,-0.219125,-0.306875,69.34375,-231.0675,43.61875,178.821,-1.05306666666667,0.150733333333333,0.244533333333333,-23.78,-22.82775,11.40025,0.118,-0.9867,-0.13665,0.1172,28.3638333333333,4.187,-19.939,482.4525,1,1,1,1
24-May-2018 13:28:17,145.8,0.946933333333333,0.101633333333333,-0.0970166666666667,14.7925,4.6527,-5.6998,514.291666666667,1.13925,-0.219125,-0.306875,69.34375,-231.0675,43.61875,178.821,-1.05306666666667,0.150733333333333,0.244533333333333,-23.78,-22.82775,11.40025,0.118,-0.9867,-0.13665,0.1172,28.3638333333333,4.187,-19.939,482.4525,1,1,1,1
24-May-2018 13:28:17,145.8,0.946933333333333,0.101633333333333,-0.0970166666666667,14.7925,4.6527,-5.6998,514.291666666667,1.13925,-0.219125,-0.306875,69.34375,-231.0675,43.61875,178.821,-1.05306666666667,0.150733333333333,0.244533333333333,-23.78,-22.82775,11.40025,0.118,-0.9867,-0.13665,0.1172,28.3638333333333,4.187,-19.939,482.4525,1,1,1,1
24-May-2018 13:28:18,115.666666666667,0.93084,0.13762,-0.09222,25.924,-0.4012,3.1616,321.163,0.98624,-0.42778,-0.43256,-33.2511111111111,273.417222222222,-14.8077777777778,182.413,-1.05556,0.08868,-0.05748,-14.7392857142857,12.505,2.065,0.118,-0.919133333333333,-0.0991,0.156183333333333,-34.0328571428571,7.77014285714286,7.79614285714286,518.7625,1,1,1,1
24-May-2018 13:28:18,115.666666666667,0.93084,0.13762,-0.09222,25.924,-0.4012,3.1616,321.163,0.98624,-0.42778,-0.43256,-33.2511111111111,273.417222222222,-14.8077777777778,182.413,-1.05556,0.08868,-0.05748,-14.7392857142857,12.505,2.065,0.118,-0.919133333333333,-0.0991,0.156183333333333,-34.0328571428571,7.77014285714286,7.79614285714286,518.7625,1,1,1,1
24-May-2018 13:28:18,115.666666666667,0.93084,0.13762,-0.09222,25.924,-0.4012,3.1616,321.163,0.98624,-0.42778,-0.43256,-33.2511111111111,273.417222222222,-14.8077777777778,182.413,-1.05556,0.08868,-0.05748,-14.7392857142857,12.505,2.065,0.118,-0.919133333333333,-0.0991,0.156183333333333,-34.0328571428571,7.77014285714286,7.79614285714286,518.7625,1,1,1,1
24-May-2018 13:28:18,115.666666666667,0.93084,0.13762,-0.09222,25.924,-0.4012,3.1616,321.163,0.98624,-0.42778,-0.43256,-33.2511111111111,273.417222222222,-14.8077777777778,182.413,-1.05556,0.08868,-0.05748,-14.7392857142857,12.505,2.065,0.118,-0.919133333333333,-0.0991,0.156183333333333,-34.0328571428571,7.77014285714286,7.79614285714286,518.7625,1,1,1,1
