TIME,HELMET_RAW,BELT_ACC_X,BELT_ACC_Y,BELT_ACC_Z,BELT_ANG_X,BELT_ANG_Y,BELT_ANG_Z,BELT_LUMINOSITY,NECK_ACC_X,NECK_ACC_Y,NECK_ACC_Z,NECK_ANG_X,NECK_ANG_Y,NECK_ANG_Z,NECK_LUMINOSITY,PCKT_ACC_X,PCKT_ACC_Y,PCKT_ACC_Z,PCKT_ANG_X,PCKT_ANG_Y,PCKT_ANG_Z,PCKT_LUMINOSITY,WRST_ACC_X,WRST_ACC_Y,WRST_ACC_Z,WRST_ANG_X,WRST_ANG_Y,WRST_ANG_Z,WRST_LUMINOSITY,IR_1,IR_2,IR_3,IR_4
24-May-2018 13:26:19,100.1,0.9504,0.0971125,-0.066225,12.0588,2.4628,-5.79,262.38275,-0.953925,-0.1927,-0.320875,3.40811111111111,-17.6857777777778,3.53566666666667,368.345,-1.0294,0.13015,0.0606,-31.48075,5.13675,-3.570375,0.088,-0.95104,-0.08974,0.00474,-37.1951428571429,-5.03485714285714,-18.319,435.9075,1,1,1,1
24-May-2018 13:26:19,100.1,0.9504,0.0971125,-0.066225,12.0588,2.4628,-5.79,262.38275,-0.953925,-0.1927,-0.320875,3.40811111111111,-17.6857777777778,3.53566666666667,368.345,-1.0294,0.13015,0.0606,-31.48075,5.13675,-3.570375,0.088,-0.95104,-0.08974,0.00474,-37.1951428571429,-5.03485714285714,-18.319,435.9075,1,1,1,1
24-May-2018 13:26:19,100.1,0.9504,0.0971125,-0.066225,12.0588,2.4628,-5.79,262.38275,-0.953925,-0.1927,-0.320875,3.40811111111111,-17.6857777777778,3.53566666666667,368.345,-1.0294,0.13015,0.0606,-31.48075,5.13675,-3.570375,0.088,-0.95104,-0.08974,0.00474,-37.1951428571429,-5.03485714285714,-18.319,435.9075,1,1,1,1
24-May-2018 13:26:19,100.1,0.9504,0.0971125,-0.066225,12.0588,2.4628,-5.79,262.38275,-0.953925,-0.1927,-0.320875,3.40811111111111,-17.6857777777778,3.53566666666667,368.345,-1.0294,0.13015,0.0606,-31.48075,5.13675,-3.570375,0.088,-0.95104,-0.08974,0.00474,-37.1951428571429,-5.03485714285714,-18.319,435.9075,1,1,1,1
24-May-2018 13:26:20,48.625,0.9784,0.0574,-0.122816666666667,36.6142857142857,-0.0514285714285713,-2.03828571428571,368.0745,-0.9621,-0.159933333333333,-0.310433333333333,6.39083333333333,26.6018333333333,5.52683333333334,367.075,-1.02366666666667,0.179666666666667,0.1941,-61.036,20.4496,7.648,0.088,-0.98245,-0.1728,0.1007,-66.6666666666667,-15.955,17.2156666666667,451.447666666667,1,1,1,1
24-May-2018 13:26:20,48.625,0.9784,0.0574,-0.122816666666667,36.6142857142857,-0.0514285714285713,-2.03828571428571,368.0745,-0.9621,-0.159933333333333,-0.310433333333333,6.39083333333333,26.6018333333333,5.52683333333334,367.075,-1.02366666666667,0.179666666666667,0.1941,-61.036,20.4496,7.648,0.088,-0.98245,-0.1728,0.1007,-66.6666666666667,-15.955,17.2156666666667,451.447666666667,1,1,1,1
24-May-2018 13:26:20,48.625,0.9784,0.0574,-0.122816666666667,36.6142857142857,-0.0514285714285713,-2.03828571428571,368.0745,-0.9621,-0.159933333333333,-0.310433333333333,6.39083333333333,26.6018333333333,5.52683333333334,367.075,-1.02366666666667,0.179666666666667,0.1941,-61.036,20.4496,7.648,0.088,-0.98245,-0.1728,0.1007,-66.6666666666667,-15.955,17.2156666666667,451.447666666667,1,1,1,1
24-May-2018 13:26:20,48.625,0.9784,0.0574,-0.122816666666667,36.6142857142857,-0.0514285714285713,-2.03828571428571,368.0745,-0.9621,-0.159933333333333,-0.310433333333333,6.39083333333333,26.6018333333333,5.52683333333334,367.075,-1.02366666666667,0.179666666666667,0.1941,-61.036,20.4496,7.648,0.088,-0.98245,-0.1728,0.1007,-66.6666666666667,-15.955,17.2156666666667,451.447666666667,1,1,1,1
24-May-2018 13:26:21,56.6666666666667,0.924057142857143,0.0196571428571429,-0.117228571428571,93.4833333333333,3.695,-8.20366666666667,310.6725,-0.97476,-0.16326,-0.32514,-6.92011111111111,12.2988888888889,9.87,366.44,-1.03708333333333,0.226183333333333,0.00333333333333333,-55.464,15.574,0.888000000000001,0.0492,-0.948483333333333,-0.198916666666667,0.116666666666667,-11.897875,-18.48325,-8.506125,545.473,1,1,1,1
24-May-2018 13:26:21,56.6666666666667,0.924057142857143,0.0196571428571429,-0.117228571428571,93.4833333333333,3.695,-8.20366666666667,310.6725,-0.97476,-0.16326,-0.32514,-6.92011111111111,12.2988888888889,9.87,366.44,-1.03708333333333,0.226183333333333,0.00333333333333333,-55.464,15.574,0.888000000000001,0.0492,-0.948483333333333,-0.198916666666667,0.116666666666667,-11.897875,-18.48325,-8.506125,545.473,1,1,1,1
24-May-2018 13:26:21,56.6666666666667,0.924057142857143,0.0196571428571429,-0.117228571428571,93.4833333333333,3.695,-8.20366666666667,310.6725,-0.97476,-0.16326,-0.32514,-6.92011111111111,12.2988888888889,9.87,366.44,-1.03708333333333,0.226183333333333,0.00333333333333333,-55.464,15.574,0.888000000000001,0.0492,-0.948483333333333,-0.198916666666667,0.116666666666667,-11.897875,-18.48325,-8.506125,545.473,1,1,1,1
24-May-2018 13:26:21,56.6666666666667,0.924057142857143,0.0196571428571429,-0.117228571428571,93.4833333333333,3.695,-8.20366666666667,310.6725,-0.97476,-0.16326,-0.32514,-6.92011111111111,12.2988888888889,9.87,366.44,-1.03708333333333,0.226183333333333,0.00333333333333333,-55.464,15.574,0.888000000000001,0.0492,-0.948483333333333,-0.198916666666667,0.116666666666667,-11.897875,-18.48325,-8.506125,545.473,1,1,1,1
24-May-2018 13:26:22,69.4,0.8984,0.0689142857142857,-0.107085714285714,27.168625,13.459625,-7.121625,264.299,-0.972175,-0.027075,-0.3208,-40.0714285714286,-35.3371428571429,32.7728571428571,366.44,-1.0449,0.147925,-0.075725,-43.9575,-16.53225,21.56,0.0586666666666667,-1.03786666666667,-0.251866666666667,0.187733333333333,-82.56,-7.9725,-1.69,663.3215,1,1,0,0.5
24-May-2018 13:26:22,69.4,0.8984,0.0689142857142857,-0.107085714285714,27.168625,13.459625,-7.121625,264.299,-0.972175,-0.027075,-0.3208,-40.0714285714286,-35.3371428571429,32.7728571428571,366.44,-1.0449,0.147925,-0.075725,-43.9575,-16.53225,21.56,0.0586666666666667,-1.03786666666667,-0.251866666666667,0.187733333333333,-82.56,-7.9725,-1.69,663.3215,1,1,0,0.5
24-May-2018 13:26:22,69.4,0.8984,0.0689142857142857,-0.107085714285714,27.168625,13.459625,-7.121625,264.299,-0.972175,-0.027075,-0.3208,-40.0714285714286,-35.3371428571429,32.7728571428571,366.44,-1.0449,0.147925,-0.075725,-43.9575,-16.53225,21.56,0.0586666666666667,-1.03786666666667,-0.251866666666667,0.187733333333333,-82.56,-7.9725,-1.69,663.3215,1,1,0,0.5
24-May-2018 13:26:22,69.4,0.8984,0.0689142857142857,-0.107085714285714,27.168625,13.459625,-7.121625,264.299,-0.972175,-0.027075,-0.3208,-40.0714285714286,-35.3371428571429,32.7728571428571,366.44,-1.0449,0.147925,-0.075725,-43.9575,-16.53225,21.56,0.0586666666666667,-1.03786666666667,-0.251866666666667,0.187733333333333,-82.56,-7.9725,-1.69,663.3215,1,1,0,0.5
24-May-2018 13:26:23,77,0.942083333333333,0.0146166666666667,-0.0629333333333333,7.6635,-7.53633333333333,5.12483333333333,264.299,-0.995125,-0.0522,-0.323775,-10.28,5.35,11.3348888888889,361.884,-0.990425,0.1133,0.14885,9.312,18.67,-4.344,0.057,-0.935785714285714,-0.0544,0.214314285714286,-7.98783333333333,14.7356666666667,19.0346666666667,854.605,1,1,0,0
24-May-2018 13:26:23,77,0.942083333333333,0.0146166666666667,-0.0629333333333333,7.6635,-7.53633333333333,5.12483333333333,264.299,-0.995125,-0.0522,-0.323775,-10.28,5.35,11.3348888888889,361.884,-0.990425,0.1133,0.14885,9.312,18.67,-4.344,0.057,-0.935785714285714,-0.0544,0.214314285714286,-7.98783333333333,14.7356666666667,19.0346666666667,854.605,1,1,0,0
24-May-2018 13:26:23,77,0.942083333333333,0.0146166666666667,-0.0629333333333333,7.6635,-7.53633333333333,5.12483333333333,264.299,-0.995125,-0.0522,-0.323775,-10.28,5.35,11.3348888888889,361.884,-0.990425,0.1133,0.14885,9.312,18.67,-4.344,0.057,-0.935785714285714,-0.0544,0.214314285714286,-7.98783333333333,14.7356666666667,19.0346666666667,854.605,1,1,0,0
24-May-2018 13:26:23,77,0.942083333333333,0.0146166666666667,-0.0629333333333333,7.6635,-7.53633333333333,5.12483333333333,264.299,-0.995125,-0.0522,-0.323775,-10.28,5.35,11.3348888888889,361.884,-0.990425,0.1133,0.14885,9.312,18.67,-4.344,0.057,-0.935785714285714,-0.0544,0.214314285714286,-7.98783333333333,14.7356666666667,19.0346666666667,854.605,1,1,0,0
24-May-2018 13:26:24,-24.4444444444444,0.908411111111111,0.00226666666666666,-0.3087,4.063125,-19.6825,5.213125,264.299,-0.98748,0.05902,-0.33082,-5.46366666666667,33.8088888888889,22.3218888888889,361.884,-1.11142,0.09714,0.06366,-18.4082,-18.51,11.0806,0.08225,-0.8881,0.328175,0.108725,3.45533333333333,13.9836666666667,20.1118333333333,794.3024,1,1,1,1
24-May-2018 13:26:24,-24.4444444444444,0.908411111111111,0.00226666666666666,-0.3087,4.063125,-19.6825,5.213125,264.299,-0.98748,0.05902,-0.33082,-5.46366666666667,33.8088888888889,22.3218888888889,361.884,-1.11142,0.09714,0.06366,-18.4082,-18.51,11.0806,0.08225,-0.8881,0.328175,0.108725,3.45533333333333,13.9836666666667,20.1118333333333,794.3024,1,1,1,1
24-May-2018 13:26:24,-24.4444444444444,0.908411111111111,0.00226666666666666,-0.3087,4.063125,-19.6825,5.213125,0,-0.98748,0.05902,-0.33082,-5.46366666666667,33.8088888888889,22.3218888888889,361.884,-1.11142,0.09714,0.06366,-18.4082,-18.51,11.0806,0.08225,-0.8881,0.328175,0.108725,3.45533333333333,13.9836666666667,20.1118333333333,794.3024,1,1,1,1
24-May-2018 13:26:24,-24.4444444444444,0.908411111111111,0.00226666666666666,-0.3087,4.063125,-19.6825,5.213125,0,-0.98748,0.05902,-0.33082,-5.46366666666667,33.8088888888889,22.3218888888889,361.884,-1.11142,0.09714,0.06366,-18.4082,-18.51,11.0806,0.08225,-0.8881,0.328175,0.108725,3.45533333333333,13.9836666666667,20.1118333333333,794.3024,1,1,1,1
24-May-2018 13:26:25,24.2,0.8914,0.00105,-0.322,23.39,21.3764,-14.62,262.368285714286,-0.9934,0.06735,-0.335075,-13.71,-13.0935,-6.90675,361.884,-1.00916,0.20244,0.08016,-11.4782,0.721,-8.574,0.0313333333333333,-0.925285714285714,0.192471428571429,0.0833428571428571,-32.050375,-1.196625,-23.872,796.234,1,1,1,1
24-May-2018 13:26:25,24.2,0.8914,0.00105,-0.322,23.39,21.3764,-14.62,262.368285714286,-0.9934,0.06735,-0.335075,-13.71,-13.0935,-6.90675,361.884,-1.00916,0.20244,0.08016,-11.4782,0.721,-8.574,0.0313333333333333,-0.925285714285714,0.192471428571429,0.0833428571428571,-32.050375,-1.196625,-23.872,796.234,1,1,1,1
24-May-2018 13:26:25,24.2,0.8914,0.00105,-0.322,23.39,21.3764,-14.62,262.368285714286,-0.9934,0.06735,-0.335075,-13.71,-13.0935,-6.90675,361.884,-1.00916,0.20244,0.08016,-11.4782,0.721,-8.574,0.0313333333333333,-0.925285714285714,0.192471428571429,0.0833428571428571,-32.050375,-1.196625,-23.872,796.234,1,1,1,1
24-May-2018 13:26:25,24.2,0.8914,0.00105,-0.322,23.39,21.3764,-14.62,262.368285714286,-0.9934,0.06735,-0.335075,-13.71,-13.0935,-6.90675,361.884,-1.00916,0.20244,0.08016,-11.4782,0.721,-8.574,0.0313333333333333,-0.925285714285714,0.192471428571429,0.0833428571428571,-32.050375,-1.196625,-23.872,796.234,1,1,1,1
24-May-2018 13:26:26,66.1,0.956025,0.156075,0.059975,8.17,-1.631,-4.48,476.3274,-0.9317,0.294366666666667,-0.317333333333333,-44.7375,30.675,20.137375,381.543,-1.0004,0.0884,0.2218,-23.0643333333333,6.01033333333333,21.49,0.1,-0.87135,-0.28505,0.1237,-44.6743333333333,9.99,8.51633333333333,627.4214,1,1,1,1
24-May-2018 13:26:26,66.1,0.956025,0.156075,0.059975,8.17,-1.631,-4.48,476.3274,-0.9317,0.294366666666667,-0.317333333333333,-44.7375,30.675,20.137375,381.543,-1.0004,0.0884,0.2218,-23.0643333333333,6.01033333333333,21.49,0.1,-0.87135,-0.28505,0.1237,-44.6743333333333,9.99,8.51633333333333,627.4214,1,1,1,1
24-May-2018 13:26:26,66.1,0.956025,0.156075,0.059975,8.17,-1.631,-4.48,476.3274,-0.9317,0.294366666666667,-0.317333333333333,-44.7375,30.675,20.137375,381.543,-1.0004,0.0884,0.2218,-23.0643333333333,6.01033333333333,21.49,0.1,-0.87135,-0.28505,0.1237,-44.6743333333333,9.99,8.51633333333333,627.4214,1,1,1,1
24-May-2018 13:26:26,66.1,0.956025,0.156075,0.059975,8.17,-1.631,-4.48,476.3274,-0.9317,0.294366666666667,-0.317333333333333,-44.7375,30.675,20.137375,381.543,-1.0004,0.0884,0.2218,-23.0643333333333,6.01033333333333,21.49,0.1,-0.87135,-0.28505,0.1237,-44.6743333333333,9.99,8.51633333333333,627.4214,1,1,1,1
24-May-2018 13:26:27,51.6,0.9478,0.0327,-0.04345,-19.71,-3.26485714285714,5.84457142857143,552.5288,-0.839325,0.414975,-0.303175,-65.5,-22.0725,22.2275,395.06675,-0.99836,0.15536,0.10224,5.185,13.398,-3.3925,0.124,-0.911385714285714,-0.181614285714286,0.147757142857143,10.1708,13.439,7.317,510.377,0,1,1,1
24-May-2018 13:26:27,51.6,0.9478,0.0327,-0.04345,-19.71,-3.26485714285714,5.84457142857143,552.5288,-0.839325,0.414975,-0.303175,-65.5,-22.0725,22.2275,395.06675,-0.99836,0.15536,0.10224,5.185,13.398,-3.3925,0.124,-0.911385714285714,-0.181614285714286,0.147757142857143,10.1708,13.439,7.317,510.377,0,1,1,1
24-May-2018 13:26:27,51.6,0.9478,0.0327,-0.04345,-19.71,-3.26485714285714,5.84457142857143,552.5288,-0.839325,0.414975,-0.303175,-65.5,-22.0725,22.2275,395.06675,-0.99836,0.15536,0.10224,5.185,13.398,-3.3925,0.124,-0.911385714285714,-0.181614285714286,0.147757142857143,10.1708,13.439,7.317,510.377,0,1,1,1
24-May-2018 13:26:27,51.6,0.9478,0.0327,-0.04345,-19.71,-3.26485714285714,5.84457142857143,552.5288,-0.839325,0.414975,-0.303175,-65.5,-22.0725,22.2275,395.06675,-0.99836,0.15536,0.10224,5.185,13.398,-3.3925,0.124,-0.911385714285714,-0.181614285714286,0.147757142857143,10.1708,13.439,7.317,510.377,0,1,1,1
24-May-2018 13:26:28,51.6363636363636,0.944366666666667,0.15755,-0.0979,-26.2483333333333,0.692166666666666,0.935,529.12775,-0.918983333333333,0.535666666666667,-0.320283333333333,-29.9375,38.365,12.839875,435.638,-1.0164875,0.090725,-0.0557125,36.5736,-25.436,2.0916,0.106,-0.9371,-0.19015,0.128866666666667,39.9391428571429,1.76828571428571,-2.70057142857143,666.748,0,0,1,1
24-May-2018 13:26:28,51.6363636363636,0.944366666666667,0.15755,-0.0979,-26.2483333333333,0.692166666666666,0.935,529.12775,-0.918983333333333,0.535666666666667,-0.320283333333333,-29.9375,38.365,12.839875,435.638,-1.0164875,0.090725,-0.0557125,36.5736,-25.436,2.0916,0.106,-0.9371,-0.19015,0.128866666666667,39.9391428571429,1.76828571428571,-2.70057142857143,666.748,0,0,1,1
24-May-2018 13:26:28,51.6363636363636,0.944366666666667,0.15755,-0.0979,-26.2483333333333,0.692166666666666,0.935,529.12775,-0.918983333333333,0.535666666666667,-0.320283333333333,-29.9375,38.365,12.839875,435.638,-1.0164875,0.090725,-0.0557125,36.5736,-25.436,2.0916,0.106,-0.9371,-0.19015,0.128866666666667,39.9391428571429,1.76828571428571,-2.70057142857143,666.748,0,0,1,1
24-May-2018 13:26:28,51.6363636363636,0.944366666666667,0.15755,-0.0979,-26.2483333333333,0.692166666666666,0.935,529.12775,-0.918983333333333,0.535666666666667,-0.320283333333333,-29.9375,38.365,12.839875,435.638,-1.0164875,0.090725,-0.0557125,36.5736,-25.436,2.0916,0.106,-0.9371,-0.19015,0.128866666666667,39.9391428571429,1.76828571428571,-2.70057142857143,666.748,0,0,1,1
24-May-2018 13:26:29,20.5555555555556,0.962633333333333,0.0570333333333333,-0.1066,-112.333333333333,-8.86666666666667,9.59333333333333,479.081,-0.940975,0.374175,-0.20935,-92.8475,2.35225,-50.69375,462.9945,-1.0485,0.123,0.0089,111.76,8.718,15.06,0.103,-0.934716666666667,-0.222316666666667,0.0850333333333333,80.0368,7.1708,-22.6344,855.332,1,1,1,1
24-May-2018 13:26:29,20.5555555555556,0.962633333333333,0.0570333333333333,-0.1066,-112.333333333333,-8.86666666666667,9.59333333333333,479.081,-0.940975,0.374175,-0.20935,-92.8475,2.35225,-50.69375,462.9945,-1.0485,0.123,0.0089,111.76,8.718,15.06,0.103,-0.934716666666667,-0.222316666666667,0.0850333333333333,80.0368,7.1708,-22.6344,855.332,1,1,1,1
24-May-2018 13:26:29,20.5555555555556,0.962633333333333,0.0570333333333333,-0.1066,-112.333333333333,-8.86666666666667,9.59333333333333,479.081,-0.940975,0.374175,-0.20935,-92.8475,2.35225,-50.69375,462.9945,-1.0485,0.123,0.0089,111.76,8.718,15.06,0.103,-0.934716666666667,-0.222316666666667,0.0850333333333333,80.0368,7.1708,-22.6344,855.332,1,1,1,1
24-May-2018 13:26:29,20.5555555555556,0.962633333333333,0.0570333333333333,-0.1066,-112.333333333333,-8.86666666666667,9.59333333333333,479.081,-0.940975,0.374175,-0.20935,-92.8475,2.35225,-50.69375,462.9945,-1.0485,0.123,0.0089,111.76,8.718,15.06,0.103,-0.934716666666667,-0.222316666666667,0.0850333333333333,80.0368,7.1708,-22.6344,855.332,1,1,1,1
24-May-2018 13:26:30,76.8,0.962633333333333,0.0570333333333333,-0.1066,-112,-3.53,6.22,479.081,-0.9132,-0.0288,0.0587,11.95,-16,-19.2,490.351,-1.0173,0.0953,-0.1245,111.76,8.718,15.06,0.103,-0.8879,-0.2153,-0.0053,94.634,35,-30.305,788.107,1,1,1,1
24-May-2018 13:26:30,76.8,0.962633333333333,0.0570333333333333,-0.1066,-112,-3.53,6.22,479.081,-0.9132,-0.0288,0.0587,11.95,-16,-19.2,490.351,-1.0173,0.0953,-0.1245,111.76,8.718,15.06,0.103,-0.8879,-0.2153,-0.0053,94.634,35,-30.305,788.107,1,1,1,1
24-May-2018 13:26:30,76.8,0.962633333333333,0.0570333333333333,-0.1066,-112,-3.53,6.22,479.081,-0.9132,-0.0288,0.0587,11.95,-16,-19.2,490.351,-1.0173,0.0953,-0.1245,111.76,8.718,15.06,0.103,-0.8879,-0.2153,-0.0053,94.634,35,-30.305,788.107,1,1,1,1
24-May-2018 13:26:30,76.8,0,0,0,-112,-3.53,6.22,0,-0.9132,-0.0288,0.0587,11.95,-16,-19.2,490.351,-1.0173,0.0953,-0.1245,0,0,0,0.103,-0.8879,-0.2153,-0.0053,94.634,35,-30.305,788.107,1,1,1,1
24-May-2018 13:26:31,78.8571428571429,0.948875,0.12875,-0.06055,-103.125,-21,-0.4245,314.95,-1.0541,0.1142,0.0147666666666667,40.8214285714286,-20.8142857142857,17.5811428571429,490.351,-1.0058875,0.0904125,-0.0319125,94.4366666666667,-27.6333333333333,-9.51666666666667,0.103,-0.95835,-0.2709,0.0136,63.195,14.927,-3.1952,432.58,1,1,1,1
24-May-2018 13:26:31,78.8571428571429,0.948875,0.12875,-0.06055,-103.125,-21,-0.4245,314.95,-1.0541,0.1142,0.0147666666666667,40.8214285714286,-20.8142857142857,17.5811428571429,490.351,-1.0058875,0.0904125,-0.0319125,94.4366666666667,-27.6333333333333,-9.51666666666667,0.103,-0.95835,-0.2709,0.0136,63.195,14.927,-3.1952,432.58,1,1,1,1
24-May-2018 13:26:31,78.8571428571429,0.948875,0.12875,-0.06055,-103.125,-21,-0.4245,314.95,-1.0541,0.1142,0.0147666666666667,40.8214285714286,-20.8142857142857,17.5811428571429,490.351,-1.0058875,0.0904125,-0.0319125,94.4366666666667,-27.6333333333333,-9.51666666666667,0.103,-0.95835,-0.2709,0.0136,63.195,14.927,-3.1952,432.58,1,1,1,1
24-May-2018 13:26:31,78.8571428571429,0.948875,0.12875,-0.06055,-103.125,-21,-0.4245,314.95,-1.0541,0.1142,0.0147666666666667,40.8214285714286,-20.8142857142857,17.5811428571429,490.351,-1.0058875,0.0904125,-0.0319125,94.4366666666667,-27.6333333333333,-9.51666666666667,0.103,-0.95835,-0.2709,0.0136,63.195,14.927,-3.1952,432.58,1,1,1,1
24-May-2018 13:26:32,11,0.950542857142857,0.161314285714286,-0.0461857142857143,-30.97,-9.15166666666667,14.7118333333333,348.45225,-1.011075,0.270575,-0.037875,41.14,-31.86,-21.6533333333333,567.691,-1.03243333333333,0.0170666666666667,0.0856166666666667,24.7371428571429,16.7252857142857,5.25485714285714,0.103,-0.94664,-0.19228,0.17406,1.565,10.3965,10.7926666666667,497.449,1,1,1,1
24-May-2018 13:26:32,11,0.950542857142857,0.161314285714286,-0.0461857142857143,-30.97,-9.15166666666667,14.7118333333333,348.45225,-1.011075,0.270575,-0.037875,41.14,-31.86,-21.6533333333333,567.691,-1.03243333333333,0.0170666666666667,0.0856166666666667,24.7371428571429,16.7252857142857,5.25485714285714,0.103,-0.94664,-0.19228,0.17406,1.565,10.3965,10.7926666666667,497.449,1,1,1,1
24-May-2018 13:26:32,11,0.950542857142857,0.161314285714286,-0.0461857142857143,-30.97,-9.15166666666667,14.7118333333333,348.45225,-1.011075,0.270575,-0.037875,41.14,-31.86,-21.6533333333333,567.691,-1.03243333333333,0.0170666666666667,0.0856166666666667,24.7371428571429,16.7252857142857,5.25485714285714,0.103,-0.94664,-0.19228,0.17406,1.565,10.3965,10.7926666666667,497.449,1,1,1,1
24-May-2018 13:26:32,11,0.950542857142857,0.161314285714286,-0.0461857142857143,-30.97,-9.15166666666667,14.7118333333333,348.45225,-1.011075,0.270575,-0.037875,41.14,-31.86,-21.6533333333333,567.691,-1.03243333333333,0.0170666666666667,0.0856166666666667,24.7371428571429,16.7252857142857,5.25485714285714,0.103,-0.94664,-0.19228,0.17406,1.565,10.3965,10.7926666666667,497.449,1,1,1,1
24-May-2018 13:26:33,12.1111111111111,0.89364,0.09628,-0.10146,-0.361428571428574,1.94514285714286,-0.244142857142858,322.939,-0.91316,0.12684,0.09108,74.235,-19.06625,-23.700625,567.691,-1.03318,0.1583,0.05606,0.0399999999999977,-8.3344,12.6456,0.103,-0.96958,-0.24438,0.13832,20.86125,-10.85375,-19.847625,492.060333333333,1,1,1,1
24-May-2018 13:26:33,12.1111111111111,0.89364,0.09628,-0.10146,-0.361428571428574,1.94514285714286,-0.244142857142858,322.939,-0.91316,0.12684,0.09108,74.235,-19.06625,-23.700625,567.691,-1.03318,0.1583,0.05606,0.0399999999999977,-8.3344,12.6456,0.103,-0.96958,-0.24438,0.13832,20.86125,-10.85375,-19.847625,492.060333333333,1,1,1,1
24-May-2018 13:26:33,12.1111111111111,0.89364,0.09628,-0.10146,-0.361428571428574,1.94514285714286,-0.244142857142858,322.939,-0.91316,0.12684,0.09108,74.235,-19.06625,-23.700625,567.691,-1.03318,0.1583,0.05606,0.0399999999999977,-8.3344,12.6456,0.103,-0.96958,-0.24438,0.13832,20.86125,-10.85375,-19.847625,492.060333333333,1,1,1,1
24-May-2018 13:26:33,12.1111111111111,0.89364,0.09628,-0.10146,-0.361428571428574,1.94514285714286,-0.244142857142858,322.939,-0.91316,0.12684,0.09108,74.235,-19.06625,-23.700625,567.691,-1.03318,0.1583,0.05606,0.0399999999999977,-8.3344,12.6456,0.103,-0.96958,-0.24438,0.13832,20.86125,-10.85375,-19.847625,492.060333333333,1,1,1,1
24-May-2018 13:26:34,-20.7777777777778,0.948514285714286,0.0985285714285714,-0.132571428571429,-54.2666666666667,-5.37533333333333,4.99411111111111,322.939,-0.951875,0.311875,0.133875,64.197,-7.326,-6.6485,616.466333333333,-1.0183,0.10422,-0.00783999999999999,32.3414285714286,-2.52371428571429,0.580714285714286,0.103,-0.9573,-0.263871428571429,0.0661285714285714,73.8588571428571,-9.913,-5.78385714285714,426.319,1,1,1,1
24-May-2018 13:26:34,-20.7777777777778,0.948514285714286,0.0985285714285714,-0.132571428571429,-54.2666666666667,-5.37533333333333,4.99411111111111,322.939,-0.951875,0.311875,0.133875,64.197,-7.326,-6.6485,616.466333333333,-1.0183,0.10422,-0.00783999999999999,32.3414285714286,-2.52371428571429,0.580714285714286,0.103,-0.9573,-0.263871428571429,0.0661285714285714,73.8588571428571,-9.913,-5.78385714285714,426.319,1,1,1,1
24-May-2018 13:26:34,-20.7777777777778,0.948514285714286,0.0985285714285714,-0.132571428571429,-54.2666666666667,-5.37533333333333,4.99411111111111,322.939,-0.951875,0.311875,0.133875,64.197,-7.326,-6.6485,616.466333333333,-1.0183,0.10422,-0.00783999999999999,32.3414285714286,-2.52371428571429,0.580714285714286,0.103,-0.9573,-0.263871428571429,0.0661285714285714,73.8588571428571,-9.913,-5.78385714285714,426.319,1,1,1,1
24-May-2018 13:26:34,-20.7777777777778,0.948514285714286,0.0985285714285714,-0.132571428571429,-54.2666666666667,-5.37533333333333,4.99411111111111,0,-0.951875,0.311875,0.133875,64.197,-7.326,-6.6485,616.466333333333,-1.0183,0.10422,-0.00783999999999999,32.3414285714286,-2.52371428571429,0.580714285714286,0.103,-0.9573,-0.263871428571429,0.0661285714285714,73.8588571428571,-9.913,-5.78385714285714,426.319,1,1,1,1
24-May-2018 13:26:35,57.3,0.95125,0.1387125,-0.084125,-51.07,-1.85357142857143,12.0437142857143,303.514,-1.04634,0.15134,0.12508,36.25375,-5.88975,-32.05,640.854,-1.07048,0.12688,0.16692,70.86,-9.79566666666667,7.4945,0.103,-0.9808,-0.1998,0.195625,41.0488,29.5122,10.2316,504.1385,0,1,1,1
24-May-2018 13:26:35,57.3,0.95125,0.1387125,-0.084125,-51.07,-1.85357142857143,12.0437142857143,303.514,-1.04634,0.15134,0.12508,36.25375,-5.88975,-32.05,640.854,-1.07048,0.12688,0.16692,70.86,-9.79566666666667,7.4945,0.103,-0.9808,-0.1998,0.195625,41.0488,29.5122,10.2316,504.1385,0,1,1,1
24-May-2018 13:26:35,57.3,0.95125,0.1387125,-0.084125,-51.07,-1.85357142857143,12.0437142857143,303.514,-1.04634,0.15134,0.12508,36.25375,-5.88975,-32.05,640.854,-1.07048,0.12688,0.16692,70.86,-9.79566666666667,7.4945,0.103,-0.9808,-0.1998,0.195625,41.0488,29.5122,10.2316,504.1385,0,1,1,1
24-May-2018 13:26:35,57.3,0.95125,0.1387125,-0.084125,-51.07,-1.85357142857143,12.0437142857143,303.514,-1.04634,0.15134,0.12508,36.25375,-5.88975,-32.05,640.854,-1.07048,0.12688,0.16692,70.86,-9.79566666666667,7.4945,0.103,-0.9808,-0.1998,0.195625,41.0488,29.5122,10.2316,504.1385,0,1,1,1
24-May-2018 13:26:36,141.875,0.92775,0.1138,-0.0305,-53.26,-2.5564,1.8308,407.859714285714,-0.939,-0.2563,0.0816333333333333,0.121250000000001,14.152,-84.5,640.854,-1.00554,0.05248,0.15722,20.6575,9.03,-4.90775,0.088,0.00597500000000001,-0.677125,0.41655,18.9023333333333,-0.765333333333332,-127.43,434.483333333333,1,1,1,1
24-May-2018 13:26:36,141.875,0.92775,0.1138,-0.0305,-53.26,-2.5564,1.8308,407.859714285714,-0.939,-0.2563,0.0816333333333333,0.121250000000001,14.152,-84.5,640.854,-1.00554,0.05248,0.15722,20.6575,9.03,-4.90775,0.088,0.00597500000000001,-0.677125,0.41655,18.9023333333333,-0.765333333333332,-127.43,434.483333333333,1,1,1,1
24-May-2018 13:26:36,141.875,0.92775,0.1138,-0.0305,-53.26,-2.5564,1.8308,407.859714285714,-0.939,-0.2563,0.0816333333333333,0.121250000000001,14.152,-84.5,640.854,-1.00554,0.05248,0.15722,20.6575,9.03,-4.90775,0.088,0.00597500000000001,-0.677125,0.41655,18.9023333333333,-0.765333333333332,-127.43,434.483333333333,1,1,1,1
24-May-2018 13:26:36,141.875,0.92775,0.1138,-0.0305,-53.26,-2.5564,1.8308,407.859714285714,-0.939,-0.2563,0.0816333333333333,0.121250000000001,14.152,-84.5,640.854,-1.00554,0.05248,0.15722,20.6575,9.03,-4.90775,0.088,0.00597500000000001,-0.677125,0.41655,18.9023333333333,-0.765333333333332,-127.43,434.483333333333,1,1,1,1
24-May-2018 13:26:37,110,0.959466666666667,0.0325833333333333,-0.1167,-14.416,4.6252,2.0478,516.675666666667,-0.92136,-0.24346,0.05538,32.88625,24.20375,-5.327625,671.168666666667,-1.03468,0.19362,-0.0714,3.30666666666667,-41.29,11.6866666666667,0.094,0.526783333333333,-0.0571166666666667,0.804316666666667,-39.145,13.7045,2.36275,133.2035,1,1,1,1
24-May-2018 13:26:37,110,0.959466666666667,0.0325833333333333,-0.1167,-14.416,4.6252,2.0478,516.675666666667,-0.92136,-0.24346,0.05538,32.88625,24.20375,-5.327625,671.168666666667,-1.03468,0.19362,-0.0714,3.30666666666667,-41.29,11.6866666666667,0.094,0.526783333333333,-0.0571166666666667,0.804316666666667,-39.145,13.7045,2.36275,133.2035,1,1,1,1
24-May-2018 13:26:37,110,0.959466666666667,0.0325833333333333,-0.1167,-14.416,4.6252,2.0478,516.675666666667,-0.92136,-0.24346,0.05538,32.88625,24.20375,-5.327625,671.168666666667,-1.03468,0.19362,-0.0714,3.30666666666667,-41.29,11.6866666666667,0.094,0.526783333333333,-0.0571166666666667,0.804316666666667,-39.145,13.7045,2.36275,133.2035,1,1,1,1
24-May-2018 13:26:37,110,0.959466666666667,0.0325833333333333,-0.1167,-14.416,4.6252,2.0478,516.675666666667,-0.92136,-0.24346,0.05538,32.88625,24.20375,-5.327625,671.168666666667,-1.03468,0.19362,-0.0714,3.30666666666667,-41.29,11.6866666666667,0.094,0.526783333333333,-0.0571166666666667,0.804316666666667,-39.145,13.7045,2.36275,133.2035,1,1,1,1
24-May-2018 13:26:38,45.4444444444444,0.9101,0.0893333333333333,0.00496666666666667,-1.974,2.79357142857143,-7.69971428571429,472.3875,-0.988525,-0.154875,-0.026125,0.769,23.405,17.202,686.326,-1.06073333333333,0.112,0.0596666666666667,-4.30333333333333,5.985,2.63416666666667,0.098,-0.848157142857143,-0.327485714285714,0.322,-35.34,96.3296,84.2318,664.728,1,1,1,1
24-May-2018 13:26:38,45.4444444444444,0.9101,0.0893333333333333,0.00496666666666667,-1.974,2.79357142857143,-7.69971428571429,472.3875,-0.988525,-0.154875,-0.026125,0.769,23.405,17.202,686.326,-1.06073333333333,0.112,0.0596666666666667,-4.30333333333333,5.985,2.63416666666667,0.098,-0.848157142857143,-0.327485714285714,0.322,-35.34,96.3296,84.2318,664.728,1,1,1,1
24-May-2018 13:26:38,45.4444444444444,0.9101,0.0893333333333333,0.00496666666666667,-1.974,2.79357142857143,-7.69971428571429,472.3875,-0.988525,-0.154875,-0.026125,0.769,23.405,17.202,686.326,-1.06073333333333,0.112,0.0596666666666667,-4.30333333333333,5.985,2.63416666666667,0.098,-0.848157142857143,-0.327485714285714,0.322,-35.34,96.3296,84.2318,664.728,1,1,1,1
24-May-2018 13:26:38,45.4444444444444,0.9101,0.0893333333333333,0.00496666666666667,-1.974,2.79357142857143,-7.69971428571429,472.3875,-0.988525,-0.154875,-0.026125,0.769,23.405,17.202,686.326,-1.06073333333333,0.112,0.0596666666666667,-4.30333333333333,5.985,2.63416666666667,0.098,-0.848157142857143,-0.327485714285714,0.322,-35.34,96.3296,84.2318,664.728,1,1,1,1
24-May-2018 13:26:39,97.2857142857143,0.972785714285714,0.117042857142857,-0.0842142857142857,-24.0185714285714,0.675,0.436857142857143,523.078666666667,-1.0104,-0.0695,-0.02244,0.856,19.6075,23.21125,686.326,-0.9867,0.1404,0.101966666666667,0.440124999999999,-2.7875,1.052875,0.088,-0.962933333333333,-0.276966666666667,0.0668,60.0203333333333,-6.46366666666667,-19.2883333333333,690.969333333333,1,0,1,1
24-May-2018 13:26:39,97.2857142857143,0.972785714285714,0.117042857142857,-0.0842142857142857,-24.0185714285714,0.675,0.436857142857143,523.078666666667,-1.0104,-0.0695,-0.02244,0.856,19.6075,23.21125,686.326,-0.9867,0.1404,0.101966666666667,0.440124999999999,-2.7875,1.052875,0.088,-0.962933333333333,-0.276966666666667,0.0668,60.0203333333333,-6.46366666666667,-19.2883333333333,690.969333333333,1,0,1,1
24-May-2018 13:26:39,97.2857142857143,0.972785714285714,0.117042857142857,-0.0842142857142857,-24.0185714285714,0.675,0.436857142857143,523.078666666667,-1.0104,-0.0695,-0.02244,0.856,19.6075,23.21125,686.326,-0.9867,0.1404,0.101966666666667,0.440124999999999,-2.7875,1.052875,0.088,-0.962933333333333,-0.276966666666667,0.0668,60.0203333333333,-6.46366666666667,-19.2883333333333,690.969333333333,1,0,1,1
24-May-2018 13:26:39,97.2857142857143,0.972785714285714,0.117042857142857,-0.0842142857142857,-24.0185714285714,0.675,0.436857142857143,523.078666666667,-1.0104,-0.0695,-0.02244,0.856,19.6075,23.21125,686.326,-0.9867,0.1404,0.101966666666667,0.440124999999999,-2.7875,1.052875,0.088,-0.962933333333333,-0.276966666666667,0.0668,60.0203333333333,-6.46366666666667,-19.2883333333333,690.969333333333,1,0,1,1
24-May-2018 13:26:40,39.6666666666667,0.95186,0.12402,-0.08416,-31.82,-1.6328,2.7256,511.211,-0.9771,-0.026675,-0.0409,4.68855555555556,19.7711111111111,10.2418888888889,608.827333333333,-1.00745,0.0947,-0.0952,60.6633333333333,6.23966666666667,6.32133333333333,0.0293333333333333,-0.93,-0.193157142857143,0.128714285714286,18.308,2.1035,-8.42975,849.641,1,1,1,1
24-May-2018 13:26:40,39.6666666666667,0.95186,0.12402,-0.08416,-31.82,-1.6328,2.7256,511.211,-0.9771,-0.026675,-0.0409,4.68855555555556,19.7711111111111,10.2418888888889,608.827333333333,-1.00745,0.0947,-0.0952,60.6633333333333,6.23966666666667,6.32133333333333,0.0293333333333333,-0.93,-0.193157142857143,0.128714285714286,18.308,2.1035,-8.42975,849.641,1,1,1,1
24-May-2018 13:26:40,39.6666666666667,0.95186,0.12402,-0.08416,-31.82,-1.6328,2.7256,511.211,-0.9771,-0.026675,-0.0409,4.68855555555556,19.7711111111111,10.2418888888889,608.827333333333,-1.00745,0.0947,-0.0952,60.6633333333333,6.23966666666667,6.32133333333333,0.0293333333333333,-0.93,-0.193157142857143,0.128714285714286,18.308,2.1035,-8.42975,849.641,1,1,1,1
24-May-2018 13:26:40,39.6666666666667,0.95186,0.12402,-0.08416,-31.82,-1.6328,2.7256,511.211,-0.9771,-0.026675,-0.0409,4.68855555555556,19.7711111111111,10.2418888888889,608.827333333333,-1.00745,0.0947,-0.0952,60.6633333333333,6.23966666666667,6.32133333333333,0.0293333333333333,-0.93,-0.193157142857143,0.128714285714286,18.308,2.1035,-8.42975,849.641,1,1,1,1
24-May-2018 13:26:41,40.6666666666667,0.951414285714286,0.111714285714286,-0.0969285714285714,-79.2714285714286,-6.38571428571429,3.11085714285714,394.693333333333,-0.9775,0.02938,-0.12034,14.76,20.6122222222222,11.5692222222222,570.078,-0.988357142857143,0.0241428571428571,0.0648857142857143,57.805,-24.6766666666667,6.96,0.0293333333333333,-0.956025,-0.242025,0.03405,50.71675,8.658625,-8.20875,666.303,1,1,1,1
24-May-2018 13:26:41,40.6666666666667,0.951414285714286,0.111714285714286,-0.0969285714285714,-79.2714285714286,-6.38571428571429,3.11085714285714,394.693333333333,-0.9775,0.02938,-0.12034,14.76,20.6122222222222,11.5692222222222,570.078,-0.988357142857143,0.0241428571428571,0.0648857142857143,57.805,-24.6766666666667,6.96,0.0293333333333333,-0.956025,-0.242025,0.03405,50.71675,8.658625,-8.20875,666.303,1,1,1,1
24-May-2018 13:26:41,40.6666666666667,0.951414285714286,0.111714285714286,-0.0969285714285714,-79.2714285714286,-6.38571428571429,3.11085714285714,394.693333333333,-0.9775,0.02938,-0.12034,14.76,20.6122222222222,11.5692222222222,570.078,-0.988357142857143,0.0241428571428571,0.0648857142857143,57.805,-24.6766666666667,6.96,0.0293333333333333,-0.956025,-0.242025,0.03405,50.71675,8.658625,-8.20875,666.303,1,1,1,1
24-May-2018 13:26:41,40.6666666666667,0.951414285714286,0.111714285714286,-0.0969285714285714,-79.2714285714286,-6.38571428571429,3.11085714285714,394.693333333333,-0.9775,0.02938,-0.12034,14.76,20.6122222222222,11.5692222222222,570.078,-0.988357142857143,0.0241428571428571,0.0648857142857143,57.805,-24.6766666666667,6.96,0.0293333333333333,-0.956025,-0.242025,0.03405,50.71675,8.658625,-8.20875,666.303,1,1,1,1
24-May-2018 13:26:42,68.875,0.94945,0.135483333333333,-0.0653,-26.3664285714286,-0.581714285714286,7.19414285714286,350.778333333333,-0.94655,0.024225,-0.1546,5.47955555555555,25.7411111111111,1.89722222222222,570.078,-1.02665,0.1194,0.01025,39.04,15.848,3.22266666666667,0.0293333333333333,-0.932066666666667,-0.18525,0.112433333333333,26.150875,6.181625,-4.298625,497.113,1,1,1,1
24-May-2018 13:26:42,68.875,0.94945,0.135483333333333,-0.0653,-26.3664285714286,-0.581714285714286,7.19414285714286,350.778333333333,-0.94655,0.024225,-0.1546,5.47955555555555,25.7411111111111,1.89722222222222,570.078,-1.02665,0.1194,0.01025,39.04,15.848,3.22266666666667,0.0293333333333333,-0.932066666666667,-0.18525,0.112433333333333,26.150875,6.181625,-4.298625,497.113,1,1,1,1
24-May-2018 13:26:42,68.875,0.94945,0.135483333333333,-0.0653,-26.3664285714286,-0.581714285714286,7.19414285714286,350.778333333333,-0.94655,0.024225,-0.1546,5.47955555555555,25.7411111111111,1.89722222222222,570.078,-1.02665,0.1194,0.01025,39.04,15.848,3.22266666666667,0.0293333333333333,-0.932066666666667,-0.18525,0.112433333333333,26.150875,6.181625,-4.298625,497.113,1,1,1,1
24-May-2018 13:26:42,68.875,0.94945,0.135483333333333,-0.0653,-26.3664285714286,-0.581714285714286,7.19414285714286,350.778333333333,-0.94655,0.024225,-0.1546,5.47955555555555,25.7411111111111,1.89722222222222,570.078,-1.02665,0.1194,0.01025,39.04,15.848,3.22266666666667,0.0293333333333333,-0.932066666666667,-0.18525,0.112433333333333,26.150875,6.181625,-4.298625,497.113,1,1,1,1
24-May-2018 13:26:43,77.8888888888889,0.964225,0.126525,-0.085075,-17.5688571428571,3.78171428571429,-5.36314285714286,336.421,-0.817175,0.031775,-0.11525,-2.57966666666667,32.1977777777778,13.7363333333333,502.815333333333,-1.044475,0.124175,-0.0509,-23.3,-29.63,-19.3,0.0293333333333333,-0.9493,-0.20255,0.018,-1.09742857142857,-7.46514285714286,1.31528571428571,453.318,1,1,1,1
24-May-2018 13:26:43,77.8888888888889,0.964225,0.126525,-0.085075,-17.5688571428571,3.78171428571429,-5.36314285714286,336.421,-0.817175,0.031775,-0.11525,-2.57966666666667,32.1977777777778,13.7363333333333,502.815333333333,-1.044475,0.124175,-0.0509,-23.3,-29.63,-19.3,0.0293333333333333,-0.9493,-0.20255,0.018,-1.09742857142857,-7.46514285714286,1.31528571428571,453.318,1,1,1,1
24-May-2018 13:26:43,77.8888888888889,0.964225,0.126525,-0.085075,-17.5688571428571,3.78171428571429,-5.36314285714286,336.421,-0.817175,0.031775,-0.11525,-2.57966666666667,32.1977777777778,13.7363333333333,502.815333333333,-1.044475,0.124175,-0.0509,-23.3,-29.63,-19.3,0.0293333333333333,-0.9493,-0.20255,0.018,-1.09742857142857,-7.46514285714286,1.31528571428571,453.318,1,1,1,1
24-May-2018 13:26:43,77.8888888888889,0.964225,0.126525,-0.085075,-17.5688571428571,3.78171428571429,-5.36314285714286,336.421,-0.817175,0.031775,-0.11525,-2.57966666666667,32.1977777777778,13.7363333333333,502.815333333333,-1.044475,0.124175,-0.0509,-23.3,-29.63,-19.3,0.0293333333333333,-0.9493,-0.20255,0.018,-1.09742857142857,-7.46514285714286,1.31528571428571,453.318,1,1,1,1
24-May-2018 13:26:44,38.3,0.9638,0.0990857142857143,-0.0926857142857143,-4.32925,-1.6125,3.690125,336.421,-0.646325,0.04765,-0.08115,3.714875,12.98125,32.465,469.184,-0.97895,0.164083333333333,0.160933333333333,-28.8,27.56,6.159,0.0293333333333333,-0.944925,-0.192375,0.16335,23.42975,-0.47275,-12.25625,410.326333333333,1,0,1,1
24-May-2018 13:26:44,38.3,0.9638,0.0990857142857143,-0.0926857142857143,-4.32925,-1.6125,3.690125,336.421,-0.646325,0.04765,-0.08115,3.714875,12.98125,32.465,469.184,-0.97895,0.164083333333333,0.160933333333333,-28.8,27.56,6.159,0.0293333333333333,-0.944925,-0.192375,0.16335,23.42975,-0.47275,-12.25625,410.326333333333,1,0,1,1
24-May-2018 13:26:44,38.3,0.9638,0.0990857142857143,-0.0926857142857143,-4.32925,-1.6125,3.690125,336.421,-0.646325,0.04765,-0.08115,3.714875,12.98125,32.465,469.184,-0.97895,0.164083333333333,0.160933333333333,-28.8,27.56,6.159,0.0293333333333333,-0.944925,-0.192375,0.16335,23.42975,-0.47275,-12.25625,410.326333333333,1,0,1,1
24-May-2018 13:26:44,38.3,0.9638,0.0990857142857143,-0.0926857142857143,-4.32925,-1.6125,3.690125,0,-0.646325,0.04765,-0.08115,3.714875,12.98125,32.465,469.184,-0.97895,0.164083333333333,0.160933333333333,-28.8,27.56,6.159,0.0293333333333333,-0.944925,-0.192375,0.16335,23.42975,-0.47275,-12.25625,410.326333333333,1,0,1,1
24-May-2018 13:26:45,66.8888888888889,0.95932,0.14544,-0.0603,10.5463333333333,5.52833333333333,0.00150000000000006,346.873,-0.414866666666667,0.0221666666666667,-0.208566666666667,42.05125,-86.59125,22.68625,448.59225,-0.985933333333333,0.087,-0.0411666666666667,-34.6408571428571,7.76842857142857,5.71028571428571,0.0293333333333333,-0.947816666666667,-0.1975,0.0661333333333333,-18.181,-2.42883333333333,9.492,373.473,1,1,1,1
24-May-2018 13:26:45,66.8888888888889,0.95932,0.14544,-0.0603,10.5463333333333,5.52833333333333,0.00150000000000006,346.873,-0.414866666666667,0.0221666666666667,-0.208566666666667,42.05125,-86.59125,22.68625,448.59225,-0.985933333333333,0.087,-0.0411666666666667,-34.6408571428571,7.76842857142857,5.71028571428571,0.0293333333333333,-0.947816666666667,-0.1975,0.0661333333333333,-18.181,-2.42883333333333,9.492,373.473,1,1,1,1
24-May-2018 13:26:45,66.8888888888889,0.95932,0.14544,-0.0603,10.5463333333333,5.52833333333333,0.00150000000000006,346.873,-0.414866666666667,0.0221666666666667,-0.208566666666667,42.05125,-86.59125,22.68625,448.59225,-0.985933333333333,0.087,-0.0411666666666667,-34.6408571428571,7.76842857142857,5.71028571428571,0.0293333333333333,-0.947816666666667,-0.1975,0.0661333333333333,-18.181,-2.42883333333333,9.492,373.473,1,1,1,1
24-May-2018 13:26:45,66.8888888888889,0.95932,0.14544,-0.0603,10.5463333333333,5.52833333333333,0.00150000000000006,346.873,-0.414866666666667,0.0221666666666667,-0.208566666666667,42.05125,-86.59125,22.68625,448.59225,-0.985933333333333,0.087,-0.0411666666666667,-34.6408571428571,7.76842857142857,5.71028571428571,0.0293333333333333,-0.947816666666667,-0.1975,0.0661333333333333,-18.181,-2.42883333333333,9.492,373.473,1,1,1,1
24-May-2018 13:26:46,110.888888888889,0.95132,0.08496,-0.07702,-38.2,-4.9586,5.61,366.90825,-1.08156666666667,0.315166666666667,-0.5656,-173.54875,181.225,47.8175,386.817,-1.01138,0.173,-0.07014,50.4675,7.07,10.13675,0.0293333333333333,-0.9466,-0.179166666666667,0.14445,33.13,11.5041666666667,-1.04683333333333,394.7,1,1,1,1
24-May-2018 13:26:46,110.888888888889,0.95132,0.08496,-0.07702,-38.2,-4.9586,5.61,366.90825,-1.08156666666667,0.315166666666667,-0.5656,-173.54875,181.225,47.8175,386.817,-1.01138,0.173,-0.07014,50.4675,7.07,10.13675,0.0293333333333333,-0.9466,-0.179166666666667,0.14445,33.13,11.5041666666667,-1.04683333333333,394.7,1,1,1,1
24-May-2018 13:26:46,110.888888888889,0.95132,0.08496,-0.07702,-38.2,-4.9586,5.61,366.90825,-1.08156666666667,0.315166666666667,-0.5656,-173.54875,181.225,47.8175,386.817,-1.01138,0.173,-0.07014,50.4675,7.07,10.13675,0.0293333333333333,-0.9466,-0.179166666666667,0.14445,33.13,11.5041666666667,-1.04683333333333,394.7,1,1,1,1
24-May-2018 13:26:46,110.888888888889,0.95132,0.08496,-0.07702,-38.2,-4.9586,5.61,366.90825,-1.08156666666667,0.315166666666667,-0.5656,-173.54875,181.225,47.8175,386.817,-1.01138,0.173,-0.07014,50.4675,7.07,10.13675,0.0293333333333333,-0.9466,-0.179166666666667,0.14445,33.13,11.5041666666667,-1.04683333333333,394.7,1,1,1,1
24-May-2018 13:26:47,53.625,0.915875,0.11215,-0.06175,-38.7841666666667,-1.03166666666667,7.61233333333333,297.1522,-0.171025,0.2688,-1.094025,-34.3118888888889,312.523111111111,73.36,386.817,-1.01456666666667,0.0391333333333333,-0.0610333333333333,40.0916666666667,3.78966666666667,1.5415,0.0293333333333333,-0.95935,-0.201266666666667,0.0685,40.935,14.4916666666667,6.189,491.388,1,1,1,1
24-May-2018 13:26:47,53.625,0.915875,0.11215,-0.06175,-38.7841666666667,-1.03166666666667,7.61233333333333,297.1522,-0.171025,0.2688,-1.094025,-34.3118888888889,312.523111111111,73.36,386.817,-1.01456666666667,0.0391333333333333,-0.0610333333333333,40.0916666666667,3.78966666666667,1.5415,0.0293333333333333,-0.95935,-0.201266666666667,0.0685,40.935,14.4916666666667,6.189,491.388,1,1,1,1
24-May-2018 13:26:47,53.625,0.915875,0.11215,-0.06175,-38.7841666666667,-1.03166666666667,7.61233333333333,297.1522,-0.171025,0.2688,-1.094025,-34.3118888888889,312.523111111111,73.36,386.817,-1.01456666666667,0.0391333333333333,-0.0610333333333333,40.0916666666667,3.78966666666667,1.5415,0.0293333333333333,-0.95935,-0.201266666666667,0.0685,40.935,14.4916666666667,6.189,491.388,1,1,1,1
24-May-2018 13:26:47,53.625,0.915875,0.11215,-0.06175,-38.7841666666667,-1.03166666666667,7.61233333333333,297.1522,-0.171025,0.2688,-1.094025,-34.3118888888889,312.523111111111,73.36,386.817,-1.01456666666667,0.0391333333333333,-0.0610333333333333,40.0916666666667,3.78966666666667,1.5415,0.0293333333333333,-0.95935,-0.201266666666667,0.0685,40.935,14.4916666666667,6.189,491.388,1,1,1,1
24-May-2018 13:26:48,85.625,0.98226,0.0884,-0.1027,-69.06,-0.682,4.2454,335.181,-0.05676,0.12324,-0.90882,55.79,16.495,18.718375,98.002,-1.04366666666667,0.0994,-0.0802,40.9466666666667,-9.7865,7.45966666666667,0.0293333333333333,-0.931775,-0.244625,0.0147,59.3292,16.0856,-0.317,493.163,1,1,0,1
24-May-2018 13:26:48,85.625,0.98226,0.0884,-0.1027,-69.06,-0.682,4.2454,335.181,-0.05676,0.12324,-0.90882,55.79,16.495,18.718375,98.002,-1.04366666666667,0.0994,-0.0802,40.9466666666667,-9.7865,7.45966666666667,0.0293333333333333,-0.931775,-0.244625,0.0147,59.3292,16.0856,-0.317,493.163,1,1,0,1
24-May-2018 13:26:48,85.625,0.98226,0.0884,-0.1027,-69.06,-0.682,4.2454,335.181,-0.05676,0.12324,-0.90882,55.79,16.495,18.718375,98.002,-1.04366666666667,0.0994,-0.0802,40.9466666666667,-9.7865,7.45966666666667,0,-0.931775,-0.244625,0.0147,59.3292,16.0856,-0.317,493.163,1,1,0,1
24-May-2018 13:26:48,85.625,0.98226,0.0884,-0.1027,-69.06,-0.682,4.2454,335.181,-0.05676,0.12324,-0.90882,55.79,16.495,18.718375,98.002,-1.04366666666667,0.0994,-0.0802,40.9466666666667,-9.7865,7.45966666666667,0,-0.931775,-0.244625,0.0147,59.3292,16.0856,-0.317,493.163,1,1,0,1
24-May-2018 13:26:49,105,0.951825,0.1120125,-0.0736,-22.9466666666667,-0.567666666666667,3.24733333333333,461.448666666667,-0.00194,0.20882,-0.9151,-9.77977777777778,0.802222222222222,-0.248666666666667,37.474,-1.00333333333333,0.0807,0.115233333333333,34.2596,4.185,-1.842,0.0735,-0.9332,-0.222957142857143,0.0656857142857143,38.4348333333333,11.5245,-6.0975,424.176,1,1,1,1
24-May-2018 13:26:49,105,0.951825,0.1120125,-0.0736,-22.9466666666667,-0.567666666666667,3.24733333333333,461.448666666667,-0.00194,0.20882,-0.9151,-9.77977777777778,0.802222222222222,-0.248666666666667,37.474,-1.00333333333333,0.0807,0.115233333333333,34.2596,4.185,-1.842,0.0735,-0.9332,-0.222957142857143,0.0656857142857143,38.4348333333333,11.5245,-6.0975,424.176,1,1,1,1
24-May-2018 13:26:49,105,0.951825,0.1120125,-0.0736,-22.9466666666667,-0.567666666666667,3.24733333333333,461.448666666667,-0.00194,0.20882,-0.9151,-9.77977777777778,0.802222222222222,-0.248666666666667,37.474,-1.00333333333333,0.0807,0.115233333333333,34.2596,4.185,-1.842,0.0735,-0.9332,-0.222957142857143,0.0656857142857143,38.4348333333333,11.5245,-6.0975,424.176,1,1,1,1
24-May-2018 13:26:49,105,0.951825,0.1120125,-0.0736,-22.9466666666667,-0.567666666666667,3.24733333333333,461.448666666667,-0.00194,0.20882,-0.9151,-9.77977777777778,0.802222222222222,-0.248666666666667,37.474,-1.00333333333333,0.0807,0.115233333333333,34.2596,4.185,-1.842,0.0735,-0.9332,-0.222957142857143,0.0656857142857143,38.4348333333333,11.5245,-6.0975,424.176,1,1,1,1
24-May-2018 13:26:50,66.5,0.948883333333333,0.0946333333333333,-0.0777,-41.4571428571429,-3.24971428571429,1.89957142857143,478.482,-0.0379833333333333,0.2759,-1.17078333333333,-0.0851428571428574,2.47314285714286,1.04557142857143,32.24,-1.017925,0.195575,-0.076475,39.86,7.66325,8.85775,0.094,-0.9431,-0.23015,0.133475,30.53375,0.8995,-4.5275,656.333,1,1,1,1
24-May-2018 13:26:50,66.5,0.948883333333333,0.0946333333333333,-0.0777,-41.4571428571429,-3.24971428571429,1.89957142857143,478.482,-0.0379833333333333,0.2759,-1.17078333333333,-0.0851428571428574,2.47314285714286,1.04557142857143,32.24,-1.017925,0.195575,-0.076475,39.86,7.66325,8.85775,0.094,-0.9431,-0.23015,0.133475,30.53375,0.8995,-4.5275,656.333,1,1,1,1
24-May-2018 13:26:50,66.5,0.948883333333333,0.0946333333333333,-0.0777,-41.4571428571429,-3.24971428571429,1.89957142857143,478.482,-0.0379833333333333,0.2759,-1.17078333333333,-0.0851428571428574,2.47314285714286,1.04557142857143,32.24,-1.017925,0.195575,-0.076475,39.86,7.66325,8.85775,0.094,-0.9431,-0.23015,0.133475,30.53375,0.8995,-4.5275,656.333,1,1,1,1
24-May-2018 13:26:50,66.5,0.948883333333333,0.0946333333333333,-0.0777,-41.4571428571429,-3.24971428571429,1.89957142857143,478.482,-0.0379833333333333,0.2759,-1.17078333333333,-0.0851428571428574,2.47314285714286,1.04557142857143,32.24,-1.017925,0.195575,-0.076475,39.86,7.66325,8.85775,0.094,-0.9431,-0.23015,0.133475,30.53375,0.8995,-4.5275,656.333,1,1,1,1
24-May-2018 13:26:51,8.88888888888889,0.973185714285714,0.111971428571429,-0.0461285714285714,-14.88,2.04383333333333,3.989,425.67475,0.0162666666666667,0.242133333333333,-1.0371,2.1215,2.32625,0.609875,21.58725,-1.07095,-0.02955,0.006,29.474,-33.9783333333333,-0.635666666666667,0.0205,-0.925416666666667,-0.211033333333333,0.0762666666666667,19.1098,9.0124,6.6218,831.342,1,1,1,1
24-May-2018 13:26:51,8.88888888888889,0.973185714285714,0.111971428571429,-0.0461285714285714,-14.88,2.04383333333333,3.989,425.67475,0.0162666666666667,0.242133333333333,-1.0371,2.1215,2.32625,0.609875,21.58725,-1.07095,-0.02955,0.006,29.474,-33.9783333333333,-0.635666666666667,0.0205,-0.925416666666667,-0.211033333333333,0.0762666666666667,19.1098,9.0124,6.6218,831.342,1,1,1,1
24-May-2018 13:26:51,8.88888888888889,0.973185714285714,0.111971428571429,-0.0461285714285714,-14.88,2.04383333333333,3.989,425.67475,0.0162666666666667,0.242133333333333,-1.0371,2.1215,2.32625,0.609875,21.58725,-1.07095,-0.02955,0.006,29.474,-33.9783333333333,-0.635666666666667,0.0205,-0.925416666666667,-0.211033333333333,0.0762666666666667,19.1098,9.0124,6.6218,831.342,1,1,1,1
24-May-2018 13:26:51,8.88888888888889,0.973185714285714,0.111971428571429,-0.0461285714285714,-14.88,2.04383333333333,3.989,425.67475,0.0162666666666667,0.242133333333333,-1.0371,2.1215,2.32625,0.609875,21.58725,-1.07095,-0.02955,0.006,29.474,-33.9783333333333,-0.635666666666667,0.0205,-0.925416666666667,-0.211033333333333,0.0762666666666667,19.1098,9.0124,6.6218,831.342,1,1,1,1
24-May-2018 13:26:52,50.1111111111111,0.9463,0.0719625,-0.0997125,-4.22571428571429,4.64257142857143,-5.54285714285714,425.67475,0.0183,0.236533333333333,-1.0308,1.03671428571429,1.185,0.688285714285714,21.033,-0.999875,0.1094,-0.022825,9.14,-5.31542857142857,5.54971428571429,0.0205,-0.9209,-0.1675,0.123633333333333,17.9355714285714,-1.39357142857143,-16.2194285714286,682.583,1,1,1,1
24-May-2018 13:26:52,50.1111111111111,0.9463,0.0719625,-0.0997125,-4.22571428571429,4.64257142857143,-5.54285714285714,425.67475,0.0183,0.236533333333333,-1.0308,1.03671428571429,1.185,0.688285714285714,21.033,-0.999875,0.1094,-0.022825,9.14,-5.31542857142857,5.54971428571429,0.0205,-0.9209,-0.1675,0.123633333333333,17.9355714285714,-1.39357142857143,-16.2194285714286,682.583,1,1,1,1
24-May-2018 13:26:52,50.1111111111111,0.9463,0.0719625,-0.0997125,-4.22571428571429,4.64257142857143,-5.54285714285714,425.67475,0.0183,0.236533333333333,-1.0308,1.03671428571429,1.185,0.688285714285714,21.033,-0.999875,0.1094,-0.022825,9.14,-5.31542857142857,5.54971428571429,0.0205,-0.9209,-0.1675,0.123633333333333,17.9355714285714,-1.39357142857143,-16.2194285714286,682.583,1,1,1,1
24-May-2018 13:26:52,50.1111111111111,0.9463,0.0719625,-0.0997125,-4.22571428571429,4.64257142857143,-5.54285714285714,425.67475,0.0183,0.236533333333333,-1.0308,1.03671428571429,1.185,0.688285714285714,21.033,-0.999875,0.1094,-0.022825,9.14,-5.31542857142857,5.54971428571429,0.0205,-0.9209,-0.1675,0.123633333333333,17.9355714285714,-1.39357142857143,-16.2194285714286,682.583,1,1,1,1
24-May-2018 13:26:53,75.8888888888889,0.949371428571429,0.0844,-0.0618428571428571,58.205,0.709875,-1.4545,425.67475,0.02258,0.24138,-1.03386,0.366857142857143,0.732857142857143,0.374714285714286,21.004,-0.993466666666666,0.18985,0.12595,-62.4,21.275,7.1035,0.0205,-0.97865,-0.183775,0.0904,-39.4713333333333,-11.0973333333333,2.52033333333333,813.711,1,1,1,1
24-May-2018 13:26:53,75.8888888888889,0.949371428571429,0.0844,-0.0618428571428571,58.205,0.709875,-1.4545,425.67475,0.02258,0.24138,-1.03386,0.366857142857143,0.732857142857143,0.374714285714286,21.004,-0.993466666666666,0.18985,0.12595,-62.4,21.275,7.1035,0.0205,-0.97865,-0.183775,0.0904,-39.4713333333333,-11.0973333333333,2.52033333333333,813.711,1,1,1,1
24-May-2018 13:26:53,75.8888888888889,0.949371428571429,0.0844,-0.0618428571428571,58.205,0.709875,-1.4545,425.67475,0.02258,0.24138,-1.03386,0.366857142857143,0.732857142857143,0.374714285714286,21.004,-0.993466666666666,0.18985,0.12595,-62.4,21.275,7.1035,0,-0.97865,-0.183775,0.0904,-39.4713333333333,-11.0973333333333,2.52033333333333,813.711,1,1,1,1
24-May-2018 13:26:53,75.8888888888889,0.949371428571429,0.0844,-0.0618428571428571,58.205,0.709875,-1.4545,425.67475,0.02258,0.24138,-1.03386,0.366857142857143,0.732857142857143,0.374714285714286,21.004,-0.993466666666666,0.18985,0.12595,-62.4,21.275,7.1035,0,-0.97865,-0.183775,0.0904,-39.4713333333333,-11.0973333333333,2.52033333333333,813.711,1,1,1,1
24-May-2018 13:26:54,71.7777777777778,0.945714285714286,0.0442428571428571,-0.114657142857143,25.8918333333333,8.62783333333333,-3.46633333333333,425.67475,0.043525,0.237525,-1.027575,0.623555555555556,1.43611111111111,0.650666666666667,21.302,-1.0593,0.152475,-0.071075,-30.4283333333333,-0.779333333333334,-0.7305,0.0313333333333333,-0.91964,-0.14848,0.1346,-70.3658,-1.5976,27.4756,821.42425,1,1,1,1
24-May-2018 13:26:54,71.7777777777778,0.945714285714286,0.0442428571428571,-0.114657142857143,25.8918333333333,8.62783333333333,-3.46633333333333,425.67475,0.043525,0.237525,-1.027575,0.623555555555556,1.43611111111111,0.650666666666667,21.302,-1.0593,0.152475,-0.071075,-30.4283333333333,-0.779333333333334,-0.7305,0.0313333333333333,-0.91964,-0.14848,0.1346,-70.3658,-1.5976,27.4756,821.42425,1,1,1,1
24-May-2018 13:26:54,71.7777777777778,0.945714285714286,0.0442428571428571,-0.114657142857143,25.8918333333333,8.62783333333333,-3.46633333333333,425.67475,0.043525,0.237525,-1.027575,0.623555555555556,1.43611111111111,0.650666666666667,21.302,-1.0593,0.152475,-0.071075,-30.4283333333333,-0.779333333333334,-0.7305,0.0313333333333333,-0.91964,-0.14848,0.1346,-70.3658,-1.5976,27.4756,821.42425,1,1,1,1
24-May-2018 13:26:54,71.7777777777778,0.945714285714286,0.0442428571428571,-0.114657142857143,25.8918333333333,8.62783333333333,-3.46633333333333,425.67475,0.043525,0.237525,-1.027575,0.623555555555556,1.43611111111111,0.650666666666667,21.302,-1.0593,0.152475,-0.071075,-30.4283333333333,-0.779333333333334,-0.7305,0.0313333333333333,-0.91964,-0.14848,0.1346,-70.3658,-1.5976,27.4756,821.42425,1,1,1,1
24-May-2018 13:26:55,127.222222222222,0.986733333333333,0.116366666666667,0.0195333333333333,67.984,4.7924,-5.0052,590.890333333333,0.044025,0.237725,-1.030475,0.467666666666667,0.948888888888889,0.603222222222222,21.302,-0.956,0.196333333333333,0.1508,-84.3575,6.558,20.105,0.127,-0.998328571428571,-0.184728571428571,0.0812571428571428,-22.3766666666667,-17.3068333333333,-14.7461666666667,593.989,1,1,1,1
24-May-2018 13:26:55,127.222222222222,0.986733333333333,0.116366666666667,0.0195333333333333,67.984,4.7924,-5.0052,590.890333333333,0.044025,0.237725,-1.030475,0.467666666666667,0.948888888888889,0.603222222222222,21.302,-0.956,0.196333333333333,0.1508,-84.3575,6.558,20.105,0.127,-0.998328571428571,-0.184728571428571,0.0812571428571428,-22.3766666666667,-17.3068333333333,-14.7461666666667,593.989,1,1,1,1
24-May-2018 13:26:55,127.222222222222,0.986733333333333,0.116366666666667,0.0195333333333333,67.984,4.7924,-5.0052,590.890333333333,0.044025,0.237725,-1.030475,0.467666666666667,0.948888888888889,0.603222222222222,21.302,-0.956,0.196333333333333,0.1508,-84.3575,6.558,20.105,0.127,-0.998328571428571,-0.184728571428571,0.0812571428571428,-22.3766666666667,-17.3068333333333,-14.7461666666667,593.989,1,1,1,1
24-May-2018 13:26:55,127.222222222222,0.986733333333333,0.116366666666667,0.0195333333333333,67.984,4.7924,-5.0052,590.890333333333,0.044025,0.237725,-1.030475,0.467666666666667,0.948888888888889,0.603222222222222,21.302,-0.956,0.196333333333333,0.1508,-84.3575,6.558,20.105,0.127,-0.998328571428571,-0.184728571428571,0.0812571428571428,-22.3766666666667,-17.3068333333333,-14.7461666666667,593.989,1,1,1,1
24-May-2018 13:26:56,2.9,0.96066,0.02234,-0.14196,41.2783333333333,-1.399,1.18,423.1158,0.04634,0.23718,-1.0283,0.47275,0.800625,0.632875,21.3856666666667,-1.03366,0.19428,-0.09462,-48.2033333333333,17.008,-12.06,0.053,-0.99698,-0.1826,0.13682,-11.67675,-12.5305,-12.134,487.779,0,1,1,0
24-May-2018 13:26:56,2.9,0.96066,0.02234,-0.14196,41.2783333333333,-1.399,1.18,423.1158,0.04634,0.23718,-1.0283,0.47275,0.800625,0.632875,21.3856666666667,-1.03366,0.19428,-0.09462,-48.2033333333333,17.008,-12.06,0.053,-0.99698,-0.1826,0.13682,-11.67675,-12.5305,-12.134,487.779,0,1,1,0
24-May-2018 13:26:56,2.9,0.96066,0.02234,-0.14196,41.2783333333333,-1.399,1.18,423.1158,0.04634,0.23718,-1.0283,0.47275,0.800625,0.632875,21.3856666666667,-1.03366,0.19428,-0.09462,-48.2033333333333,17.008,-12.06,0.053,-0.99698,-0.1826,0.13682,-11.67675,-12.5305,-12.134,487.779,0,1,1,0
24-May-2018 13:26:56,2.9,0.96066,0.02234,-0.14196,41.2783333333333,-1.399,1.18,423.1158,0.04634,0.23718,-1.0283,0.47275,0.800625,0.632875,21.3856666666667,-1.03366,0.19428,-0.09462,-48.2033333333333,17.008,-12.06,0.053,-0.99698,-0.1826,0.13682,-11.67675,-12.5305,-12.134,487.779,0,1,1,0
24-May-2018 13:26:57,-20.8888888888889,0.937275,0.0877,-0.065225,46.898,1.3792,-4.08,322.8438,0.04814,0.23808,-1.03018,0.379555555555556,0.671,0.61,21.553,-1.02655,0.16585,0.0452,-60.7533333333333,-7.58,10.6693333333333,0.053,-0.97516,-0.21094,0.08012,-48.8414,-10.9636,4.6708,490.6645,1,1,1,0
24-May-2018 13:26:57,-20.8888888888889,0.937275,0.0877,-0.065225,46.898,1.3792,-4.08,322.8438,0.04814,0.23808,-1.03018,0.379555555555556,0.671,0.61,21.553,-1.02655,0.16585,0.0452,-60.7533333333333,-7.58,10.6693333333333,0.053,-0.97516,-0.21094,0.08012,-48.8414,-10.9636,4.6708,490.6645,1,1,1,0
24-May-2018 13:26:57,-20.8888888888889,0.937275,0.0877,-0.065225,46.898,1.3792,-4.08,322.8438,0.04814,0.23808,-1.03018,0.379555555555556,0.671,0.61,21.553,-1.02655,0.16585,0.0452,-60.7533333333333,-7.58,10.6693333333333,0.053,-0.97516,-0.21094,0.08012,-48.8414,-10.9636,4.6708,490.6645,1,1,1,0
24-May-2018 13:26:57,-20.8888888888889,0.937275,0.0877,-0.065225,46.898,1.3792,-4.08,322.8438,0.04814,0.23808,-1.03018,0.379555555555556,0.671,0.61,21.553,-1.02655,0.16585,0.0452,-60.7533333333333,-7.58,10.6693333333333,0.053,-0.97516,-0.21094,0.08012,-48.8414,-10.9636,4.6708,490.6645,1,1,1,0
24-May-2018 13:26:58,92.7777777777778,0.983733333333333,0.0547333333333333,-0.1044,3.25,9.7664,-3.3212,328.390666666667,0.0475,0.238133333333333,-1.03103333333333,0.418285714285714,0.140142857142857,0.766857142857143,21.651,-1.023425,0.1619,0.09215,-24.2594285714286,24.6414285714286,-3.09342857142857,0.053,-0.8795,-0.16584,0.107,-19.8678333333333,-6.31116666666667,-16.8495,506.630666666667,1,1,1,1
24-May-2018 13:26:58,92.7777777777778,0.983733333333333,0.0547333333333333,-0.1044,3.25,9.7664,-3.3212,328.390666666667,0.0475,0.238133333333333,-1.03103333333333,0.418285714285714,0.140142857142857,0.766857142857143,21.651,-1.023425,0.1619,0.09215,-24.2594285714286,24.6414285714286,-3.09342857142857,0.053,-0.8795,-0.16584,0.107,-19.8678333333333,-6.31116666666667,-16.8495,506.630666666667,1,1,1,1
24-May-2018 13:26:58,92.7777777777778,0.983733333333333,0.0547333333333333,-0.1044,3.25,9.7664,-3.3212,328.390666666667,0.0475,0.238133333333333,-1.03103333333333,0.418285714285714,0.140142857142857,0.766857142857143,21.651,-1.023425,0.1619,0.09215,-24.2594285714286,24.6414285714286,-3.09342857142857,0.053,-0.8795,-0.16584,0.107,-19.8678333333333,-6.31116666666667,-16.8495,506.630666666667,1,1,1,1
24-May-2018 13:26:58,92.7777777777778,0.983733333333333,0.0547333333333333,-0.1044,3.25,9.7664,-3.3212,328.390666666667,0.0475,0.238133333333333,-1.03103333333333,0.418285714285714,0.140142857142857,0.766857142857143,21.651,-1.023425,0.1619,0.09215,-24.2594285714286,24.6414285714286,-3.09342857142857,0.053,-0.8795,-0.16584,0.107,-19.8678333333333,-6.31116666666667,-16.8495,506.630666666667,1,1,1,1
24-May-2018 13:26:59,73.75,0.92162,0.1341,-0.07136,13.748,-2.70066666666667,3.57616666666667,365.88,0.0445,0.23848,-1.03022,0.531571428571429,0.235285714285714,0.61,21.27775,-0.994,0.13172,0.0165,-29.23,-22.0166666666667,-2.28,0.053,-0.948328571428572,-0.171985714285714,0.136328571428571,-33.4145714285714,1.54185714285714,12.5348571428571,546.06,1,0,1,1
24-May-2018 13:26:59,73.75,0.92162,0.1341,-0.07136,13.748,-2.70066666666667,3.57616666666667,365.88,0.0445,0.23848,-1.03022,0.531571428571429,0.235285714285714,0.61,21.27775,-0.994,0.13172,0.0165,-29.23,-22.0166666666667,-2.28,0.053,-0.948328571428572,-0.171985714285714,0.136328571428571,-33.4145714285714,1.54185714285714,12.5348571428571,546.06,1,0,1,1
24-May-2018 13:26:59,73.75,0.92162,0.1341,-0.07136,13.748,-2.70066666666667,3.57616666666667,365.88,0.0445,0.23848,-1.03022,0.531571428571429,0.235285714285714,0.61,21.27775,-0.994,0.13172,0.0165,-29.23,-22.0166666666667,-2.28,0.053,-0.948328571428572,-0.171985714285714,0.136328571428571,-33.4145714285714,1.54185714285714,12.5348571428571,546.06,1,0,1,1
24-May-2018 13:26:59,73.75,0.92162,0.1341,-0.07136,13.748,-2.70066666666667,3.57616666666667,365.88,0.0445,0.23848,-1.03022,0.531571428571429,0.235285714285714,0.61,21.27775,-0.994,0.13172,0.0165,-29.23,-22.0166666666667,-2.28,0.053,-0.948328571428572,-0.171985714285714,0.136328571428571,-33.4145714285714,1.54185714285714,12.5348571428571,546.06,1,0,1,1
24-May-2018 13:27:00,68.5714285714286,0.9345875,0.0636125,-0.0595125,-2.4375,2.1325,0.642,357.466,0.04185,0.2392,-1.030475,0.467666666666667,0.142555555555556,0.386333333333333,21.07,-1.01145,0.080425,0.078925,-58.60975,-14.407,10.655,0.053,-0.9107,-0.2102,0.03826,22.8046666666667,14.1261666666667,3.97333333333333,418.32,1,1,1,1
24-May-2018 13:27:00,68.5714285714286,0.9345875,0.0636125,-0.0595125,-2.4375,2.1325,0.642,357.466,0.04185,0.2392,-1.030475,0.467666666666667,0.142555555555556,0.386333333333333,21.07,-1.01145,0.080425,0.078925,-58.60975,-14.407,10.655,0.053,-0.9107,-0.2102,0.03826,22.8046666666667,14.1261666666667,3.97333333333333,418.32,1,1,1,1
24-May-2018 13:27:00,68.5714285714286,0.9345875,0.0636125,-0.0595125,-2.4375,2.1325,0.642,357.466,0.04185,0.2392,-1.030475,0.467666666666667,0.142555555555556,0.386333333333333,21.07,-1.01145,0.080425,0.078925,-58.60975,-14.407,10.655,0.053,-0.9107,-0.2102,0.03826,22.8046666666667,14.1261666666667,3.97333333333333,418.32,1,1,1,1
24-May-2018 13:27:00,68.5714285714286,0.9345875,0.0636125,-0.0595125,-2.4375,2.1325,0.642,357.466,0.04185,0.2392,-1.030475,0.467666666666667,0.142555555555556,0.386333333333333,21.07,-1.01145,0.080425,0.078925,-58.60975,-14.407,10.655,0,-0.9107,-0.2102,0.03826,22.8046666666667,14.1261666666667,3.97333333333333,418.32,1,1,1,1
24-May-2018 13:27:01,42.1,0.97245,0.080275,-0.0505,56.0325,-6.5325,1.60175,361.36,0.041925,0.23915,-1.03,0.47275,-0.089125,0.38125,21.265,-0.988316666666667,0.09435,0.0128,-53.3585,26.0833333333333,-2.13966666666667,0.0273333333333333,-0.944971428571429,-0.155685714285714,0.117728571428571,-76.001,-4.72985714285714,18.4928571428571,476.661,1,1,1,1
24-May-2018 13:27:01,42.1,0.97245,0.080275,-0.0505,56.0325,-6.5325,1.60175,361.36,0.041925,0.23915,-1.03,0.47275,-0.089125,0.38125,21.265,-0.988316666666667,0.09435,0.0128,-53.3585,26.0833333333333,-2.13966666666667,0.0273333333333333,-0.944971428571429,-0.155685714285714,0.117728571428571,-76.001,-4.72985714285714,18.4928571428571,476.661,1,1,1,1
24-May-2018 13:27:01,42.1,0.97245,0.080275,-0.0505,56.0325,-6.5325,1.60175,361.36,0.041925,0.23915,-1.03,0.47275,-0.089125,0.38125,21.265,-0.988316666666667,0.09435,0.0128,-53.3585,26.0833333333333,-2.13966666666667,0.0273333333333333,-0.944971428571429,-0.155685714285714,0.117728571428571,-76.001,-4.72985714285714,18.4928571428571,476.661,1,1,1,1
24-May-2018 13:27:01,42.1,0.97245,0.080275,-0.0505,56.0325,-6.5325,1.60175,361.36,0.041925,0.23915,-1.03,0.47275,-0.089125,0.38125,21.265,-0.988316666666667,0.09435,0.0128,-53.3585,26.0833333333333,-2.13966666666667,0.0273333333333333,-0.944971428571429,-0.155685714285714,0.117728571428571,-76.001,-4.72985714285714,18.4928571428571,476.661,1,1,1,1
24-May-2018 13:27:02,-42.2857142857143,0.9508,0.0404,-0.137633333333333,31.242,9.304,-4.8706,285.358,0.03938,0.23914,-1.02956,0.383428571428571,-0.0501428571428571,0.348571428571429,21.265,-1.03593333333333,0.1213,-0.164166666666667,-13.5763333333333,1.95666666666667,6.76833333333333,0.088,-0.98728,-0.20262,0.10178,-29.677,-14.7648571428571,-2.57842857142857,510.518,1,1,1,1
24-May-2018 13:27:02,-42.2857142857143,0.9508,0.0404,-0.137633333333333,31.242,9.304,-4.8706,285.358,0.03938,0.23914,-1.02956,0.383428571428571,-0.0501428571428571,0.348571428571429,21.265,-1.03593333333333,0.1213,-0.164166666666667,-13.5763333333333,1.95666666666667,6.76833333333333,0.088,-0.98728,-0.20262,0.10178,-29.677,-14.7648571428571,-2.57842857142857,510.518,1,1,1,1
24-May-2018 13:27:02,-42.2857142857143,0.9508,0.0404,-0.137633333333333,31.242,9.304,-4.8706,285.358,0.03938,0.23914,-1.02956,0.383428571428571,-0.0501428571428571,0.348571428571429,21.265,-1.03593333333333,0.1213,-0.164166666666667,-13.5763333333333,1.95666666666667,6.76833333333333,0.088,-0.98728,-0.20262,0.10178,-29.677,-14.7648571428571,-2.57842857142857,510.518,1,1,1,1
24-May-2018 13:27:02,-42.2857142857143,0.9508,0.0404,-0.137633333333333,31.242,9.304,-4.8706,285.358,0.03938,0.23914,-1.02956,0.383428571428571,-0.0501428571428571,0.348571428571429,21.265,-1.03593333333333,0.1213,-0.164166666666667,-13.5763333333333,1.95666666666667,6.76833333333333,0.088,-0.98728,-0.20262,0.10178,-29.677,-14.7648571428571,-2.57842857142857,510.518,1,1,1,1
24-May-2018 13:27:03,17.4,0.937871428571428,0.0588428571428571,-0.134271428571429,77.3733333333333,1.269,-4.41288888888889,285.358,0.0370333333333333,0.2399,-1.03013333333333,0.4758,0.2875,0.366,21.033,-0.9879,0.159471428571429,-0.0107857142857143,-67.1375,21.814,4.775,0.047,-0.934771428571429,-0.160957142857143,0.120871428571429,-55.47125,2.2105,-0.0303750000000003,715.371,1,1,1,1
24-May-2018 13:27:03,17.4,0.937871428571428,0.0588428571428571,-0.134271428571429,77.3733333333333,1.269,-4.41288888888889,285.358,0.0370333333333333,0.2399,-1.03013333333333,0.4758,0.2875,0.366,21.033,-0.9879,0.159471428571429,-0.0107857142857143,-67.1375,21.814,4.775,0.047,-0.934771428571429,-0.160957142857143,0.120871428571429,-55.47125,2.2105,-0.0303750000000003,715.371,1,1,1,1
24-May-2018 13:27:03,17.4,0.937871428571428,0.0588428571428571,-0.134271428571429,77.3733333333333,1.269,-4.41288888888889,285.358,0.0370333333333333,0.2399,-1.03013333333333,0.4758,0.2875,0.366,21.033,-0.9879,0.159471428571429,-0.0107857142857143,-67.1375,21.814,4.775,0.047,-0.934771428571429,-0.160957142857143,0.120871428571429,-55.47125,2.2105,-0.0303750000000003,715.371,1,1,1,1
24-May-2018 13:27:03,17.4,0.937871428571428,0.0588428571428571,-0.134271428571429,77.3733333333333,1.269,-4.41288888888889,285.358,0.0370333333333333,0.2399,-1.03013333333333,0.4758,0.2875,0.366,21.033,-0.9879,0.159471428571429,-0.0107857142857143,-67.1375,21.814,4.775,0.047,-0.934771428571429,-0.160957142857143,0.120871428571429,-55.47125,2.2105,-0.0303750000000003,715.371,1,1,1,1
24-May-2018 13:27:04,42.4444444444444,0.944728571428571,0.0346428571428571,-0.0743571428571429,23.715,4.7561,-4.9214,285.358,0.037325,0.239275,-1.0291,0.345666666666667,0.407,0.376166666666667,21.033,-1.04148571428571,0.166328571428571,0.118928571428571,-46.0176,-17.478,4.6884,0.0586666666666667,-0.945966666666667,-0.184566666666667,-0.00843333333333333,-7.51525,15.0305,11.692,703.21725,1,1,0,1
24-May-2018 13:27:04,42.4444444444444,0.944728571428571,0.0346428571428571,-0.0743571428571429,23.715,4.7561,-4.9214,285.358,0.037325,0.239275,-1.0291,0.345666666666667,0.407,0.376166666666667,21.033,-1.04148571428571,0.166328571428571,0.118928571428571,-46.0176,-17.478,4.6884,0.0586666666666667,-0.945966666666667,-0.184566666666667,-0.00843333333333333,-7.51525,15.0305,11.692,703.21725,1,1,0,1
24-May-2018 13:27:04,42.4444444444444,0.944728571428571,0.0346428571428571,-0.0743571428571429,23.715,4.7561,-4.9214,0,0.037325,0.239275,-1.0291,0.345666666666667,0.407,0.376166666666667,21.033,-1.04148571428571,0.166328571428571,0.118928571428571,-46.0176,-17.478,4.6884,0.0586666666666667,-0.945966666666667,-0.184566666666667,-0.00843333333333333,-7.51525,15.0305,11.692,703.21725,1,1,0,1
24-May-2018 13:27:04,42.4444444444444,0.944728571428571,0.0346428571428571,-0.0743571428571429,23.715,4.7561,-4.9214,0,0.037325,0.239275,-1.0291,0.345666666666667,0.407,0.376166666666667,21.033,-1.04148571428571,0.166328571428571,0.118928571428571,-46.0176,-17.478,4.6884,0.0586666666666667,-0.945966666666667,-0.184566666666667,-0.00843333333333333,-7.51525,15.0305,11.692,703.21725,1,1,0,1
24-May-2018 13:27:05,46.6666666666667,0.970533333333333,0.0739666666666667,-0.0936333333333333,-19.1941666666667,-2.585,1.549,531.957,0.03655,0.239525,-1.02845,0.501555555555556,0.0145555555555556,0.338888888888889,21.004,-1.00824,0.13848,-0.02632,16.1335,21.0116666666667,1.64866666666667,0.121,-0.9825,-0.1705375,0.1302375,-0.392,-3.84128571428571,-5.07842857142857,774.715,1,1,1,1
24-May-2018 13:27:05,46.6666666666667,0.970533333333333,0.0739666666666667,-0.0936333333333333,-19.1941666666667,-2.585,1.549,531.957,0.03655,0.239525,-1.02845,0.501555555555556,0.0145555555555556,0.338888888888889,21.004,-1.00824,0.13848,-0.02632,16.1335,21.0116666666667,1.64866666666667,0.121,-0.9825,-0.1705375,0.1302375,-0.392,-3.84128571428571,-5.07842857142857,774.715,1,1,1,1
24-May-2018 13:27:05,46.6666666666667,0.970533333333333,0.0739666666666667,-0.0936333333333333,-19.1941666666667,-2.585,1.549,531.957,0.03655,0.239525,-1.02845,0.501555555555556,0.0145555555555556,0.338888888888889,21.004,-1.00824,0.13848,-0.02632,16.1335,21.0116666666667,1.64866666666667,0.121,-0.9825,-0.1705375,0.1302375,-0.392,-3.84128571428571,-5.07842857142857,774.715,1,1,1,1
24-May-2018 13:27:05,46.6666666666667,0.970533333333333,0.0739666666666667,-0.0936333333333333,-19.1941666666667,-2.585,1.549,531.957,0.03655,0.239525,-1.02845,0.501555555555556,0.0145555555555556,0.338888888888889,21.004,-1.00824,0.13848,-0.02632,16.1335,21.0116666666667,1.64866666666667,0.121,-0.9825,-0.1705375,0.1302375,-0.392,-3.84128571428571,-5.07842857142857,774.715,1,1,1,1
24-May-2018 13:27:06,6.1,0.92592,0.1028,-0.0782,13.78,10.042,-4.6665,499.696,0.03414,0.24082,-1.03126,0.617625,0.358375,0.404125,20.917,-0.981771428571429,0.111285714285714,0.130885714285714,11.3966666666667,-31.5673333333333,20.0366666666667,0.114,-0.9583,-0.18744,0.05154,-5.14814285714286,-4.51214285714286,0.914428571428573,654.955,1,1,1,1
24-May-2018 13:27:06,6.1,0.92592,0.1028,-0.0782,13.78,10.042,-4.6665,499.696,0.03414,0.24082,-1.03126,0.617625,0.358375,0.404125,20.917,-0.981771428571429,0.111285714285714,0.130885714285714,11.3966666666667,-31.5673333333333,20.0366666666667,0.114,-0.9583,-0.18744,0.05154,-5.14814285714286,-4.51214285714286,0.914428571428573,654.955,1,1,1,1
24-May-2018 13:27:06,6.1,0.92592,0.1028,-0.0782,13.78,10.042,-4.6665,499.696,0.03414,0.24082,-1.03126,0.617625,0.358375,0.404125,20.917,-0.981771428571429,0.111285714285714,0.130885714285714,11.3966666666667,-31.5673333333333,20.0366666666667,0.114,-0.9583,-0.18744,0.05154,-5.14814285714286,-4.51214285714286,0.914428571428573,654.955,1,1,1,1
24-May-2018 13:27:06,6.1,0.92592,0.1028,-0.0782,13.78,10.042,-4.6665,499.696,0.03414,0.24082,-1.03126,0.617625,0.358375,0.404125,20.917,-0.981771428571429,0.111285714285714,0.130885714285714,11.3966666666667,-31.5673333333333,20.0366666666667,0.114,-0.9583,-0.18744,0.05154,-5.14814285714286,-4.51214285714286,0.914428571428573,654.955,1,1,1,1
24-May-2018 13:27:07,59.3,0.97718,0.02866,-0.09978,25.5866666666667,1.2155,-1.32016666666667,562.0316,0.03685,0.237975,-1.029875,0.671,1.26022222222222,0.352444444444445,20.839,-1.0486,0.159133333333333,0.0378333333333333,-13.9233333333333,19.4466666666667,3.86333333333333,0.145,-0.94144,-0.20856,0.1349,-38.13,10.1726666666667,10.4878333333333,829.07,1,0,1,1
24-May-2018 13:27:07,59.3,0.97718,0.02866,-0.09978,25.5866666666667,1.2155,-1.32016666666667,562.0316,0.03685,0.237975,-1.029875,0.671,1.26022222222222,0.352444444444445,20.839,-1.0486,0.159133333333333,0.0378333333333333,-13.9233333333333,19.4466666666667,3.86333333333333,0.145,-0.94144,-0.20856,0.1349,-38.13,10.1726666666667,10.4878333333333,829.07,1,0,1,1
24-May-2018 13:27:07,59.3,0.97718,0.02866,-0.09978,25.5866666666667,1.2155,-1.32016666666667,562.0316,0.03685,0.237975,-1.029875,0.671,1.26022222222222,0.352444444444445,20.839,-1.0486,0.159133333333333,0.0378333333333333,-13.9233333333333,19.4466666666667,3.86333333333333,0.145,-0.94144,-0.20856,0.1349,-38.13,10.1726666666667,10.4878333333333,829.07,1,0,1,1
24-May-2018 13:27:07,59.3,0.97718,0.02866,-0.09978,25.5866666666667,1.2155,-1.32016666666667,562.0316,0.03685,0.237975,-1.029875,0.671,1.26022222222222,0.352444444444445,20.839,-1.0486,0.159133333333333,0.0378333333333333,-13.9233333333333,19.4466666666667,3.86333333333333,0.145,-0.94144,-0.20856,0.1349,-38.13,10.1726666666667,10.4878333333333,829.07,1,0,1,1
24-May-2018 13:27:08,60.125,0.9776,0.12674,-0.02996,56.86,5.39157142857143,-4.46942857142857,592.413666666667,0.0547,0.24624,-1.04216,0.507428571428571,0.899,11.6887142857143,20.9876666666667,-1.02825,0.07775,0.0676,33.99,7.131,-6.06,0.146,-0.96596,-0.1514,0.09276,-25.779,-23.1462,-6.5246,560.0214,1,1,1,1
24-May-2018 13:27:08,60.125,0.9776,0.12674,-0.02996,56.86,5.39157142857143,-4.46942857142857,592.413666666667,0.0547,0.24624,-1.04216,0.507428571428571,0.899,11.6887142857143,20.9876666666667,-1.02825,0.07775,0.0676,33.99,7.131,-6.06,0.146,-0.96596,-0.1514,0.09276,-25.779,-23.1462,-6.5246,560.0214,1,1,1,1
24-May-2018 13:27:08,60.125,0.9776,0.12674,-0.02996,56.86,5.39157142857143,-4.46942857142857,592.413666666667,0.0547,0.24624,-1.04216,0.507428571428571,0.899,11.6887142857143,20.9876666666667,-1.02825,0.07775,0.0676,33.99,7.131,-6.06,0.146,-0.96596,-0.1514,0.09276,-25.779,-23.1462,-6.5246,560.0214,1,1,1,1
24-May-2018 13:27:08,60.125,0.9776,0.12674,-0.02996,56.86,5.39157142857143,-4.46942857142857,592.413666666667,0.0547,0.24624,-1.04216,0.507428571428571,0.899,11.6887142857143,20.9876666666667,-1.02825,0.07775,0.0676,33.99,7.131,-6.06,0.146,-0.96596,-0.1514,0.09276,-25.779,-23.1462,-6.5246,560.0214,1,1,1,1
24-May-2018 13:27:09,42.7777777777778,0.94705,0.00705,-0.137633333333333,52.154,-4.7648,0.6472,441.226666666667,0.11725,0.24075,-1.0585,8.0945,1.62,-0.471,21.363,-0.9701,0.1414,0.09358,-102,8.145,16.26,0.1295,-0.928183333333333,-0.141583333333333,0.177333333333333,-43.8154285714286,-5.15685714285714,5.366,560.0214,1,1,1,1
24-May-2018 13:27:09,42.7777777777778,0.94705,0.00705,-0.137633333333333,52.154,-4.7648,0.6472,441.226666666667,0.11725,0.24075,-1.0585,8.0945,1.62,-0.471,21.363,-0.9701,0.1414,0.09358,-102,8.145,16.26,0.1295,-0.928183333333333,-0.141583333333333,0.177333333333333,-43.8154285714286,-5.15685714285714,5.366,560.0214,1,1,1,1
24-May-2018 13:27:09,42.7777777777778,0.94705,0.00705,-0.137633333333333,52.154,-4.7648,0.6472,441.226666666667,0.11725,0.24075,-1.0585,8.0945,1.62,-0.471,21.363,-0.9701,0.1414,0.09358,-102,8.145,16.26,0.1295,-0.928183333333333,-0.141583333333333,0.177333333333333,-43.8154285714286,-5.15685714285714,5.366,560.0214,1,1,1,1
24-May-2018 13:27:09,42.7777777777778,0.94705,0.00705,-0.137633333333333,52.154,-4.7648,0.6472,441.226666666667,0.11725,0.24075,-1.0585,8.0945,1.62,-0.471,21.363,-0.9701,0.1414,0.09358,-102,8.145,16.26,0.1295,-0.928183333333333,-0.141583333333333,0.177333333333333,-43.8154285714286,-5.15685714285714,5.366,0,1,1,1,1
24-May-2018 13:27:10,60,0.94256,0.06656,-0.06388,29.4171428571429,9.82385714285714,-5.01228571428571,306.064,0.60626,0.31774,-0.74404,47.6892857142857,10.4228571428571,53.2557142857143,37.9202,-1.0462,0.141925,-0.0139,-36.275,16.76725,-11.4525,0.1295,-0.89915,-0.19935,0.023,-2.7196,0.634,0.8658,485.275666666667,1,1,1,0
24-May-2018 13:27:10,60,0.94256,0.06656,-0.06388,29.4171428571429,9.82385714285714,-5.01228571428571,306.064,0.60626,0.31774,-0.74404,47.6892857142857,10.4228571428571,53.2557142857143,37.9202,-1.0462,0.141925,-0.0139,-36.275,16.76725,-11.4525,0.1295,-0.89915,-0.19935,0.023,-2.7196,0.634,0.8658,485.275666666667,1,1,1,0
24-May-2018 13:27:10,60,0.94256,0.06656,-0.06388,29.4171428571429,9.82385714285714,-5.01228571428571,306.064,0.60626,0.31774,-0.74404,47.6892857142857,10.4228571428571,53.2557142857143,37.9202,-1.0462,0.141925,-0.0139,-36.275,16.76725,-11.4525,0.1295,-0.89915,-0.19935,0.023,-2.7196,0.634,0.8658,485.275666666667,1,1,1,0
24-May-2018 13:27:10,60,0.94256,0.06656,-0.06388,29.4171428571429,9.82385714285714,-5.01228571428571,306.064,0.60626,0.31774,-0.74404,47.6892857142857,10.4228571428571,53.2557142857143,37.9202,-1.0462,0.141925,-0.0139,-36.275,16.76725,-11.4525,0.1295,-0.89915,-0.19935,0.023,-2.7196,0.634,0.8658,485.275666666667,1,1,1,0
24-May-2018 13:27:11,24.9090909090909,0.96935,0.1009,-0.127216666666667,5.65,-0.568333333333333,6.4945,331.327666666667,0.885071428571428,0.0233428571428571,-0.333342857142857,-154.207666666667,101.118333333333,130.666666666667,129.88,-1.03265,0.173766666666667,0.09975,-53.2,18.192,-2.66,0.1295,-0.8788,-0.1067,0.1586,-54.1565,-0.670666666666667,17.2356666666667,548.571,1,1,1,1
24-May-2018 13:27:11,24.9090909090909,0.96935,0.1009,-0.127216666666667,5.65,-0.568333333333333,6.4945,331.327666666667,0.885071428571428,0.0233428571428571,-0.333342857142857,-154.207666666667,101.118333333333,130.666666666667,129.88,-1.03265,0.173766666666667,0.09975,-53.2,18.192,-2.66,0.1295,-0.8788,-0.1067,0.1586,-54.1565,-0.670666666666667,17.2356666666667,548.571,1,1,1,1
24-May-2018 13:27:11,24.9090909090909,0.96935,0.1009,-0.127216666666667,5.65,-0.568333333333333,6.4945,331.327666666667,0.885071428571428,0.0233428571428571,-0.333342857142857,-154.207666666667,101.118333333333,130.666666666667,129.88,-1.03265,0.173766666666667,0.09975,-53.2,18.192,-2.66,0.1295,-0.8788,-0.1067,0.1586,-54.1565,-0.670666666666667,17.2356666666667,548.571,1,1,1,1
24-May-2018 13:27:11,24.9090909090909,0.96935,0.1009,-0.127216666666667,5.65,-0.568333333333333,6.4945,331.327666666667,0.885071428571428,0.0233428571428571,-0.333342857142857,-154.207666666667,101.118333333333,130.666666666667,129.88,-1.03265,0.173766666666667,0.09975,-53.2,18.192,-2.66,0.1295,-0.8788,-0.1067,0.1586,-54.1565,-0.670666666666667,17.2356666666667,548.571,1,1,1,1
24-May-2018 13:27:12,60.6,0.947528571428571,0.126457142857143,-0.0501428571428571,25.0918571428571,1.40242857142857,-3.72514285714286,335.334,0.878233333333333,-0.432533333333333,-0.360433333333333,40.8111111111111,66.7822222222222,-20.3477777777778,163.442,-1.025,0.1785,0.09695,-9.72666666666666,5.01666666666667,5.24366666666667,0.1295,-0.994633333333333,-0.2161,0.0831,5.2318,5.0486,-2.6706,539.974,1,1,1,1
24-May-2018 13:27:12,60.6,0.947528571428571,0.126457142857143,-0.0501428571428571,25.0918571428571,1.40242857142857,-3.72514285714286,335.334,0.878233333333333,-0.432533333333333,-0.360433333333333,40.8111111111111,66.7822222222222,-20.3477777777778,163.442,-1.025,0.1785,0.09695,-9.72666666666666,5.01666666666667,5.24366666666667,0.1295,-0.994633333333333,-0.2161,0.0831,5.2318,5.0486,-2.6706,539.974,1,1,1,1
24-May-2018 13:27:12,60.6,0.947528571428571,0.126457142857143,-0.0501428571428571,25.0918571428571,1.40242857142857,-3.72514285714286,335.334,0.878233333333333,-0.432533333333333,-0.360433333333333,40.8111111111111,66.7822222222222,-20.3477777777778,163.442,-1.025,0.1785,0.09695,-9.72666666666666,5.01666666666667,5.24366666666667,0.1295,-0.994633333333333,-0.2161,0.0831,5.2318,5.0486,-2.6706,539.974,1,1,1,1
24-May-2018 13:27:12,60.6,0.947528571428571,0.126457142857143,-0.0501428571428571,25.0918571428571,1.40242857142857,-3.72514285714286,335.334,0.878233333333333,-0.432533333333333,-0.360433333333333,40.8111111111111,66.7822222222222,-20.3477777777778,163.442,-1.025,0.1785,0.09695,-9.72666666666666,5.01666666666667,5.24366666666667,0.1295,-0.994633333333333,-0.2161,0.0831,5.2318,5.0486,-2.6706,539.974,1,1,1,1
24-May-2018 13:27:13,140.375,0.962871428571429,0.0360428571428571,-0.107257142857143,10.9574444444444,-1.76844444444444,1.74644444444444,335.334,0.915283333333333,0.1459,-0.317433333333333,-120.171428571429,71,-38.0457142857143,166.2185,-1.04612,0.07938,0.07866,-8.945,26.825,6.495,0.1295,-0.9759,-0.190633333333333,0.1646,-27.429,16.8903333333333,10.813,391.636,1,0,1,1
24-May-2018 13:27:13,140.375,0.962871428571429,0.0360428571428571,-0.107257142857143,10.9574444444444,-1.76844444444444,1.74644444444444,335.334,0.915283333333333,0.1459,-0.317433333333333,-120.171428571429,71,-38.0457142857143,166.2185,-1.04612,0.07938,0.07866,-8.945,26.825,6.495,0.1295,-0.9759,-0.190633333333333,0.1646,-27.429,16.8903333333333,10.813,391.636,1,0,1,1
24-May-2018 13:27:13,140.375,0.962871428571429,0.0360428571428571,-0.107257142857143,10.9574444444444,-1.76844444444444,1.74644444444444,335.334,0.915283333333333,0.1459,-0.317433333333333,-120.171428571429,71,-38.0457142857143,166.2185,-1.04612,0.07938,0.07866,-8.945,26.825,6.495,0.1295,-0.9759,-0.190633333333333,0.1646,-27.429,16.8903333333333,10.813,391.636,1,0,1,1
24-May-2018 13:27:13,140.375,0.962871428571429,0.0360428571428571,-0.107257142857143,10.9574444444444,-1.76844444444444,1.74644444444444,335.334,0.915283333333333,0.1459,-0.317433333333333,-120.171428571429,71,-38.0457142857143,166.2185,-1.04612,0.07938,0.07866,-8.945,26.825,6.495,0.1295,-0.9759,-0.190633333333333,0.1646,-27.429,16.8903333333333,10.813,391.636,1,0,1,1
24-May-2018 13:27:14,62.3636363636364,0.942325,0.1153125,-0.056425,46.26,8.648,-7.83371428571429,335.334,0.862566666666667,0.4328,-0.262066666666667,81.1971428571429,-132.271428571429,-81.1878571428572,168.995,-1.024925,0.1,-0.062125,-16.9042,-19.014,0.8242,0.1295,-0.950716666666667,-0.175916666666667,0.0768833333333333,-22.92675,-15.022875,-5.990875,395.863,1,1,1,1
24-May-2018 13:27:14,62.3636363636364,0.942325,0.1153125,-0.056425,46.26,8.648,-7.83371428571429,335.334,0.862566666666667,0.4328,-0.262066666666667,81.1971428571429,-132.271428571429,-81.1878571428572,168.995,-1.024925,0.1,-0.062125,-16.9042,-19.014,0.8242,0.1295,-0.950716666666667,-0.175916666666667,0.0768833333333333,-22.92675,-15.022875,-5.990875,395.863,1,1,1,1
24-May-2018 13:27:14,62.3636363636364,0.942325,0.1153125,-0.056425,46.26,8.648,-7.83371428571429,0,0.862566666666667,0.4328,-0.262066666666667,81.1971428571429,-132.271428571429,-81.1878571428572,168.995,-1.024925,0.1,-0.062125,-16.9042,-19.014,0.8242,0,-0.950716666666667,-0.175916666666667,0.0768833333333333,-22.92675,-15.022875,-5.990875,395.863,1,1,1,1
24-May-2018 13:27:14,62.3636363636364,0.942325,0.1153125,-0.056425,46.26,8.648,-7.83371428571429,0,0.862566666666667,0.4328,-0.262066666666667,81.1971428571429,-132.271428571429,-81.1878571428572,168.995,-1.024925,0.1,-0.062125,-16.9042,-19.014,0.8242,0,-0.950716666666667,-0.175916666666667,0.0768833333333333,-22.92675,-15.022875,-5.990875,395.863,1,1,1,1
24-May-2018 13:27:15,132.571428571429,0.9248,0.04682,-0.12284,26.876,-1.8624,-1.7534,275.146333333333,1.1594,-0.18668,-0.39068,-41.14375,239.55,94.15875,169.94475,-1.0647,0.133,0.194166666666667,-33.9266666666667,8.96,2.70266666666667,0.044,-0.994883333333333,-0.19705,0.116966666666667,-23.666,-10.991,-8.711875,401.715,1,1,1,1
24-May-2018 13:27:15,132.571428571429,0.9248,0.04682,-0.12284,26.876,-1.8624,-1.7534,275.146333333333,1.1594,-0.18668,-0.39068,-41.14375,239.55,94.15875,169.94475,-1.0647,0.133,0.194166666666667,-33.9266666666667,8.96,2.70266666666667,0.044,-0.994883333333333,-0.19705,0.116966666666667,-23.666,-10.991,-8.711875,401.715,1,1,1,1
24-May-2018 13:27:15,132.571428571429,0.9248,0.04682,-0.12284,26.876,-1.8624,-1.7534,275.146333333333,1.1594,-0.18668,-0.39068,-41.14375,239.55,94.15875,169.94475,-1.0647,0.133,0.194166666666667,-33.9266666666667,8.96,2.70266666666667,0.044,-0.994883333333333,-0.19705,0.116966666666667,-23.666,-10.991,-8.711875,401.715,1,1,1,1
24-May-2018 13:27:15,132.571428571429,0.9248,0.04682,-0.12284,26.876,-1.8624,-1.7534,275.146333333333,1.1594,-0.18668,-0.39068,-41.14375,239.55,94.15875,169.94475,-1.0647,0.133,0.194166666666667,-33.9266666666667,8.96,2.70266666666667,0.044,-0.994883333333333,-0.19705,0.116966666666667,-23.666,-10.991,-8.711875,401.715,1,1,1,1
24-May-2018 13:27:16,27.9,0.96015,0.07165,-0.08375,71.8725,5.4125,-3.93,238.914,0.826733333333333,-0.321866666666667,-0.360633333333333,-78.0666666666667,309.883333333333,171.381666666667,172.794,-1.01118,0.1317,-0.03516,-41.1175,-9.6275,-4.55625,0.047,-0.855066666666667,-0.149833333333333,0.0565,-70.9756666666667,11.8903333333333,62.0733333333333,624.3435,1,1,1,1
24-May-2018 13:27:16,27.9,0.96015,0.07165,-0.08375,71.8725,5.4125,-3.93,238.914,0.826733333333333,-0.321866666666667,-0.360633333333333,-78.0666666666667,309.883333333333,171.381666666667,172.794,-1.01118,0.1317,-0.03516,-41.1175,-9.6275,-4.55625,0.047,-0.855066666666667,-0.149833333333333,0.0565,-70.9756666666667,11.8903333333333,62.0733333333333,624.3435,1,1,1,1
24-May-2018 13:27:16,27.9,0.96015,0.07165,-0.08375,71.8725,5.4125,-3.93,238.914,0.826733333333333,-0.321866666666667,-0.360633333333333,-78.0666666666667,309.883333333333,171.381666666667,172.794,-1.01118,0.1317,-0.03516,-41.1175,-9.6275,-4.55625,0.047,-0.855066666666667,-0.149833333333333,0.0565,-70.9756666666667,11.8903333333333,62.0733333333333,624.3435,1,1,1,1
24-May-2018 13:27:16,27.9,0.96015,0.07165,-0.08375,71.8725,5.4125,-3.93,238.914,0.826733333333333,-0.321866666666667,-0.360633333333333,-78.0666666666667,309.883333333333,171.381666666667,172.794,-1.01118,0.1317,-0.03516,-41.1175,-9.6275,-4.55625,0.047,-0.855066666666667,-0.149833333333333,0.0565,-70.9756666666667,11.8903333333333,62.0733333333333,624.3435,1,1,1,1
24-May-2018 13:27:17,-16,0.96478,-0.00766,-0.1187,55,-5.30166666666667,-1.55033333333333,314.49425,1.0977,-0.5141,-0.246325,-71.7625,-207.8225,61.45375,172.794,-1.00628,0.21224,0.03856,-66.0675,14.9585,8.29925,0.047,-0.97862,-0.18982,0.12806,-86.9774285714286,-3.66714285714286,24.1288571428571,722.707,1,1,1,1
24-May-2018 13:27:17,-16,0.96478,-0.00766,-0.1187,55,-5.30166666666667,-1.55033333333333,314.49425,1.0977,-0.5141,-0.246325,-71.7625,-207.8225,61.45375,172.794,-1.00628,0.21224,0.03856,-66.0675,14.9585,8.29925,0.047,-0.97862,-0.18982,0.12806,-86.9774285714286,-3.66714285714286,24.1288571428571,722.707,1,1,1,1
24-May-2018 13:27:17,-16,0.96478,-0.00766,-0.1187,55,-5.30166666666667,-1.55033333333333,314.49425,1.0977,-0.5141,-0.246325,-71.7625,-207.8225,61.45375,172.794,-1.00628,0.21224,0.03856,-66.0675,14.9585,8.29925,0.047,-0.97862,-0.18982,0.12806,-86.9774285714286,-3.66714285714286,24.1288571428571,722.707,1,1,1,1
24-May-2018 13:27:17,-16,0.96478,-0.00766,-0.1187,55,-5.30166666666667,-1.55033333333333,314.49425,1.0977,-0.5141,-0.246325,-71.7625,-207.8225,61.45375,172.794,-1.00628,0.21224,0.03856,-66.0675,14.9585,8.29925,0,-0.97862,-0.18982,0.12806,-86.9774285714286,-3.66714285714286,24.1288571428571,722.707,1,1,1,1
24-May-2018 13:27:18,-32,0.961471428571429,0.112128571428571,-0.0420428571428571,56.8,5.2564,-5.03,458.4735,0.8304,-0.52782,-0.29332,-103.116666666667,45.0166666666667,-58.3333333333333,102.7628,-1.02765,0.03635,-0.00535,-65.425,-35.345,3.08,0.05,-0.960416666666667,-0.171733333333333,0.106283333333333,-4.25971428571429,4.38142857142857,0.322142857142859,624.971666666667,1,1,0,1
24-May-2018 13:27:18,-32,0.961471428571429,0.112128571428571,-0.0420428571428571,56.8,5.2564,-5.03,458.4735,0.8304,-0.52782,-0.29332,-103.116666666667,45.0166666666667,-58.3333333333333,102.7628,-1.02765,0.03635,-0.00535,-65.425,-35.345,3.08,0.05,-0.960416666666667,-0.171733333333333,0.106283333333333,-4.25971428571429,4.38142857142857,0.322142857142859,624.971666666667,1,1,0,1
24-May-2018 13:27:18,-32,0.961471428571429,0.112128571428571,-0.0420428571428571,56.8,5.2564,-5.03,458.4735,0.8304,-0.52782,-0.29332,-103.116666666667,45.0166666666667,-58.3333333333333,102.7628,-1.02765,0.03635,-0.00535,-65.425,-35.345,3.08,0.05,-0.960416666666667,-0.171733333333333,0.106283333333333,-4.25971428571429,4.38142857142857,0.322142857142859,624.971666666667,1,1,0,1
24-May-2018 13:27:18,-32,0.961471428571429,0.112128571428571,-0.0420428571428571,56.8,5.2564,-5.03,458.4735,0.8304,-0.52782,-0.29332,-103.116666666667,45.0166666666667,-58.3333333333333,102.7628,-1.02765,0.03635,-0.00535,-65.425,-35.345,3.08,0.05,-0.960416666666667,-0.171733333333333,0.106283333333333,-4.25971428571429,4.38142857142857,0.322142857142859,624.971666666667,1,1,0,1
