TIME,HELMET_RAW,BELT_ACC_X,BELT_ACC_Y,BELT_ACC_Z,BELT_ANG_X,BELT_ANG_Y,BELT_ANG_Z,BELT_LUMINOSITY,NECK_ACC_X,NECK_ACC_Y,NECK_ACC_Z,NECK_ANG_X,NECK_ANG_Y,NECK_ANG_Z,NECK_LUMINOSITY,PCKT_ACC_X,PCKT_ACC_Y,PCKT_ACC_Z,PCKT_ANG_X,PCKT_ANG_Y,PCKT_ANG_Z,PCKT_LUMINOSITY,WRST_ACC_X,WRST_ACC_Y,WRST_ACC_Z,WRST_ANG_X,WRST_ANG_Y,WRST_ANG_Z,WRST_LUMINOSITY,IR_1,IR_2,IR_3,IR_4
24-May-2018 12:42:04,52,0.358933333333333,-0.08915,-0.894366666666667,0.564375,-0.028375,0.488,75.8186666666667,-0.885075,0.063725,-0.543225,0.3121,-3.3506,-0.7916,51.864,0.0473,-0.72012,0.78168,0.53425,-1.17,0.29,6.50275,-0.114483333333333,-0.262633333333333,-0.975633333333333,0.6464,0.4634,0.2074,185.622,0,0,1,1
24-May-2018 12:42:04,52,0.358933333333333,-0.08915,-0.894366666666667,0.564375,-0.028375,0.488,75.8186666666667,-0.885075,0.063725,-0.543225,0.3121,-3.3506,-0.7916,51.864,0.0473,-0.72012,0.78168,0.53425,-1.17,0.29,6.50275,-0.114483333333333,-0.262633333333333,-0.975633333333333,0.6464,0.4634,0.2074,185.622,0,0,1,1
24-May-2018 12:42:04,52,0.358933333333333,-0.08915,-0.894366666666667,0.564375,-0.028375,0.488,75.8186666666667,-0.885075,0.063725,-0.543225,0.3121,-3.3506,-0.7916,51.864,0.0473,-0.72012,0.78168,0.53425,-1.17,0.29,6.50275,-0.114483333333333,-0.262633333333333,-0.975633333333333,0.6464,0.4634,0.2074,185.622,0,0,1,1
24-May-2018 12:42:04,52,0.358933333333333,-0.08915,-0.894366666666667,0.564375,-0.028375,0.488,75.8186666666667,-0.885075,0.063725,-0.543225,0.3121,-3.3506,-0.7916,51.864,0.0473,-0.72012,0.78168,0.53425,-1.17,0.29,6.50275,-0.114483333333333,-0.262633333333333,-0.975633333333333,0.6464,0.4634,0.2074,0,0,0,1,1
24-May-2018 12:42:05,52,0.356742857142857,-0.0980857142857143,-0.889728571428571,1.19385714285714,0.515142857142857,0.522857142857143,74.8766666666667,-0.894933333333333,0.0659,-0.518766666666667,4.27511111111111,-1.91411111111111,2.40511111111111,64.388,0.04104,-0.7064,0.79588,0.2965,-0.250833333333333,-0.0485,6.547,-0.117883333333333,-0.25695,-0.97875,-0.09175,0.244,-0.244,165.291,0,0,1,1
24-May-2018 12:42:05,52,0.356742857142857,-0.0980857142857143,-0.889728571428571,1.19385714285714,0.515142857142857,0.522857142857143,74.8766666666667,-0.894933333333333,0.0659,-0.518766666666667,4.27511111111111,-1.91411111111111,2.40511111111111,64.388,0.04104,-0.7064,0.79588,0.2965,-0.250833333333333,-0.0485,6.547,-0.117883333333333,-0.25695,-0.97875,-0.09175,0.244,-0.244,165.291,0,0,1,1
24-May-2018 12:42:05,52,0.356742857142857,-0.0980857142857143,-0.889728571428571,1.19385714285714,0.515142857142857,0.522857142857143,74.8766666666667,-0.894933333333333,0.0659,-0.518766666666667,4.27511111111111,-1.91411111111111,2.40511111111111,64.388,0.04104,-0.7064,0.79588,0.2965,-0.250833333333333,-0.0485,6.547,-0.117883333333333,-0.25695,-0.97875,-0.09175,0.244,-0.244,165.291,0,0,1,1
24-May-2018 12:42:05,52,0.356742857142857,-0.0980857142857143,-0.889728571428571,1.19385714285714,0.515142857142857,0.522857142857143,74.8766666666667,-0.894933333333333,0.0659,-0.518766666666667,4.27511111111111,-1.91411111111111,2.40511111111111,64.388,0.04104,-0.7064,0.79588,0.2965,-0.250833333333333,-0.0485,6.547,-0.117883333333333,-0.25695,-0.97875,-0.09175,0.244,-0.244,165.291,0,0,1,1
24-May-2018 12:42:06,51.9,0.360285714285714,-0.0941571428571428,-0.887757142857143,0.0621666666666667,1.24,0.437166666666667,74.9325,-0.89884,0.06266,-0.51472,9.70055555555556,-3.09288888888889,4.89844444444444,61.388,0.032,-0.696066666666667,0.807333333333334,-0.56,-0.9125,-0.105,6.577,-0.121342857142857,-0.258814285714286,-0.979571428571428,-0.325166666666667,0.538833333333333,-0.284666666666667,160.581,0,1,1,1
24-May-2018 12:42:06,51.9,0.360285714285714,-0.0941571428571428,-0.887757142857143,0.0621666666666667,1.24,0.437166666666667,74.9325,-0.89884,0.06266,-0.51472,9.70055555555556,-3.09288888888889,4.89844444444444,61.388,0.032,-0.696066666666667,0.807333333333334,-0.56,-0.9125,-0.105,6.577,-0.121342857142857,-0.258814285714286,-0.979571428571428,-0.325166666666667,0.538833333333333,-0.284666666666667,160.581,0,1,1,1
24-May-2018 12:42:06,51.9,0.360285714285714,-0.0941571428571428,-0.887757142857143,0.0621666666666667,1.24,0.437166666666667,74.9325,-0.89884,0.06266,-0.51472,9.70055555555556,-3.09288888888889,4.89844444444444,61.388,0.032,-0.696066666666667,0.807333333333334,-0.56,-0.9125,-0.105,6.577,-0.121342857142857,-0.258814285714286,-0.979571428571428,-0.325166666666667,0.538833333333333,-0.284666666666667,160.581,0,1,1,1
24-May-2018 12:42:06,51.9,0.360285714285714,-0.0941571428571428,-0.887757142857143,0.0621666666666667,1.24,0.437166666666667,74.9325,-0.89884,0.06266,-0.51472,9.70055555555556,-3.09288888888889,4.89844444444444,61.388,0.032,-0.696066666666667,0.807333333333334,-0.56,-0.9125,-0.105,6.577,-0.121342857142857,-0.258814285714286,-0.979571428571428,-0.325166666666667,0.538833333333333,-0.284666666666667,160.581,0,1,1,1
24-May-2018 12:42:07,52,0.3632,-0.0882142857142857,-0.889957142857143,0.5738,-0.1674,0.2684,75.8736666666667,-0.904975,0.0671,-0.50315,4.18077777777778,-3.43222222222222,2.34755555555556,59.888,0.02715,-0.6726,0.75235,-12.3766666666667,9.47,-0.912666666666667,6.6245,-0.401333333333333,-0.295066666666667,-0.292033333333333,-138.39625,295.869,95.9605,376.99775,0,0,1,1
24-May-2018 12:42:07,52,0.3632,-0.0882142857142857,-0.889957142857143,0.5738,-0.1674,0.2684,75.8736666666667,-0.904975,0.0671,-0.50315,4.18077777777778,-3.43222222222222,2.34755555555556,59.888,0.02715,-0.6726,0.75235,-12.3766666666667,9.47,-0.912666666666667,6.6245,-0.401333333333333,-0.295066666666667,-0.292033333333333,-138.39625,295.869,95.9605,376.99775,0,0,1,1
24-May-2018 12:42:07,52,0.3632,-0.0882142857142857,-0.889957142857143,0.5738,-0.1674,0.2684,75.8736666666667,-0.904975,0.0671,-0.50315,4.18077777777778,-3.43222222222222,2.34755555555556,59.888,0.02715,-0.6726,0.75235,-12.3766666666667,9.47,-0.912666666666667,6.6245,-0.401333333333333,-0.295066666666667,-0.292033333333333,-138.39625,295.869,95.9605,376.99775,0,0,1,1
24-May-2018 12:42:07,52,0.3632,-0.0882142857142857,-0.889957142857143,0.5738,-0.1674,0.2684,75.8736666666667,-0.904975,0.0671,-0.50315,4.18077777777778,-3.43222222222222,2.34755555555556,59.888,0.02715,-0.6726,0.75235,-12.3766666666667,9.47,-0.912666666666667,6.6245,-0.401333333333333,-0.295066666666667,-0.292033333333333,-138.39625,295.869,95.9605,376.99775,0,0,1,1
24-May-2018 12:42:08,51.8,0.36555,-0.0904166666666667,-0.894866666666667,1.42871428571429,-2.08385714285714,1.09771428571429,75.954,-0.908325,0.0678,-0.491,-7.99,1.2442,-1.753,50.809,0.20885,-0.451666666666667,0.813383333333333,49.8725,-29.325,-82.575,3.50533333333333,-0.895666666666667,-0.104866666666667,0.162183333333333,-24.6138333333333,87.4595,19.4826666666667,376.99775,0,0,1,1
24-May-2018 12:42:08,51.8,0.36555,-0.0904166666666667,-0.894866666666667,1.42871428571429,-2.08385714285714,1.09771428571429,75.954,-0.908325,0.0678,-0.491,-7.99,1.2442,-1.753,50.809,0.20885,-0.451666666666667,0.813383333333333,49.8725,-29.325,-82.575,3.50533333333333,-0.895666666666667,-0.104866666666667,0.162183333333333,-24.6138333333333,87.4595,19.4826666666667,376.99775,0,0,1,1
24-May-2018 12:42:08,51.8,0.36555,-0.0904166666666667,-0.894866666666667,1.42871428571429,-2.08385714285714,1.09771428571429,75.954,-0.908325,0.0678,-0.491,-7.99,1.2442,-1.753,50.809,0.20885,-0.451666666666667,0.813383333333333,49.8725,-29.325,-82.575,3.50533333333333,-0.895666666666667,-0.104866666666667,0.162183333333333,-24.6138333333333,87.4595,19.4826666666667,376.99775,0,0,1,1
24-May-2018 12:42:08,51.8,0.36555,-0.0904166666666667,-0.894866666666667,1.42871428571429,-2.08385714285714,1.09771428571429,75.954,-0.908325,0.0678,-0.491,-7.99,1.2442,-1.753,50.809,0.20885,-0.451666666666667,0.813383333333333,49.8725,-29.325,-82.575,3.50533333333333,-0.895666666666667,-0.104866666666667,0.162183333333333,-24.6138333333333,87.4595,19.4826666666667,0,0,0,1,1
24-May-2018 12:42:09,52,0.479511111111111,-0.1295,-0.7572,-6.99314285714286,30.8542857142857,-5.58028571428571,75.954,-0.90718,0.09232,-0.49716,-4.38611111111111,1.01788888888889,-0.349222222222222,57.408,0.803866666666667,-0.1186,0.6846,5.466,-22.98,-26.7,1.1815,-0.996866666666667,0.0267166666666667,-0.533516666666667,-19.837,-13.149,-31.1573333333333,265.152,1,1,1,1
24-May-2018 12:42:09,52,0.479511111111111,-0.1295,-0.7572,-6.99314285714286,30.8542857142857,-5.58028571428571,75.954,-0.90718,0.09232,-0.49716,-4.38611111111111,1.01788888888889,-0.349222222222222,57.408,0.803866666666667,-0.1186,0.6846,5.466,-22.98,-26.7,1.1815,-0.996866666666667,0.0267166666666667,-0.533516666666667,-19.837,-13.149,-31.1573333333333,265.152,1,1,1,1
24-May-2018 12:42:09,52,0.479511111111111,-0.1295,-0.7572,-6.99314285714286,30.8542857142857,-5.58028571428571,75.954,-0.90718,0.09232,-0.49716,-4.38611111111111,1.01788888888889,-0.349222222222222,57.408,0.803866666666667,-0.1186,0.6846,5.466,-22.98,-26.7,1.1815,-0.996866666666667,0.0267166666666667,-0.533516666666667,-19.837,-13.149,-31.1573333333333,265.152,1,1,1,1
24-May-2018 12:42:09,52,0.479511111111111,-0.1295,-0.7572,-6.99314285714286,30.8542857142857,-5.58028571428571,75.954,-0.90718,0.09232,-0.49716,-4.38611111111111,1.01788888888889,-0.349222222222222,57.408,0.803866666666667,-0.1186,0.6846,5.466,-22.98,-26.7,1.1815,-0.996866666666667,0.0267166666666667,-0.533516666666667,-19.837,-13.149,-31.1573333333333,265.152,1,1,1,1
24-May-2018 12:42:10,52,0.85658,0.01928,-0.3112,-9.0675,175.9385,-0.848,75.954,-0.906866666666667,0.0959666666666667,-0.497266666666667,0.1855,2.5025,-1.72,57.408,0.848325,0.502475,0.282825,21.89,-4.135,4.345,1.641,-0.8146,0.273,0.2151,-64.20625,-36.11275,-37.195,764.985,1,1,1,1
24-May-2018 12:42:10,52,0.85658,0.01928,-0.3112,-9.0675,175.9385,-0.848,75.954,-0.906866666666667,0.0959666666666667,-0.497266666666667,0.1855,2.5025,-1.72,57.408,0.848325,0.502475,0.282825,21.89,-4.135,4.345,1.641,-0.8146,0.273,0.2151,-64.20625,-36.11275,-37.195,764.985,1,1,1,1
24-May-2018 12:42:10,52,0.85658,0.01928,-0.3112,-9.0675,175.9385,-0.848,75.954,-0.906866666666667,0.0959666666666667,-0.497266666666667,0.1855,2.5025,-1.72,57.408,0.848325,0.502475,0.282825,21.89,-4.135,4.345,1.641,-0.8146,0.273,0.2151,-64.20625,-36.11275,-37.195,764.985,1,1,1,1
24-May-2018 12:42:10,52,0.85658,0.01928,-0.3112,-9.0675,175.9385,-0.848,75.954,-0.906866666666667,0.0959666666666667,-0.497266666666667,0.1855,2.5025,-1.72,57.408,0.848325,0.502475,0.282825,21.89,-4.135,4.345,1.641,-0.8146,0.273,0.2151,-64.20625,-36.11275,-37.195,764.985,1,1,1,1
24-May-2018 12:42:11,52,0.7053,0.101475,0.4000875,-13.7061111111111,-8.54511111111111,3.58844444444445,75.954,-0.90082,0.04964,-0.4929,11.641625,-3.99875,-2.915625,57.408,0.890133333333333,0.0654666666666667,0.232,-6.42533333333333,-4.03333333333333,14.6066666666667,3.4398,-0.847216666666667,-0.0782666666666667,0.242316666666667,32.4312857142857,4.34671428571428,1.43714285714286,903.916,1,1,1,1
24-May-2018 12:42:11,52,0.7053,0.101475,0.4000875,-13.7061111111111,-8.54511111111111,3.58844444444445,75.954,-0.90082,0.04964,-0.4929,11.641625,-3.99875,-2.915625,57.408,0.890133333333333,0.0654666666666667,0.232,-6.42533333333333,-4.03333333333333,14.6066666666667,3.4398,-0.847216666666667,-0.0782666666666667,0.242316666666667,32.4312857142857,4.34671428571428,1.43714285714286,903.916,1,1,1,1
24-May-2018 12:42:11,52,0.7053,0.101475,0.4000875,-13.7061111111111,-8.54511111111111,3.58844444444445,75.954,-0.90082,0.04964,-0.4929,11.641625,-3.99875,-2.915625,57.408,0.890133333333333,0.0654666666666667,0.232,-6.42533333333333,-4.03333333333333,14.6066666666667,3.4398,-0.847216666666667,-0.0782666666666667,0.242316666666667,32.4312857142857,4.34671428571428,1.43714285714286,903.916,1,1,1,1
24-May-2018 12:42:11,52,0.7053,0.101475,0.4000875,-13.7061111111111,-8.54511111111111,3.58844444444445,75.954,-0.90082,0.04964,-0.4929,11.641625,-3.99875,-2.915625,57.408,0.890133333333333,0.0654666666666667,0.232,-6.42533333333333,-4.03333333333333,14.6066666666667,3.4398,-0.847216666666667,-0.0782666666666667,0.242316666666667,32.4312857142857,4.34671428571428,1.43714285714286,903.916,1,1,1,1
24-May-2018 12:42:12,52,0.908114285714286,-0.0798571428571429,0.336942857142857,-1.3798,-5.612,-0.6088,20.3315,-0.909633333333333,0.0173166666666667,-0.4988,14.7531428571429,4.68685714285714,2.73514285714286,64.148,0.882566666666667,0.186766666666667,0.4837,-11.047,3.64175,-2.8165,4.6705,-0.9035,-0.07245,0.257375,-11.7926,-2.7316,-4.683,982.473,1,1,1,1
24-May-2018 12:42:12,52,0.908114285714286,-0.0798571428571429,0.336942857142857,-1.3798,-5.612,-0.6088,20.3315,-0.909633333333333,0.0173166666666667,-0.4988,14.7531428571429,4.68685714285714,2.73514285714286,64.148,0.882566666666667,0.186766666666667,0.4837,-11.047,3.64175,-2.8165,4.6705,-0.9035,-0.07245,0.257375,-11.7926,-2.7316,-4.683,982.473,1,1,1,1
24-May-2018 12:42:12,52,0.908114285714286,-0.0798571428571429,0.336942857142857,-1.3798,-5.612,-0.6088,20.3315,-0.909633333333333,0.0173166666666667,-0.4988,14.7531428571429,4.68685714285714,2.73514285714286,64.148,0.882566666666667,0.186766666666667,0.4837,-11.047,3.64175,-2.8165,4.6705,-0.9035,-0.07245,0.257375,-11.7926,-2.7316,-4.683,982.473,1,1,1,1
24-May-2018 12:42:12,52,0.908114285714286,-0.0798571428571429,0.336942857142857,-1.3798,-5.612,-0.6088,20.3315,-0.909633333333333,0.0173166666666667,-0.4988,14.7531428571429,4.68685714285714,2.73514285714286,64.148,0.882566666666667,0.186766666666667,0.4837,-11.047,3.64175,-2.8165,4.6705,-0.9035,-0.07245,0.257375,-11.7926,-2.7316,-4.683,982.473,1,1,1,1
24-May-2018 12:42:13,52,0.927016666666667,-0.0476666666666667,0.2917,7.4315,-0.34475,-0.92,19.5343333333333,-0.9005,0.02345,-0.499175,5.4076,1.3265,0.8439,64.148,0.867966666666667,0.1817,0.489566666666667,5.99075,0.51975,5.305,3.946,-0.87184,-0.21556,0.13652,-11.8801666666667,10.8435,-24.319,942.478666666667,1,1,1,0
24-May-2018 12:42:13,52,0.927016666666667,-0.0476666666666667,0.2917,7.4315,-0.34475,-0.92,19.5343333333333,-0.9005,0.02345,-0.499175,5.4076,1.3265,0.8439,64.148,0.867966666666667,0.1817,0.489566666666667,5.99075,0.51975,5.305,3.946,-0.87184,-0.21556,0.13652,-11.8801666666667,10.8435,-24.319,942.478666666667,1,1,1,0
24-May-2018 12:42:13,52,0.927016666666667,-0.0476666666666667,0.2917,7.4315,-0.34475,-0.92,19.5343333333333,-0.9005,0.02345,-0.499175,5.4076,1.3265,0.8439,64.148,0.867966666666667,0.1817,0.489566666666667,5.99075,0.51975,5.305,3.946,-0.87184,-0.21556,0.13652,-11.8801666666667,10.8435,-24.319,942.478666666667,1,1,1,0
24-May-2018 12:42:13,52,0.927016666666667,-0.0476666666666667,0.2917,7.4315,-0.34475,-0.92,19.5343333333333,-0.9005,0.02345,-0.499175,5.4076,1.3265,0.8439,64.148,0.867966666666667,0.1817,0.489566666666667,5.99075,0.51975,5.305,3.946,-0.87184,-0.21556,0.13652,-11.8801666666667,10.8435,-24.319,942.478666666667,1,1,1,0
