TIME,HELMET_RAW,BELT_ACC_X,BELT_ACC_Y,BELT_ACC_Z,BELT_ANG_X,BELT_ANG_Y,BELT_ANG_Z,BELT_LUMINOSITY,NECK_ACC_X,NECK_ACC_Y,NECK_ACC_Z,NECK_ANG_X,NECK_ANG_Y,NECK_ANG_Z,NECK_LUMINOSITY,PCKT_ACC_X,PCKT_ACC_Y,PCKT_ACC_Z,PCKT_ANG_X,PCKT_ANG_Y,PCKT_ANG_Z,PCKT_LUMINOSITY,WRST_ACC_X,WRST_ACC_Y,WRST_ACC_Z,WRST_ANG_X,WRST_ANG_Y,WRST_ANG_Z,WRST_LUMINOSITY,IR_1,IR_2,IR_3,IR_4
24-May-2018 12:42:34,52,0.3576,-0.0592285714285714,-0.897685714285714,0.718125,0.55675,0.5185,75.6065,-0.92445,0.140225,-0.5059,28.91,18.605,3.6399,91.62375,0.0727,-0.7247,0.7776,-2.16,-1.116,-0.666666666666667,6.652,-0.0539333333333333,0.161916666666667,-1.00338333333333,1.26,0.0203333333333333,-0.111833333333333,77.591,1,1,1,1
24-May-2018 12:42:34,52,0.3576,-0.0592285714285714,-0.897685714285714,0.718125,0.55675,0.5185,75.6065,-0.92445,0.140225,-0.5059,28.91,18.605,3.6399,91.62375,0.0727,-0.7247,0.7776,-2.16,-1.116,-0.666666666666667,6.652,-0.0539333333333333,0.161916666666667,-1.00338333333333,1.26,0.0203333333333333,-0.111833333333333,77.591,1,1,1,1
24-May-2018 12:42:34,52,0.3576,-0.0592285714285714,-0.897685714285714,0.718125,0.55675,0.5185,75.6065,-0.92445,0.140225,-0.5059,28.91,18.605,3.6399,91.62375,0.0727,-0.7247,0.7776,-2.16,-1.116,-0.666666666666667,6.652,-0.0539333333333333,0.161916666666667,-1.00338333333333,1.26,0.0203333333333333,-0.111833333333333,77.591,1,1,1,1
24-May-2018 12:42:34,52,0.3576,-0.0592285714285714,-0.897685714285714,0.718125,0.55675,0.5185,75.6065,-0.92445,0.140225,-0.5059,28.91,18.605,3.6399,91.62375,0.0727,-0.7247,0.7776,-2.16,-1.116,-0.666666666666667,6.652,-0.0539333333333333,0.161916666666667,-1.00338333333333,1.26,0.0203333333333333,-0.111833333333333,77.591,1,1,1,1
24-May-2018 12:42:35,52,0.3613,-0.0647857142857143,-0.891057142857143,0.906,0.0468571428571429,0.357285714285714,76.3685,-0.88432,0.03478,-0.46234,22.76,3.16333333333333,-1.23488888888889,89.117,0.0896666666666667,-0.7475,0.745466666666667,-1.473,-1.565,-0.2585,6.623,-0.06058,0.15948,-1.0054,2.54066666666667,0.172833333333333,-0.5895,72.9936,1,1,1,1
24-May-2018 12:42:35,52,0.3613,-0.0647857142857143,-0.891057142857143,0.906,0.0468571428571429,0.357285714285714,76.3685,-0.88432,0.03478,-0.46234,22.76,3.16333333333333,-1.23488888888889,89.117,0.0896666666666667,-0.7475,0.745466666666667,-1.473,-1.565,-0.2585,6.623,-0.06058,0.15948,-1.0054,2.54066666666667,0.172833333333333,-0.5895,72.9936,1,1,1,1
24-May-2018 12:42:35,52,0.3613,-0.0647857142857143,-0.891057142857143,0.906,0.0468571428571429,0.357285714285714,76.3685,-0.88432,0.03478,-0.46234,22.76,3.16333333333333,-1.23488888888889,89.117,0.0896666666666667,-0.7475,0.745466666666667,-1.473,-1.565,-0.2585,6.623,-0.06058,0.15948,-1.0054,2.54066666666667,0.172833333333333,-0.5895,72.9936,1,1,1,1
24-May-2018 12:42:35,52,0.3613,-0.0647857142857143,-0.891057142857143,0.906,0.0468571428571429,0.357285714285714,76.3685,-0.88432,0.03478,-0.46234,22.76,3.16333333333333,-1.23488888888889,89.117,0.0896666666666667,-0.7475,0.745466666666667,-1.473,-1.565,-0.2585,6.623,-0.06058,0.15948,-1.0054,2.54066666666667,0.172833333333333,-0.5895,72.9936,1,1,1,1
24-May-2018 12:42:36,52,0.3611,-0.0598285714285714,-0.8966,0.219857142857143,-0.362428571428571,0.357285714285714,76.2446666666667,-0.897366666666667,-0.018,-0.473166666666667,9.72,-2.29542857142857,-15.6085714285714,89.117,0.0845666666666667,-0.736066666666667,0.758433333333333,1.38725,-0.85,0.2745,6.541,-0.060125,0.169725,-1.00615,0.376166666666667,0.904333333333333,-0.0406666666666667,69.6613333333333,0,1,1,0
24-May-2018 12:42:36,52,0.3611,-0.0598285714285714,-0.8966,0.219857142857143,-0.362428571428571,0.357285714285714,76.2446666666667,-0.897366666666667,-0.018,-0.473166666666667,9.72,-2.29542857142857,-15.6085714285714,89.117,0.0845666666666667,-0.736066666666667,0.758433333333333,1.38725,-0.85,0.2745,6.541,-0.060125,0.169725,-1.00615,0.376166666666667,0.904333333333333,-0.0406666666666667,69.6613333333333,0,1,1,0
24-May-2018 12:42:36,52,0.3611,-0.0598285714285714,-0.8966,0.219857142857143,-0.362428571428571,0.357285714285714,76.2446666666667,-0.897366666666667,-0.018,-0.473166666666667,9.72,-2.29542857142857,-15.6085714285714,89.117,0.0845666666666667,-0.736066666666667,0.758433333333333,1.38725,-0.85,0.2745,6.541,-0.060125,0.169725,-1.00615,0.376166666666667,0.904333333333333,-0.0406666666666667,69.6613333333333,0,1,1,0
24-May-2018 12:42:36,52,0.3611,-0.0598285714285714,-0.8966,0.219857142857143,-0.362428571428571,0.357285714285714,76.2446666666667,-0.897366666666667,-0.018,-0.473166666666667,9.72,-2.29542857142857,-15.6085714285714,89.117,0.0845666666666667,-0.736066666666667,0.758433333333333,1.38725,-0.85,0.2745,6.541,-0.060125,0.169725,-1.00615,0.376166666666667,0.904333333333333,-0.0406666666666667,69.6613333333333,0,1,1,0
24-May-2018 12:42:37,52.2,0.3603,-0.0556833333333333,-0.894583333333333,0.6,-0.0796666666666666,0.437166666666667,75.24275,-0.92556,-0.11624,-0.50952,-0.951000000000001,10.23425,-55.8125,87.11825,0.084575,-0.73345,0.773425,-4.574,-0.643,0.4778,6.6305,-0.2295,0.0603666666666667,-0.875516666666667,-68.79575,69.75625,30.54875,159.847666666667,1,1,1,0
24-May-2018 12:42:37,52.2,0.3603,-0.0556833333333333,-0.894583333333333,0.6,-0.0796666666666666,0.437166666666667,75.24275,-0.92556,-0.11624,-0.50952,-0.951000000000001,10.23425,-55.8125,87.11825,0.084575,-0.73345,0.773425,-4.574,-0.643,0.4778,6.6305,-0.2295,0.0603666666666667,-0.875516666666667,-68.79575,69.75625,30.54875,159.847666666667,1,1,1,0
24-May-2018 12:42:37,52.2,0.3603,-0.0556833333333333,-0.894583333333333,0.6,-0.0796666666666666,0.437166666666667,75.24275,-0.92556,-0.11624,-0.50952,-0.951000000000001,10.23425,-55.8125,87.11825,0.084575,-0.73345,0.773425,-4.574,-0.643,0.4778,6.6305,-0.2295,0.0603666666666667,-0.875516666666667,-68.79575,69.75625,30.54875,159.847666666667,1,1,1,0
24-May-2018 12:42:37,52.2,0.3603,-0.0556833333333333,-0.894583333333333,0.6,-0.0796666666666666,0.437166666666667,75.24275,-0.92556,-0.11624,-0.50952,-0.951000000000001,10.23425,-55.8125,87.11825,0.084575,-0.73345,0.773425,-4.574,-0.643,0.4778,6.6305,-0.2295,0.0603666666666667,-0.875516666666667,-68.79575,69.75625,30.54875,159.847666666667,1,1,1,0
24-May-2018 12:42:38,52,0.196733333333333,-0.1179,-0.903616666666667,2.6106,6.6624,-3.8806,73.9785,-0.800825,-0.22685,-0.575225,-29.61,3.4309,-61.18,86.452,0.158585714285714,-0.636014285714286,0.828128571428571,13.7075,-27.835,-41.885,3.77433333333333,-0.747466666666667,-0.189866666666667,0.6626,37.2358333333333,128.577166666667,-1.67416666666667,956.522,0,0,1,1
24-May-2018 12:42:38,52,0.196733333333333,-0.1179,-0.903616666666667,2.6106,6.6624,-3.8806,73.9785,-0.800825,-0.22685,-0.575225,-29.61,3.4309,-61.18,86.452,0.158585714285714,-0.636014285714286,0.828128571428571,13.7075,-27.835,-41.885,3.77433333333333,-0.747466666666667,-0.189866666666667,0.6626,37.2358333333333,128.577166666667,-1.67416666666667,956.522,0,0,1,1
24-May-2018 12:42:38,52,0.196733333333333,-0.1179,-0.903616666666667,2.6106,6.6624,-3.8806,73.9785,-0.800825,-0.22685,-0.575225,-29.61,3.4309,-61.18,86.452,0.158585714285714,-0.636014285714286,0.828128571428571,13.7075,-27.835,-41.885,3.77433333333333,-0.747466666666667,-0.189866666666667,0.6626,37.2358333333333,128.577166666667,-1.67416666666667,956.522,0,0,1,1
24-May-2018 12:42:38,52,0.196733333333333,-0.1179,-0.903616666666667,2.6106,6.6624,-3.8806,73.9785,-0.800825,-0.22685,-0.575225,-29.61,3.4309,-61.18,86.452,0.158585714285714,-0.636014285714286,0.828128571428571,13.7075,-27.835,-41.885,3.77433333333333,-0.747466666666667,-0.189866666666667,0.6626,37.2358333333333,128.577166666667,-1.67416666666667,956.522,0,0,1,1
24-May-2018 12:42:39,52,0.55184,-0.05806,-0.80392,-0.421999999999999,5.42016666666667,-7.18433333333333,9.244,-0.82394,-0.34186,-0.51538,-24.2157142857143,-19.1328571428571,-40.3714285714286,86.452,0.833528571428571,-0.0627571428571428,0.508428571428571,29.0975,-83.275,-76.825,1.588,-1.34755,-0.0986333333333333,0.00523333333333335,-26.01925,-57.27075,-12.8505,563,0,0,1,1
24-May-2018 12:42:39,52,0.55184,-0.05806,-0.80392,-0.421999999999999,5.42016666666667,-7.18433333333333,9.244,-0.82394,-0.34186,-0.51538,-24.2157142857143,-19.1328571428571,-40.3714285714286,86.452,0.833528571428571,-0.0627571428571428,0.508428571428571,29.0975,-83.275,-76.825,1.588,-1.34755,-0.0986333333333333,0.00523333333333335,-26.01925,-57.27075,-12.8505,563,0,0,1,1
24-May-2018 12:42:39,52,0.55184,-0.05806,-0.80392,-0.421999999999999,5.42016666666667,-7.18433333333333,9.244,-0.82394,-0.34186,-0.51538,-24.2157142857143,-19.1328571428571,-40.3714285714286,86.452,0.833528571428571,-0.0627571428571428,0.508428571428571,29.0975,-83.275,-76.825,1.588,-1.34755,-0.0986333333333333,0.00523333333333335,-26.01925,-57.27075,-12.8505,563,0,0,1,1
24-May-2018 12:42:39,52,0.55184,-0.05806,-0.80392,-0.421999999999999,5.42016666666667,-7.18433333333333,9.244,-0.82394,-0.34186,-0.51538,-24.2157142857143,-19.1328571428571,-40.3714285714286,86.452,0.833528571428571,-0.0627571428571428,0.508428571428571,29.0975,-83.275,-76.825,1.588,-1.34755,-0.0986333333333333,0.00523333333333335,-26.01925,-57.27075,-12.8505,563,0,0,1,1
24-May-2018 12:42:40,52,0.6119,0.0104,-0.3817,6.493,2.82,2.8328,9.244,-0.80635,-0.39545,-0.520025,-21.275,5.06825,-9.30125,98.384,0.73488,0.32146,0.22718,10.4683333333333,26.8675,17.955,3.1616,-0.924575,0.236175,0.7429,-59.2804,123.9028,-10.3032,661.381666666667,0,0,1,1
24-May-2018 12:42:40,52,0.6119,0.0104,-0.3817,6.493,2.82,2.8328,9.244,-0.80635,-0.39545,-0.520025,-21.275,5.06825,-9.30125,98.384,0.73488,0.32146,0.22718,10.4683333333333,26.8675,17.955,3.1616,-0.924575,0.236175,0.7429,-59.2804,123.9028,-10.3032,661.381666666667,0,0,1,1
24-May-2018 12:42:40,52,0.6119,0.0104,-0.3817,6.493,2.82,2.8328,9.244,-0.80635,-0.39545,-0.520025,-21.275,5.06825,-9.30125,98.384,0.73488,0.32146,0.22718,10.4683333333333,26.8675,17.955,3.1616,-0.924575,0.236175,0.7429,-59.2804,123.9028,-10.3032,661.381666666667,0,0,1,1
24-May-2018 12:42:40,52,0.6119,0.0104,-0.3817,6.493,2.82,2.8328,9.244,-0.80635,-0.39545,-0.520025,-21.275,5.06825,-9.30125,98.384,0.73488,0.32146,0.22718,10.4683333333333,26.8675,17.955,3.1616,-0.924575,0.236175,0.7429,-59.2804,123.9028,-10.3032,661.381666666667,0,0,1,1
24-May-2018 12:42:41,52,0.7941375,-0.0688625,0.3680125,-14.8255,-17.011375,-6.558375,9.244,-0.750925,-0.389325,-0.578125,-32.9571428571429,2.607,-24.7285714285714,94.6314,0.843314285714286,0.162185714285714,0.472842857142857,-4.50783333333333,0.133333333333333,-4.0985,5.90733333333333,-0.833166666666667,-0.367783333333333,0.180316666666667,3.6708,-3.7072,-10.9636,794.4866,1,1,1,1
24-May-2018 12:42:41,52,0.7941375,-0.0688625,0.3680125,-14.8255,-17.011375,-6.558375,9.244,-0.750925,-0.389325,-0.578125,-32.9571428571429,2.607,-24.7285714285714,94.6314,0.843314285714286,0.162185714285714,0.472842857142857,-4.50783333333333,0.133333333333333,-4.0985,5.90733333333333,-0.833166666666667,-0.367783333333333,0.180316666666667,3.6708,-3.7072,-10.9636,794.4866,1,1,1,1
24-May-2018 12:42:41,52,0.7941375,-0.0688625,0.3680125,-14.8255,-17.011375,-6.558375,0,-0.750925,-0.389325,-0.578125,-32.9571428571429,2.607,-24.7285714285714,94.6314,0.843314285714286,0.162185714285714,0.472842857142857,-4.50783333333333,0.133333333333333,-4.0985,5.90733333333333,-0.833166666666667,-0.367783333333333,0.180316666666667,3.6708,-3.7072,-10.9636,794.4866,1,1,1,1
24-May-2018 12:42:41,52,0.7941375,-0.0688625,0.3680125,-14.8255,-17.011375,-6.558375,0,-0.750925,-0.389325,-0.578125,-32.9571428571429,2.607,-24.7285714285714,94.6314,0.843314285714286,0.162185714285714,0.472842857142857,-4.50783333333333,0.133333333333333,-4.0985,5.90733333333333,-0.833166666666667,-0.367783333333333,0.180316666666667,3.6708,-3.7072,-10.9636,794.4866,1,1,1,1
24-May-2018 12:42:42,52.1428571428571,0.918983333333333,-0.0785833333333333,0.329433333333333,8.25183333333333,-0.907166666666667,-0.79,14.245,-0.787516666666667,-0.23165,-0.698566666666667,-42.25,-13.16,-48.1375,79.621,0.933075,0.182675,0.37605,2.03,-2.51425,-0.61,4.6095,-0.681775,-0.61125,0.287825,25.304875,-12.423625,-3.506,794.4866,1,1,1,1
24-May-2018 12:42:42,52.1428571428571,0.918983333333333,-0.0785833333333333,0.329433333333333,8.25183333333333,-0.907166666666667,-0.79,14.245,-0.787516666666667,-0.23165,-0.698566666666667,-42.25,-13.16,-48.1375,79.621,0.933075,0.182675,0.37605,2.03,-2.51425,-0.61,4.6095,-0.681775,-0.61125,0.287825,25.304875,-12.423625,-3.506,794.4866,1,1,1,1
24-May-2018 12:42:42,52.1428571428571,0.918983333333333,-0.0785833333333333,0.329433333333333,8.25183333333333,-0.907166666666667,-0.79,14.245,-0.787516666666667,-0.23165,-0.698566666666667,-42.25,-13.16,-48.1375,79.621,0.933075,0.182675,0.37605,2.03,-2.51425,-0.61,4.6095,-0.681775,-0.61125,0.287825,25.304875,-12.423625,-3.506,794.4866,1,1,1,1
24-May-2018 12:42:42,52.1428571428571,0.918983333333333,-0.0785833333333333,0.329433333333333,8.25183333333333,-0.907166666666667,-0.79,14.245,-0.787516666666667,-0.23165,-0.698566666666667,-42.25,-13.16,-48.1375,79.621,0.933075,0.182675,0.37605,2.03,-2.51425,-0.61,4.6095,-0.681775,-0.61125,0.287825,25.304875,-12.423625,-3.506,0,1,1,1,1
24-May-2018 12:42:43,52,0.937,-0.00406,0.2739,-8.42916666666667,-1.02,-1.926,11.8783333333333,-0.70564,-0.20924,-0.6738,-63.3555555555556,-21.0222222222222,-31.6555555555556,79.621,0.860785714285714,0.132928571428571,0.493342857142857,-6.708,0.294333333333333,-0.749833333333333,3.673,-0.7714,-0.3525,0.33375,-0.0762499999999999,22.9115,9.35975,983.2475,1,1,1,1
24-May-2018 12:42:43,52,0.937,-0.00406,0.2739,-8.42916666666667,-1.02,-1.926,11.8783333333333,-0.70564,-0.20924,-0.6738,-63.3555555555556,-21.0222222222222,-31.6555555555556,79.621,0.860785714285714,0.132928571428571,0.493342857142857,-6.708,0.294333333333333,-0.749833333333333,3.673,-0.7714,-0.3525,0.33375,-0.0762499999999999,22.9115,9.35975,983.2475,1,1,1,1
24-May-2018 12:42:43,52,0.937,-0.00406,0.2739,-8.42916666666667,-1.02,-1.926,11.8783333333333,-0.70564,-0.20924,-0.6738,-63.3555555555556,-21.0222222222222,-31.6555555555556,79.621,0.860785714285714,0.132928571428571,0.493342857142857,-6.708,0.294333333333333,-0.749833333333333,3.673,-0.7714,-0.3525,0.33375,-0.0762499999999999,22.9115,9.35975,983.2475,1,1,1,1
24-May-2018 12:42:43,52,0.937,-0.00406,0.2739,-8.42916666666667,-1.02,-1.926,11.8783333333333,-0.70564,-0.20924,-0.6738,-63.3555555555556,-21.0222222222222,-31.6555555555556,79.621,0.860785714285714,0.132928571428571,0.493342857142857,-6.708,0.294333333333333,-0.749833333333333,3.673,-0.7714,-0.3525,0.33375,-0.0762499999999999,22.9115,9.35975,983.2475,1,1,1,1
