TIME,HELMET_RAW,BELT_ACC_X,BELT_ACC_Y,BELT_ACC_Z,BELT_ANG_X,BELT_ANG_Y,BELT_ANG_Z,BELT_LUMINOSITY,NECK_ACC_X,NECK_ACC_Y,NECK_ACC_Z,NECK_ANG_X,NECK_ANG_Y,NECK_ANG_Z,NECK_LUMINOSITY,PCKT_ACC_X,PCKT_ACC_Y,PCKT_ACC_Z,PCKT_ANG_X,PCKT_ANG_Y,PCKT_ANG_Z,PCKT_LUMINOSITY,WRST_ACC_X,WRST_ACC_Y,WRST_ACC_Z,WRST_ANG_X,WRST_ANG_Y,WRST_ANG_Z,WRST_LUMINOSITY,IR_1,IR_2,IR_3,IR_4
24-May-2018 12:42:18,51.9,0.403775,-0.062625,-0.8735875,0.394666666666667,0.942555555555555,0.339,78.3613333333333,-0.91476,0.077,-0.4688,-12.4111111111111,-4.57444444444444,0.0683333333333336,53.777,0.0778,-0.7804,0.71675,1.05716666666667,-0.707,0.284666666666667,6.82,-0.0508666666666667,0.3004,-0.9737,0.1464,-0.61,0.2684,137.3885,1,1,1,1
24-May-2018 12:42:18,51.9,0.403775,-0.062625,-0.8735875,0.394666666666667,0.942555555555555,0.339,78.3613333333333,-0.91476,0.077,-0.4688,-12.4111111111111,-4.57444444444444,0.0683333333333336,53.777,0.0778,-0.7804,0.71675,1.05716666666667,-0.707,0.284666666666667,6.82,-0.0508666666666667,0.3004,-0.9737,0.1464,-0.61,0.2684,137.3885,1,1,1,1
24-May-2018 12:42:18,51.9,0.403775,-0.062625,-0.8735875,0.394666666666667,0.942555555555555,0.339,78.3613333333333,-0.91476,0.077,-0.4688,-12.4111111111111,-4.57444444444444,0.0683333333333336,53.777,0.0778,-0.7804,0.71675,1.05716666666667,-0.707,0.284666666666667,6.82,-0.0508666666666667,0.3004,-0.9737,0.1464,-0.61,0.2684,137.3885,1,1,1,1
24-May-2018 12:42:18,51.9,0.403775,-0.062625,-0.8735875,0.394666666666667,0.942555555555555,0.339,78.3613333333333,-0.91476,0.077,-0.4688,-12.4111111111111,-4.57444444444444,0.0683333333333336,53.777,0.0778,-0.7804,0.71675,1.05716666666667,-0.707,0.284666666666667,6.82,-0.0508666666666667,0.3004,-0.9737,0.1464,-0.61,0.2684,137.3885,1,1,1,1
24-May-2018 12:42:19,51.875,0.409844444444444,-0.0589222222222222,-0.869311111111111,0.389,-0.104625,0.3355,78.3613333333333,-0.9291,0.07105,-0.4407,-4.95022222222222,-3.35755555555556,0.360888888888889,59.872,0.06668,-0.75664,0.73984,0.375571428571429,-0.545714285714286,0.0174285714285714,6.8814,-0.059275,0.28995,-0.97815,2.3782,0.3416,0.1708,119.590666666667,1,1,1,1
24-May-2018 12:42:19,51.875,0.409844444444444,-0.0589222222222222,-0.869311111111111,0.389,-0.104625,0.3355,78.3613333333333,-0.9291,0.07105,-0.4407,-4.95022222222222,-3.35755555555556,0.360888888888889,59.872,0.06668,-0.75664,0.73984,0.375571428571429,-0.545714285714286,0.0174285714285714,6.8814,-0.059275,0.28995,-0.97815,2.3782,0.3416,0.1708,119.590666666667,1,1,1,1
24-May-2018 12:42:19,51.875,0.409844444444444,-0.0589222222222222,-0.869311111111111,0.389,-0.104625,0.3355,78.3613333333333,-0.9291,0.07105,-0.4407,-4.95022222222222,-3.35755555555556,0.360888888888889,59.872,0.06668,-0.75664,0.73984,0.375571428571429,-0.545714285714286,0.0174285714285714,6.8814,-0.059275,0.28995,-0.97815,2.3782,0.3416,0.1708,119.590666666667,1,1,1,1
24-May-2018 12:42:19,51.875,0.409844444444444,-0.0589222222222222,-0.869311111111111,0.389,-0.104625,0.3355,78.3613333333333,-0.9291,0.07105,-0.4407,-4.95022222222222,-3.35755555555556,0.360888888888889,59.872,0.06668,-0.75664,0.73984,0.375571428571429,-0.545714285714286,0.0174285714285714,6.8814,-0.059275,0.28995,-0.97815,2.3782,0.3416,0.1708,119.590666666667,1,1,1,1
24-May-2018 12:42:20,52,0.411071428571429,-0.0600285714285714,-0.869728571428571,1.029125,-0.16625,0.61,78.3613333333333,-0.92678,0.0749,-0.45546,2.63577777777778,1.97933333333333,-0.972333333333333,78.157,0.0697,-0.7613,0.7362,-2.16,-0.61,-0.97,6.95,-0.059275,0.28995,-0.97815,4.77125,0.732,0.04575,112.6045,1,1,1,1
24-May-2018 12:42:20,52,0.411071428571429,-0.0600285714285714,-0.869728571428571,1.029125,-0.16625,0.61,78.3613333333333,-0.92678,0.0749,-0.45546,2.63577777777778,1.97933333333333,-0.972333333333333,78.157,0.0697,-0.7613,0.7362,-2.16,-0.61,-0.97,6.95,-0.059275,0.28995,-0.97815,4.77125,0.732,0.04575,112.6045,1,1,1,1
24-May-2018 12:42:20,52,0.411071428571429,-0.0600285714285714,-0.869728571428571,1.029125,-0.16625,0.61,78.3613333333333,-0.92678,0.0749,-0.45546,2.63577777777778,1.97933333333333,-0.972333333333333,78.157,0.0697,-0.7613,0.7362,-2.16,-0.61,-0.97,6.95,-0.059275,0.28995,-0.97815,4.77125,0.732,0.04575,112.6045,1,1,1,1
24-May-2018 12:42:20,52,0.411071428571429,-0.0600285714285714,-0.869728571428571,1.029125,-0.16625,0.61,78.3613333333333,-0.92678,0.0749,-0.45546,2.63577777777778,1.97933333333333,-0.972333333333333,78.157,0.0697,-0.7613,0.7362,-2.16,-0.61,-0.97,6.95,0,0,0,4.77125,0.732,0.04575,112.6045,1,1,1,1
24-May-2018 12:42:21,52,0.4061,-0.0622,-0.8672375,0.45025,0.23875,0.419375,78.047,-0.92678,0.0749,-0.45546,6.433,-3.105,0.308,78.157,0.0768,-0.773683333333333,0.715066666666667,-1.389,-1.12714285714286,-0.536857142857143,6.947,-0.0521,0.1935625,-0.9975875,2.53075,0.488,0.114375,112.6045,1,1,1,1
24-May-2018 12:42:21,52,0.4061,-0.0622,-0.8672375,0.45025,0.23875,0.419375,78.047,-0.92678,0.0749,-0.45546,6.433,-3.105,0.308,78.157,0.0768,-0.773683333333333,0.715066666666667,-1.389,-1.12714285714286,-0.536857142857143,6.947,-0.0521,0.1935625,-0.9975875,2.53075,0.488,0.114375,112.6045,1,1,1,1
24-May-2018 12:42:21,52,0.4061,-0.0622,-0.8672375,0.45025,0.23875,0.419375,78.047,-0.92678,0.0749,-0.45546,6.433,-3.105,0.308,78.157,0.0768,-0.773683333333333,0.715066666666667,-1.389,-1.12714285714286,-0.536857142857143,6.947,-0.0521,0.1935625,-0.9975875,2.53075,0.488,0.114375,112.6045,1,1,1,1
24-May-2018 12:42:21,52,0.4061,-0.0622,-0.8672375,0.45025,0.23875,0.419375,78.047,0,0,0,6.433,-3.105,0.308,78.157,0.0768,-0.773683333333333,0.715066666666667,-1.389,-1.12714285714286,-0.536857142857143,6.947,-0.0521,0.1935625,-0.9975875,2.53075,0.488,0.114375,0,1,1,1,1
24-May-2018 12:42:22,52.1,0.4079,-0.060175,-0.86835,1.5095,2.898,1.174,79.00425,-0.92272,0.06344,-0.46842,7.1824,0.0648,0.7703,78.1563333333333,0.07598,-0.77198,0.72388,-2.1735,-2.54766666666667,0.2135,6.897,-0.49885,-0.4959,0.24975,-80.279875,166.814125,75.6935,71.882,1,1,1,1
24-May-2018 12:42:22,52.1,0.4079,-0.060175,-0.86835,1.5095,2.898,1.174,79.00425,-0.92272,0.06344,-0.46842,7.1824,0.0648,0.7703,78.1563333333333,0.07598,-0.77198,0.72388,-2.1735,-2.54766666666667,0.2135,6.897,-0.49885,-0.4959,0.24975,-80.279875,166.814125,75.6935,71.882,1,1,1,1
24-May-2018 12:42:22,52.1,0.4079,-0.060175,-0.86835,1.5095,2.898,1.174,79.00425,-0.92272,0.06344,-0.46842,7.1824,0.0648,0.7703,78.1563333333333,0.07598,-0.77198,0.72388,-2.1735,-2.54766666666667,0.2135,6.897,-0.49885,-0.4959,0.24975,-80.279875,166.814125,75.6935,71.882,1,1,1,1
24-May-2018 12:42:22,52.1,0.4079,-0.060175,-0.86835,1.5095,2.898,1.174,79.00425,-0.92272,0.06344,-0.46842,7.1824,0.0648,0.7703,78.1563333333333,0.07598,-0.77198,0.72388,-2.1735,-2.54766666666667,0.2135,6.897,-0.49885,-0.4959,0.24975,-80.279875,166.814125,75.6935,71.882,1,1,1,1
24-May-2018 12:42:23,52,0.52085,-0.112,-0.831325,21.5626666666667,-10.4666666666667,-14.1166666666667,75.6315,-0.9169,0.06235,-0.464075,-11.5965714285714,-3.006,-3.39185714285714,78.155,0.0412166666666667,-0.700266666666667,0.697866666666667,11.23925,-19.2325,-36.3875,6.885,-1.02125,-0.060375,0.3436,18.4171666666667,129.288666666667,-39.6125,727.5785,1,1,1,1
24-May-2018 12:42:23,52,0.52085,-0.112,-0.831325,21.5626666666667,-10.4666666666667,-14.1166666666667,75.6315,-0.9169,0.06235,-0.464075,-11.5965714285714,-3.006,-3.39185714285714,78.155,0.0412166666666667,-0.700266666666667,0.697866666666667,11.23925,-19.2325,-36.3875,6.885,-1.02125,-0.060375,0.3436,18.4171666666667,129.288666666667,-39.6125,727.5785,1,1,1,1
24-May-2018 12:42:23,52,0.52085,-0.112,-0.831325,21.5626666666667,-10.4666666666667,-14.1166666666667,75.6315,-0.9169,0.06235,-0.464075,-11.5965714285714,-3.006,-3.39185714285714,78.155,0.0412166666666667,-0.700266666666667,0.697866666666667,11.23925,-19.2325,-36.3875,6.885,-1.02125,-0.060375,0.3436,18.4171666666667,129.288666666667,-39.6125,727.5785,1,1,1,1
24-May-2018 12:42:23,52,0.52085,-0.112,-0.831325,21.5626666666667,-10.4666666666667,-14.1166666666667,75.6315,-0.9169,0.06235,-0.464075,-11.5965714285714,-3.006,-3.39185714285714,78.155,0.0412166666666667,-0.700266666666667,0.697866666666667,11.23925,-19.2325,-36.3875,6.885,-1.02125,-0.060375,0.3436,18.4171666666667,129.288666666667,-39.6125,727.5785,1,1,1,1
24-May-2018 12:42:24,52.125,0.722433333333333,-0.0547666666666667,-0.5781,0.778875000000001,2.927625,-8.28375,25.667,-0.92135,0.014125,-0.4042,-57.0444444444444,-13.7488888888889,-31.6333333333333,81.755,0.8370625,0.0713625,0.5674,27.0234,-30.572,-29.518,1.45933333333333,-0.217133333333333,0.190533333333333,-0.781366666666667,-15.16775,42.241,-6.12825,454.0698,1,1,1,1
24-May-2018 12:42:24,52.125,0.722433333333333,-0.0547666666666667,-0.5781,0.778875000000001,2.927625,-8.28375,25.667,-0.92135,0.014125,-0.4042,-57.0444444444444,-13.7488888888889,-31.6333333333333,81.755,0.8370625,0.0713625,0.5674,27.0234,-30.572,-29.518,1.45933333333333,-0.217133333333333,0.190533333333333,-0.781366666666667,-15.16775,42.241,-6.12825,454.0698,1,1,1,1
24-May-2018 12:42:24,52.125,0.722433333333333,-0.0547666666666667,-0.5781,0.778875000000001,2.927625,-8.28375,25.667,-0.92135,0.014125,-0.4042,-57.0444444444444,-13.7488888888889,-31.6333333333333,81.755,0.8370625,0.0713625,0.5674,27.0234,-30.572,-29.518,1.45933333333333,-0.217133333333333,0.190533333333333,-0.781366666666667,-15.16775,42.241,-6.12825,454.0698,1,1,1,1
24-May-2018 12:42:24,52.125,0.722433333333333,-0.0547666666666667,-0.5781,0.778875000000001,2.927625,-8.28375,25.667,-0.92135,0.014125,-0.4042,-57.0444444444444,-13.7488888888889,-31.6333333333333,81.755,0.8370625,0.0713625,0.5674,27.0234,-30.572,-29.518,1.45933333333333,-0.217133333333333,0.190533333333333,-0.781366666666667,-15.16775,42.241,-6.12825,454.0698,1,1,1,1
24-May-2018 12:42:25,52,0.848016666666667,-0.0297,0.279583333333333,-28.55,46.2332,9.51,5.59466666666667,-0.999316666666667,-0.0752833333333333,-0.356633333333333,-43.65,4.4735,-17.2983333333333,77.6745,0.91912,0.34254,0.31114,-10.6322857142857,16.48,21.0451428571429,1.179,-0.87605,0.0989833333333334,-0.11715,-34.816,-37.763,-8.07933333333333,474.1765,1,1,1,1
24-May-2018 12:42:25,52,0.848016666666667,-0.0297,0.279583333333333,-28.55,46.2332,9.51,5.59466666666667,-0.999316666666667,-0.0752833333333333,-0.356633333333333,-43.65,4.4735,-17.2983333333333,77.6745,0.91912,0.34254,0.31114,-10.6322857142857,16.48,21.0451428571429,1.179,-0.87605,0.0989833333333334,-0.11715,-34.816,-37.763,-8.07933333333333,474.1765,1,1,1,1
24-May-2018 12:42:25,52,0.848016666666667,-0.0297,0.279583333333333,-28.55,46.2332,9.51,5.59466666666667,-0.999316666666667,-0.0752833333333333,-0.356633333333333,-43.65,4.4735,-17.2983333333333,77.6745,0.91912,0.34254,0.31114,-10.6322857142857,16.48,21.0451428571429,1.179,-0.87605,0.0989833333333334,-0.11715,-34.816,-37.763,-8.07933333333333,474.1765,1,1,1,1
24-May-2018 12:42:25,52,0.848016666666667,-0.0297,0.279583333333333,-28.55,46.2332,9.51,5.59466666666667,-0.999316666666667,-0.0752833333333333,-0.356633333333333,-43.65,4.4735,-17.2983333333333,77.6745,0.91912,0.34254,0.31114,-10.6322857142857,16.48,21.0451428571429,1.179,-0.87605,0.0989833333333334,-0.11715,-34.816,-37.763,-8.07933333333333,474.1765,1,1,1,1
24-May-2018 12:42:26,52,0.910325,-0.055375,0.325725,5.3042,-1.63,-1.0338,23.1066666666667,-0.96774,-0.09174,-0.40896,-22.38,-5.34625,-7.475,73.594,0.87742,0.19688,0.46754,-0.42925,0.0645000000000002,-1.123,5.5135,-0.97462,-0.19482,0.1571,30.7723333333333,13.4956666666667,-25.4676666666667,812.187,1,1,1,1
24-May-2018 12:42:26,52,0.910325,-0.055375,0.325725,5.3042,-1.63,-1.0338,23.1066666666667,-0.96774,-0.09174,-0.40896,-22.38,-5.34625,-7.475,73.594,0.87742,0.19688,0.46754,-0.42925,0.0645000000000002,-1.123,5.5135,-0.97462,-0.19482,0.1571,30.7723333333333,13.4956666666667,-25.4676666666667,812.187,1,1,1,1
24-May-2018 12:42:26,52,0.910325,-0.055375,0.325725,5.3042,-1.63,-1.0338,23.1066666666667,-0.96774,-0.09174,-0.40896,-22.38,-5.34625,-7.475,73.594,0.87742,0.19688,0.46754,-0.42925,0.0645000000000002,-1.123,5.5135,-0.97462,-0.19482,0.1571,30.7723333333333,13.4956666666667,-25.4676666666667,812.187,1,1,1,1
24-May-2018 12:42:26,52,0.910325,-0.055375,0.325725,5.3042,-1.63,-1.0338,23.1066666666667,-0.96774,-0.09174,-0.40896,-22.38,-5.34625,-7.475,73.594,0.87742,0.19688,0.46754,-0.42925,0.0645000000000002,-1.123,5.5135,-0.97462,-0.19482,0.1571,30.7723333333333,13.4956666666667,-25.4676666666667,812.187,1,1,1,1
24-May-2018 12:42:27,52,0.891828571428572,-0.0077,0.403957142857143,6.178,13.5355,-3.63816666666667,25.888,-0.93114,-0.02108,-0.42212,-21.21,10.9057,5.3471,73.594,0.896233333333333,0.225733333333333,0.431166666666667,9.98325,-6.579,-2.479,5.544,-0.845271428571429,-0.446371428571429,0.0282142857142857,11.1966,1.0974,-22.1584,812.187,1,1,1,0
24-May-2018 12:42:27,52,0.891828571428572,-0.0077,0.403957142857143,6.178,13.5355,-3.63816666666667,25.888,-0.93114,-0.02108,-0.42212,-21.21,10.9057,5.3471,73.594,0.896233333333333,0.225733333333333,0.431166666666667,9.98325,-6.579,-2.479,5.544,-0.845271428571429,-0.446371428571429,0.0282142857142857,11.1966,1.0974,-22.1584,812.187,1,1,1,0
24-May-2018 12:42:27,52,0.891828571428572,-0.0077,0.403957142857143,6.178,13.5355,-3.63816666666667,25.888,-0.93114,-0.02108,-0.42212,-21.21,10.9057,5.3471,73.594,0.896233333333333,0.225733333333333,0.431166666666667,9.98325,-6.579,-2.479,5.544,-0.845271428571429,-0.446371428571429,0.0282142857142857,11.1966,1.0974,-22.1584,812.187,1,1,1,0
24-May-2018 12:42:27,52,0.891828571428572,-0.0077,0.403957142857143,6.178,13.5355,-3.63816666666667,25.888,-0.93114,-0.02108,-0.42212,-21.21,10.9057,5.3471,73.594,0.896233333333333,0.225733333333333,0.431166666666667,9.98325,-6.579,-2.479,5.544,-0.845271428571429,-0.446371428571429,0.0282142857142857,11.1966,1.0974,-22.1584,0,1,1,1,0
