TIME,HELMET_RAW,BELT_ACC_X,BELT_ACC_Y,BELT_ACC_Z,BELT_ANG_X,BELT_ANG_Y,BELT_ANG_Z,BELT_LUMINOSITY,NECK_ACC_X,NECK_ACC_Y,NECK_ACC_Z,NECK_ANG_X,NECK_ANG_Y,NECK_ANG_Z,NECK_LUMINOSITY,PCKT_ACC_X,PCKT_ACC_Y,PCKT_ACC_Z,PCKT_ANG_X,PCKT_ANG_Y,PCKT_ANG_Z,PCKT_LUMINOSITY,WRST_ACC_X,WRST_ACC_Y,WRST_ACC_Z,WRST_ANG_X,WRST_ANG_Y,WRST_ANG_Z,WRST_LUMINOSITY,IR_1,IR_2,IR_3,IR_4
24-May-2018 12:54:23,-1546.63636363636,0.902914285714286,-0.141628571428571,0.352285714285714,1.64242857142857,1.02,-3.21885714285714,49.664,-0.71445,0.071225,-0.767625,-2.2577,3.3477,1.0806,143.08175,0.81915,0.3198,0.49095,1.05666666666667,-0.241333333333333,0.663833333333333,3.361,0.77576,0.30846,0.58322,-12.4258,-7.0488,-8.3782,860.996666666667,1,1,0,0
24-May-2018 12:54:23,-1546.63636363636,0.902914285714286,-0.141628571428571,0.352285714285714,1.64242857142857,1.02,-3.21885714285714,49.664,-0.71445,0.071225,-0.767625,-2.2577,3.3477,1.0806,143.08175,0.81915,0.3198,0.49095,1.05666666666667,-0.241333333333333,0.663833333333333,3.361,0.77576,0.30846,0.58322,-12.4258,-7.0488,-8.3782,860.996666666667,1,1,0,0
24-May-2018 12:54:23,-1546.63636363636,0.902914285714286,-0.141628571428571,0.352285714285714,1.64242857142857,1.02,-3.21885714285714,49.664,-0.71445,0.071225,-0.767625,-2.2577,3.3477,1.0806,143.08175,0.81915,0.3198,0.49095,1.05666666666667,-0.241333333333333,0.663833333333333,3.361,0.77576,0.30846,0.58322,-12.4258,-7.0488,-8.3782,860.996666666667,1,1,0,0
24-May-2018 12:54:23,-1546.63636363636,0.902914285714286,-0.141628571428571,0.352285714285714,1.64242857142857,1.02,-3.21885714285714,49.664,-0.71445,0.071225,-0.767625,-2.2577,3.3477,1.0806,143.08175,0.81915,0.3198,0.49095,1.05666666666667,-0.241333333333333,0.663833333333333,3.361,0.77576,0.30846,0.58322,-12.4258,-7.0488,-8.3782,860.996666666667,1,1,0,0
24-May-2018 12:54:24,-1714.7,0.9065,-0.00871428571428572,0.366057142857143,4.77257142857143,0.132857142857143,0.124857142857143,12.8525,-0.7076,0.07258,-0.77396,-1.20866666666667,1.01077777777778,-0.723444444444444,140.642,0.7751,0.307366666666667,0.5767,-0.75,3.618,-0.341666666666667,3.46,0.65478,0.47834,0.5153,42.4041428571429,41.9512857142857,55.4531428571429,869.337,0,1,0,0
24-May-2018 12:54:24,-1714.7,0.9065,-0.00871428571428572,0.366057142857143,4.77257142857143,0.132857142857143,0.124857142857143,12.8525,-0.7076,0.07258,-0.77396,-1.20866666666667,1.01077777777778,-0.723444444444444,140.642,0.7751,0.307366666666667,0.5767,-0.75,3.618,-0.341666666666667,3.46,0.65478,0.47834,0.5153,42.4041428571429,41.9512857142857,55.4531428571429,869.337,0,1,0,0
24-May-2018 12:54:24,-1714.7,0.9065,-0.00871428571428572,0.366057142857143,4.77257142857143,0.132857142857143,0.124857142857143,12.8525,-0.7076,0.07258,-0.77396,-1.20866666666667,1.01077777777778,-0.723444444444444,140.642,0.7751,0.307366666666667,0.5767,-0.75,3.618,-0.341666666666667,3.46,0.65478,0.47834,0.5153,42.4041428571429,41.9512857142857,55.4531428571429,869.337,0,1,0,0
24-May-2018 12:54:24,-1714.7,0.9065,-0.00871428571428572,0.366057142857143,4.77257142857143,0.132857142857143,0.124857142857143,12.8525,-0.7076,0.07258,-0.77396,-1.20866666666667,1.01077777777778,-0.723444444444444,140.642,0.7751,0.307366666666667,0.5767,-0.75,3.618,-0.341666666666667,3.46,0.65478,0.47834,0.5153,42.4041428571429,41.9512857142857,55.4531428571429,869.337,0,1,0,0
24-May-2018 12:54:25,-1644,0.860183333333333,-0.0992666666666667,0.414066666666667,15.7095,0.812999999999999,9.66383333333333,6.37733333333333,-0.7085,0.07964,-0.77452,-3.49333333333333,1.30744444444444,-2.43,140.642,0.839566666666667,0.2914,0.5052,1.40466666666667,-11.35,8.008,3.2055,-0.65992,-0.19324,0.56068,-38.628,127.17975,88.21625,919.5775,1,1,0,0
24-May-2018 12:54:25,-1644,0.860183333333333,-0.0992666666666667,0.414066666666667,15.7095,0.812999999999999,9.66383333333333,6.37733333333333,-0.7085,0.07964,-0.77452,-3.49333333333333,1.30744444444444,-2.43,140.642,0.839566666666667,0.2914,0.5052,1.40466666666667,-11.35,8.008,3.2055,-0.65992,-0.19324,0.56068,-38.628,127.17975,88.21625,919.5775,1,1,0,0
24-May-2018 12:54:25,-1644,0.860183333333333,-0.0992666666666667,0.414066666666667,15.7095,0.812999999999999,9.66383333333333,6.37733333333333,-0.7085,0.07964,-0.77452,-3.49333333333333,1.30744444444444,-2.43,140.642,0.839566666666667,0.2914,0.5052,1.40466666666667,-11.35,8.008,3.2055,-0.65992,-0.19324,0.56068,-38.628,127.17975,88.21625,919.5775,1,1,0,0
24-May-2018 12:54:25,-1644,0.860183333333333,-0.0992666666666667,0.414066666666667,15.7095,0.812999999999999,9.66383333333333,6.37733333333333,-0.7085,0.07964,-0.77452,-3.49333333333333,1.30744444444444,-2.43,140.642,0.839566666666667,0.2914,0.5052,1.40466666666667,-11.35,8.008,3.2055,-0.65992,-0.19324,0.56068,-38.628,127.17975,88.21625,919.5775,1,1,0,0
24-May-2018 12:54:26,-1632.55555555556,0.905183333333333,0.04625,0.393983333333333,12.5034285714286,-0.744571428571428,1.40571428571429,5.538,-0.70415,0.08645,-0.783425,-2.08888888888889,-0.331333333333333,-0.756,141.3485,0.8227,0.302133333333333,0.523433333333333,6.7776,4.4008,2.725,2.923,-0.9373,-0.02306,0.32442,26.3515,-11.2501666666667,-17.6526666666667,595.497,1,1,0.5,0.5
24-May-2018 12:54:26,-1632.55555555556,0.905183333333333,0.04625,0.393983333333333,12.5034285714286,-0.744571428571428,1.40571428571429,5.538,-0.70415,0.08645,-0.783425,-2.08888888888889,-0.331333333333333,-0.756,141.3485,0.8227,0.302133333333333,0.523433333333333,6.7776,4.4008,2.725,2.923,-0.9373,-0.02306,0.32442,26.3515,-11.2501666666667,-17.6526666666667,595.497,1,1,0.5,0.5
24-May-2018 12:54:26,-1632.55555555556,0.905183333333333,0.04625,0.393983333333333,12.5034285714286,-0.744571428571428,1.40571428571429,5.538,-0.70415,0.08645,-0.783425,-2.08888888888889,-0.331333333333333,-0.756,141.3485,0.8227,0.302133333333333,0.523433333333333,6.7776,4.4008,2.725,2.923,-0.9373,-0.02306,0.32442,26.3515,-11.2501666666667,-17.6526666666667,595.497,1,1,0.5,0.5
24-May-2018 12:54:26,-1632.55555555556,0.905183333333333,0.04625,0.393983333333333,12.5034285714286,-0.744571428571428,1.40571428571429,5.538,-0.70415,0.08645,-0.783425,-2.08888888888889,-0.331333333333333,-0.756,141.3485,0.8227,0.302133333333333,0.523433333333333,6.7776,4.4008,2.725,2.923,-0.9373,-0.02306,0.32442,26.3515,-11.2501666666667,-17.6526666666667,595.497,1,1,0.5,0.5
24-May-2018 12:54:27,-1223.22222222222,0.9027625,-0.028325,0.37955,42.465,-5.1775,15.86525,5.538,-0.705,0.07882,-0.74696,-5.99166666666667,-26.1366666666667,-15.3411111111111,143.468,0.844371428571429,0.293528571428571,0.484485714285714,19.5705714285714,6.464,13.5755714285714,2.992,-0.942,-0.0735333333333333,0.207983333333333,13.6283333333333,4.98966666666667,-2.86583333333333,571.8525,1,1,1,1
24-May-2018 12:54:27,-1223.22222222222,0.9027625,-0.028325,0.37955,42.465,-5.1775,15.86525,5.538,-0.705,0.07882,-0.74696,-5.99166666666667,-26.1366666666667,-15.3411111111111,143.468,0.844371428571429,0.293528571428571,0.484485714285714,19.5705714285714,6.464,13.5755714285714,2.992,-0.942,-0.0735333333333333,0.207983333333333,13.6283333333333,4.98966666666667,-2.86583333333333,571.8525,1,1,1,1
24-May-2018 12:54:27,-1223.22222222222,0.9027625,-0.028325,0.37955,42.465,-5.1775,15.86525,5.538,-0.705,0.07882,-0.74696,-5.99166666666667,-26.1366666666667,-15.3411111111111,143.468,0.844371428571429,0.293528571428571,0.484485714285714,19.5705714285714,6.464,13.5755714285714,2.992,-0.942,-0.0735333333333333,0.207983333333333,13.6283333333333,4.98966666666667,-2.86583333333333,571.8525,1,1,1,1
24-May-2018 12:54:27,-1223.22222222222,0.9027625,-0.028325,0.37955,42.465,-5.1775,15.86525,5.538,-0.705,0.07882,-0.74696,-5.99166666666667,-26.1366666666667,-15.3411111111111,143.468,0.844371428571429,0.293528571428571,0.484485714285714,19.5705714285714,6.464,13.5755714285714,2.992,-0.942,-0.0735333333333333,0.207983333333333,13.6283333333333,4.98966666666667,-2.86583333333333,571.8525,1,1,1,1
24-May-2018 12:54:28,-824.6,0.89858,0.03788,0.38048,13.2551428571429,3.24757142857143,2.709,5.538,-0.784166666666667,-0.134166666666667,-0.654366666666667,-7.41433333333333,-25.8666666666667,-57.35,143.468,0.86428,0.27228,0.44426,16.3566666666667,-6.17266666666667,-0.972333333333333,4.62275,-0.937366666666667,-0.154433333333333,0.169533333333333,10.0605,9.878,1.707,589.996666666667,1,0,1,1
24-May-2018 12:54:28,-824.6,0.89858,0.03788,0.38048,13.2551428571429,3.24757142857143,2.709,5.538,-0.784166666666667,-0.134166666666667,-0.654366666666667,-7.41433333333333,-25.8666666666667,-57.35,143.468,0.86428,0.27228,0.44426,16.3566666666667,-6.17266666666667,-0.972333333333333,4.62275,-0.937366666666667,-0.154433333333333,0.169533333333333,10.0605,9.878,1.707,589.996666666667,1,0,1,1
24-May-2018 12:54:28,-824.6,0.89858,0.03788,0.38048,13.2551428571429,3.24757142857143,2.709,5.538,-0.784166666666667,-0.134166666666667,-0.654366666666667,-7.41433333333333,-25.8666666666667,-57.35,143.468,0.86428,0.27228,0.44426,16.3566666666667,-6.17266666666667,-0.972333333333333,4.62275,-0.937366666666667,-0.154433333333333,0.169533333333333,10.0605,9.878,1.707,589.996666666667,1,0,1,1
24-May-2018 12:54:28,-824.6,0.89858,0.03788,0.38048,13.2551428571429,3.24757142857143,2.709,5.538,-0.784166666666667,-0.134166666666667,-0.654366666666667,-7.41433333333333,-25.8666666666667,-57.35,143.468,0.86428,0.27228,0.44426,16.3566666666667,-6.17266666666667,-0.972333333333333,4.62275,-0.937366666666667,-0.154433333333333,0.169533333333333,10.0605,9.878,1.707,589.996666666667,1,0,1,1
24-May-2018 12:54:29,-623.428571428571,0.88135,-0.0309375,0.430625,3.102125,1.555875,2.77425,5.538,-0.818833333333333,-0.138233333333333,-0.6846,-1.60333333333333,-10.9758333333333,-37.1833333333333,143.468,0.846733333333333,0.3414,0.430933333333333,4.02442857142857,-0.843857142857143,-3.12328571428571,5.03433333333333,-0.9528,0.200066666666667,0.125666666666667,14.244,-7.6586,0.0730000000000002,589.996666666667,1,0,1,1
24-May-2018 12:54:29,-623.428571428571,0.88135,-0.0309375,0.430625,3.102125,1.555875,2.77425,5.538,-0.818833333333333,-0.138233333333333,-0.6846,-1.60333333333333,-10.9758333333333,-37.1833333333333,143.468,0.846733333333333,0.3414,0.430933333333333,4.02442857142857,-0.843857142857143,-3.12328571428571,5.03433333333333,-0.9528,0.200066666666667,0.125666666666667,14.244,-7.6586,0.0730000000000002,589.996666666667,1,0,1,1
24-May-2018 12:54:29,-623.428571428571,0.88135,-0.0309375,0.430625,3.102125,1.555875,2.77425,5.538,-0.818833333333333,-0.138233333333333,-0.6846,-1.60333333333333,-10.9758333333333,-37.1833333333333,143.468,0.846733333333333,0.3414,0.430933333333333,4.02442857142857,-0.843857142857143,-3.12328571428571,5.03433333333333,-0.9528,0.200066666666667,0.125666666666667,14.244,-7.6586,0.0730000000000002,589.996666666667,1,0,1,1
24-May-2018 12:54:29,-623.428571428571,0.88135,-0.0309375,0.430625,3.102125,1.555875,2.77425,5.538,-0.818833333333333,-0.138233333333333,-0.6846,-1.60333333333333,-10.9758333333333,-37.1833333333333,143.468,0.846733333333333,0.3414,0.430933333333333,4.02442857142857,-0.843857142857143,-3.12328571428571,5.03433333333333,-0.9528,0.200066666666667,0.125666666666667,14.244,-7.6586,0.0730000000000002,0,1,0,1,1
24-May-2018 12:54:30,-443.6,0.88608,-0.02464,0.41474,-2.9718,0.6224,1.3416,5.538,-0.747266666666667,-0.260033333333333,-0.675366666666667,5.27466666666667,27.7716666666667,-9.92833333333333,137.2545,0.839225,0.33375,0.441775,-2.40575,2.5935,-0.21325,5.09966666666667,-0.9193,-0.04115,0.1686,-24.512,2.866,-0.427,522.884,1,1,1,1
24-May-2018 12:54:30,-443.6,0.88608,-0.02464,0.41474,-2.9718,0.6224,1.3416,5.538,-0.747266666666667,-0.260033333333333,-0.675366666666667,5.27466666666667,27.7716666666667,-9.92833333333333,137.2545,0.839225,0.33375,0.441775,-2.40575,2.5935,-0.21325,5.09966666666667,-0.9193,-0.04115,0.1686,-24.512,2.866,-0.427,522.884,1,1,1,1
24-May-2018 12:54:30,-443.6,0.88608,-0.02464,0.41474,-2.9718,0.6224,1.3416,5.538,-0.747266666666667,-0.260033333333333,-0.675366666666667,5.27466666666667,27.7716666666667,-9.92833333333333,137.2545,0.839225,0.33375,0.441775,-2.40575,2.5935,-0.21325,5.09966666666667,-0.9193,-0.04115,0.1686,-24.512,2.866,-0.427,522.884,1,1,1,1
24-May-2018 12:54:30,-443.6,0.88608,-0.02464,0.41474,-2.9718,0.6224,1.3416,0,-0.747266666666667,-0.260033333333333,-0.675366666666667,5.27466666666667,27.7716666666667,-9.92833333333333,137.2545,0.839225,0.33375,0.441775,-2.40575,2.5935,-0.21325,5.09966666666667,-0.9193,-0.04115,0.1686,-24.512,2.866,-0.427,522.884,1,1,1,1
24-May-2018 12:54:31,-380.111111111111,1.03996666666667,-0.0740166666666667,0.418833333333333,10.7227142857143,-19.3951428571429,-0.485285714285714,7.602,-0.687875,-0.3216,-0.673575,-5.30866666666667,-0.0138888888888889,12.6654444444444,131.041,0.53695,0.293225,0.3531,-2.5176,4.3676,5.8172,5.1266,-0.932716666666667,-0.0481833333333333,0.19265,-0.9754,1.073,-0.5856,522.884,1,0,1,1
24-May-2018 12:54:31,-380.111111111111,1.03996666666667,-0.0740166666666667,0.418833333333333,10.7227142857143,-19.3951428571429,-0.485285714285714,7.602,-0.687875,-0.3216,-0.673575,-5.30866666666667,-0.0138888888888889,12.6654444444444,131.041,0.53695,0.293225,0.3531,-2.5176,4.3676,5.8172,5.1266,-0.932716666666667,-0.0481833333333333,0.19265,-0.9754,1.073,-0.5856,522.884,1,0,1,1
24-May-2018 12:54:31,-380.111111111111,1.03996666666667,-0.0740166666666667,0.418833333333333,10.7227142857143,-19.3951428571429,-0.485285714285714,7.602,-0.687875,-0.3216,-0.673575,-5.30866666666667,-0.0138888888888889,12.6654444444444,131.041,0.53695,0.293225,0.3531,-2.5176,4.3676,5.8172,5.1266,-0.932716666666667,-0.0481833333333333,0.19265,-0.9754,1.073,-0.5856,522.884,1,0,1,1
24-May-2018 12:54:31,-380.111111111111,1.03996666666667,-0.0740166666666667,0.418833333333333,10.7227142857143,-19.3951428571429,-0.485285714285714,7.602,-0.687875,-0.3216,-0.673575,-5.30866666666667,-0.0138888888888889,12.6654444444444,131.041,0.53695,0.293225,0.3531,-2.5176,4.3676,5.8172,5.1266,-0.932716666666667,-0.0481833333333333,0.19265,-0.9754,1.073,-0.5856,0,1,0,1,1
24-May-2018 12:54:32,-201.555555555556,0.59582,0.13682,0.7329,1.12266666666667,2.23566666666667,25.1913333333333,5.57185714285714,-0.8853,0.13956,-0.6949,-29.7644444444444,-31.9836666666667,33.4444444444444,131.041,0.615575,0.332675,0.5813,76.616,132.866666666667,-62.7633333333333,4.527,-0.901416666666667,-0.0417666666666667,0.230633333333333,-6.45471428571429,-0.714142857142857,0.0697142857142859,558.44975,1,1,1,1
24-May-2018 12:54:32,-201.555555555556,0.59582,0.13682,0.7329,1.12266666666667,2.23566666666667,25.1913333333333,5.57185714285714,-0.8853,0.13956,-0.6949,-29.7644444444444,-31.9836666666667,33.4444444444444,131.041,0.615575,0.332675,0.5813,76.616,132.866666666667,-62.7633333333333,4.527,-0.901416666666667,-0.0417666666666667,0.230633333333333,-6.45471428571429,-0.714142857142857,0.0697142857142859,558.44975,1,1,1,1
24-May-2018 12:54:32,-201.555555555556,0.59582,0.13682,0.7329,1.12266666666667,2.23566666666667,25.1913333333333,5.57185714285714,-0.8853,0.13956,-0.6949,-29.7644444444444,-31.9836666666667,33.4444444444444,131.041,0.615575,0.332675,0.5813,76.616,132.866666666667,-62.7633333333333,4.527,-0.901416666666667,-0.0417666666666667,0.230633333333333,-6.45471428571429,-0.714142857142857,0.0697142857142859,558.44975,1,1,1,1
24-May-2018 12:54:32,-201.555555555556,0.59582,0.13682,0.7329,1.12266666666667,2.23566666666667,25.1913333333333,5.57185714285714,-0.8853,0.13956,-0.6949,-29.7644444444444,-31.9836666666667,33.4444444444444,131.041,0.615575,0.332675,0.5813,76.616,132.866666666667,-62.7633333333333,4.527,-0.901416666666667,-0.0417666666666667,0.230633333333333,-6.45471428571429,-0.714142857142857,0.0697142857142859,558.44975,1,1,1,1
24-May-2018 12:54:33,-146.3,0.144377777777778,-0.0845444444444444,0.481255555555556,-15.37,274.7,-19.285,10.4303333333333,-0.762125,0.3167,-0.5951,12.39925,-6.342,45.84875,127.301,0.219633333333333,0.332866666666667,0.411166666666667,101.358,49.72,-22.43,4.349,-1.02,-0.304416666666667,0.766633333333333,31.8658,-6.8528,7.5746,760.7816,1,1,1,1
24-May-2018 12:54:33,-146.3,0.144377777777778,-0.0845444444444444,0.481255555555556,-15.37,274.7,-19.285,10.4303333333333,-0.762125,0.3167,-0.5951,12.39925,-6.342,45.84875,127.301,0.219633333333333,0.332866666666667,0.411166666666667,101.358,49.72,-22.43,4.349,-1.02,-0.304416666666667,0.766633333333333,31.8658,-6.8528,7.5746,760.7816,1,1,1,1
24-May-2018 12:54:33,-146.3,0.144377777777778,-0.0845444444444444,0.481255555555556,-15.37,274.7,-19.285,10.4303333333333,-0.762125,0.3167,-0.5951,12.39925,-6.342,45.84875,127.301,0.219633333333333,0.332866666666667,0.411166666666667,101.358,49.72,-22.43,4.349,-1.02,-0.304416666666667,0.766633333333333,31.8658,-6.8528,7.5746,760.7816,1,1,1,1
24-May-2018 12:54:33,-146.3,0.144377777777778,-0.0845444444444444,0.481255555555556,-15.37,274.7,-19.285,10.4303333333333,-0.762125,0.3167,-0.5951,12.39925,-6.342,45.84875,127.301,0.219633333333333,0.332866666666667,0.411166666666667,101.358,49.72,-22.43,4.349,-1.02,-0.304416666666667,0.766633333333333,31.8658,-6.8528,7.5746,760.7816,1,1,1,1
24-May-2018 12:54:34,-105.4,0.2809375,0.13835,0.5269625,1.74033333333333,139.535333333333,3.00833333333333,8.254,-0.6903,0.316325,-0.638,3.53833333333333,6.21133333333333,43.0433333333333,119.821,0.760228571428571,0.488257142857143,0.587414285714286,52,100.3,4.73,4.5458,-0.2597,-0.201,-0.184866666666667,-42.765625,-105.935375,13.826625,1009.362,1,1,1,1
24-May-2018 12:54:34,-105.4,0.2809375,0.13835,0.5269625,1.74033333333333,139.535333333333,3.00833333333333,8.254,-0.6903,0.316325,-0.638,3.53833333333333,6.21133333333333,43.0433333333333,119.821,0.760228571428571,0.488257142857143,0.587414285714286,52,100.3,4.73,4.5458,-0.2597,-0.201,-0.184866666666667,-42.765625,-105.935375,13.826625,1009.362,1,1,1,1
24-May-2018 12:54:34,-105.4,0.2809375,0.13835,0.5269625,1.74033333333333,139.535333333333,3.00833333333333,8.254,-0.6903,0.316325,-0.638,3.53833333333333,6.21133333333333,43.0433333333333,119.821,0.760228571428571,0.488257142857143,0.587414285714286,52,100.3,4.73,4.5458,-0.2597,-0.201,-0.184866666666667,-42.765625,-105.935375,13.826625,1009.362,1,1,1,1
24-May-2018 12:54:34,-105.4,0.2809375,0.13835,0.5269625,1.74033333333333,139.535333333333,3.00833333333333,8.254,-0.6903,0.316325,-0.638,3.53833333333333,6.21133333333333,43.0433333333333,119.821,0.760228571428571,0.488257142857143,0.587414285714286,52,100.3,4.73,4.5458,-0.2597,-0.201,-0.184866666666667,-42.765625,-105.935375,13.826625,1009.362,1,1,1,1
24-May-2018 12:54:35,-89.8,0.4139125,0.0391625,0.2722125,-9.65,-17.96,13.6628571428571,9.2405,-0.74008,0.36232,-0.71326,8.504375,10.348375,0.266624999999999,119.821,0.7107,0.566466666666667,0.521233333333333,-25.8348333333333,-56.5616666666667,-3.21666666666667,4.266,-0.1245,0.09645,1.140575,-27.3321428571429,14.8345714285714,-14.486,978.25175,1,1,1,1
24-May-2018 12:54:35,-89.8,0.4139125,0.0391625,0.2722125,-9.65,-17.96,13.6628571428571,9.2405,-0.74008,0.36232,-0.71326,8.504375,10.348375,0.266624999999999,119.821,0.7107,0.566466666666667,0.521233333333333,-25.8348333333333,-56.5616666666667,-3.21666666666667,4.266,-0.1245,0.09645,1.140575,-27.3321428571429,14.8345714285714,-14.486,978.25175,1,1,1,1
24-May-2018 12:54:35,-89.8,0.4139125,0.0391625,0.2722125,-9.65,-17.96,13.6628571428571,9.2405,-0.74008,0.36232,-0.71326,8.504375,10.348375,0.266624999999999,119.821,0.7107,0.566466666666667,0.521233333333333,-25.8348333333333,-56.5616666666667,-3.21666666666667,4.266,-0.1245,0.09645,1.140575,-27.3321428571429,14.8345714285714,-14.486,978.25175,1,1,1,1
24-May-2018 12:54:35,-89.8,0.4139125,0.0391625,0.2722125,-9.65,-17.96,13.6628571428571,9.2405,-0.74008,0.36232,-0.71326,8.504375,10.348375,0.266624999999999,119.821,0.7107,0.566466666666667,0.521233333333333,-25.8348333333333,-56.5616666666667,-3.21666666666667,4.266,-0.1245,0.09645,1.140575,-27.3321428571429,14.8345714285714,-14.486,978.25175,1,1,1,1
24-May-2018 12:54:36,-69.875,-0.17185,-0.08125,0.3506,-30.8028571428571,82.3557142857143,-30.4545714285714,10.25075,-0.80492,0.1488,-0.70392,50.4355555555556,5.422,-7.74333333333333,127.408,0.78256,0.60048,0.58694,111.526,128.18,-40.7116,4.3395,-0.550233333333333,-0.146833333333333,0.550316666666667,-25.577875,24.542625,10.929875,801.964,1,1,1,1
24-May-2018 12:54:36,-69.875,-0.17185,-0.08125,0.3506,-30.8028571428571,82.3557142857143,-30.4545714285714,10.25075,-0.80492,0.1488,-0.70392,50.4355555555556,5.422,-7.74333333333333,127.408,0.78256,0.60048,0.58694,111.526,128.18,-40.7116,4.3395,-0.550233333333333,-0.146833333333333,0.550316666666667,-25.577875,24.542625,10.929875,801.964,1,1,1,1
24-May-2018 12:54:36,-69.875,-0.17185,-0.08125,0.3506,-30.8028571428571,82.3557142857143,-30.4545714285714,10.25075,-0.80492,0.1488,-0.70392,50.4355555555556,5.422,-7.74333333333333,127.408,0.78256,0.60048,0.58694,111.526,128.18,-40.7116,4.3395,-0.550233333333333,-0.146833333333333,0.550316666666667,-25.577875,24.542625,10.929875,801.964,1,1,1,1
24-May-2018 12:54:36,-69.875,-0.17185,-0.08125,0.3506,-30.8028571428571,82.3557142857143,-30.4545714285714,10.25075,-0.80492,0.1488,-0.70392,50.4355555555556,5.422,-7.74333333333333,127.408,0.78256,0.60048,0.58694,111.526,128.18,-40.7116,4.3395,-0.550233333333333,-0.146833333333333,0.550316666666667,-25.577875,24.542625,10.929875,801.964,1,1,1,1
24-May-2018 12:54:37,-66.6,0.33215,0.0145833333333333,0.506366666666667,48.23,-29.986,12.0172,9.433,-0.72125,0.0974,-0.708075,41.9971428571429,-9.59342857142857,39.3057142857143,127.574,0.34975,0.0638,0.50025,-17.2931428571429,-67.7757142857143,30.1502857142857,3.8895,-0.74075,0.0137125,0.107825,-9.6462,3.512,14.9756,675.129666666667,1,1,1,1
24-May-2018 12:54:37,-66.6,0.33215,0.0145833333333333,0.506366666666667,48.23,-29.986,12.0172,9.433,-0.72125,0.0974,-0.708075,41.9971428571429,-9.59342857142857,39.3057142857143,127.574,0.34975,0.0638,0.50025,-17.2931428571429,-67.7757142857143,30.1502857142857,3.8895,-0.74075,0.0137125,0.107825,-9.6462,3.512,14.9756,675.129666666667,1,1,1,1
24-May-2018 12:54:37,-66.6,0.33215,0.0145833333333333,0.506366666666667,48.23,-29.986,12.0172,9.433,-0.72125,0.0974,-0.708075,41.9971428571429,-9.59342857142857,39.3057142857143,127.574,0.34975,0.0638,0.50025,-17.2931428571429,-67.7757142857143,30.1502857142857,3.8895,-0.74075,0.0137125,0.107825,-9.6462,3.512,14.9756,675.129666666667,1,1,1,1
24-May-2018 12:54:37,-66.6,0.33215,0.0145833333333333,0.506366666666667,48.23,-29.986,12.0172,9.433,-0.72125,0.0974,-0.708075,41.9971428571429,-9.59342857142857,39.3057142857143,127.574,0.34975,0.0638,0.50025,-17.2931428571429,-67.7757142857143,30.1502857142857,3.8895,-0.74075,0.0137125,0.107825,-9.6462,3.512,14.9756,675.129666666667,1,1,1,1
24-May-2018 12:54:38,-54.1428571428571,0.262111111111111,-0.0308666666666667,0.369722222222222,-23.4077777777778,-78.95,1.88777777777778,9.433,-0.7611,0.01054,-0.75762,43.33,1.09266666666667,35.2188888888889,127.906,0.517442857142857,0.308028571428571,0.484571428571429,-44.9233333333333,-38.14,28.9665,4.4125,-0.425885714285714,-0.179942857142857,0.131914285714286,-28.855,26.7225,-2.5915,691.73625,1,0,1,1
24-May-2018 12:54:38,-54.1428571428571,0.262111111111111,-0.0308666666666667,0.369722222222222,-23.4077777777778,-78.95,1.88777777777778,9.433,-0.7611,0.01054,-0.75762,43.33,1.09266666666667,35.2188888888889,127.906,0.517442857142857,0.308028571428571,0.484571428571429,-44.9233333333333,-38.14,28.9665,4.4125,-0.425885714285714,-0.179942857142857,0.131914285714286,-28.855,26.7225,-2.5915,691.73625,1,0,1,1
24-May-2018 12:54:38,-54.1428571428571,0.262111111111111,-0.0308666666666667,0.369722222222222,-23.4077777777778,-78.95,1.88777777777778,9.433,-0.7611,0.01054,-0.75762,43.33,1.09266666666667,35.2188888888889,127.906,0.517442857142857,0.308028571428571,0.484571428571429,-44.9233333333333,-38.14,28.9665,4.4125,-0.425885714285714,-0.179942857142857,0.131914285714286,-28.855,26.7225,-2.5915,691.73625,1,0,1,1
24-May-2018 12:54:38,-54.1428571428571,0.262111111111111,-0.0308666666666667,0.369722222222222,-23.4077777777778,-78.95,1.88777777777778,9.433,-0.7611,0.01054,-0.75762,43.33,1.09266666666667,35.2188888888889,127.906,0.517442857142857,0.308028571428571,0.484571428571429,-44.9233333333333,-38.14,28.9665,4.4125,-0.425885714285714,-0.179942857142857,0.131914285714286,-28.855,26.7225,-2.5915,691.73625,1,0,1,1
24-May-2018 12:54:39,-28.25,0.0663625,0.03935,0.2705875,-32.9714285714286,-29.6757142857143,11.0142857142857,9.433,-0.7746,0.13242,-0.735,-4.62455555555556,25.3,35.8211111111111,127.906,-0.0997333333333333,0.102433333333333,0.0397,-72.4333333333333,-15.2666666666667,41.54,4.35583333333333,-1.00925,0.00365,0.076925,-3.5712,4.256,-9.3538,642.424333333333,1,1,1,1
24-May-2018 12:54:39,-28.25,0.0663625,0.03935,0.2705875,-32.9714285714286,-29.6757142857143,11.0142857142857,9.433,-0.7746,0.13242,-0.735,-4.62455555555556,25.3,35.8211111111111,127.906,-0.0997333333333333,0.102433333333333,0.0397,-72.4333333333333,-15.2666666666667,41.54,4.35583333333333,-1.00925,0.00365,0.076925,-3.5712,4.256,-9.3538,642.424333333333,1,1,1,1
24-May-2018 12:54:39,-28.25,0.0663625,0.03935,0.2705875,-32.9714285714286,-29.6757142857143,11.0142857142857,9.433,-0.7746,0.13242,-0.735,-4.62455555555556,25.3,35.8211111111111,127.906,-0.0997333333333333,0.102433333333333,0.0397,-72.4333333333333,-15.2666666666667,41.54,4.35583333333333,-1.00925,0.00365,0.076925,-3.5712,4.256,-9.3538,642.424333333333,1,1,1,1
24-May-2018 12:54:39,-28.25,0.0663625,0.03935,0.2705875,-32.9714285714286,-29.6757142857143,11.0142857142857,9.433,-0.7746,0.13242,-0.735,-4.62455555555556,25.3,35.8211111111111,127.906,-0.0997333333333333,0.102433333333333,0.0397,-72.4333333333333,-15.2666666666667,41.54,4.35583333333333,-1.00925,0.00365,0.076925,-3.5712,4.256,-9.3538,642.424333333333,1,1,1,1
24-May-2018 12:54:40,-6.44444444444444,0.561085714285714,0.203371428571429,0.140071428571429,-77.55,-41.2,-20.27225,9.433,-0.7423,0.26438,-0.68902,29.2162222222222,-2.98466666666667,28.0788888888889,124.072,0.50485,0.345333333333333,0.520716666666667,15.7338,-36.786,17.73,4.4645,-0.25545,-0.04305,0.765725,41.5002,-21.8288,-287.63,928.572333333333,1,1,1,1
24-May-2018 12:54:40,-6.44444444444444,0.561085714285714,0.203371428571429,0.140071428571429,-77.55,-41.2,-20.27225,9.433,-0.7423,0.26438,-0.68902,29.2162222222222,-2.98466666666667,28.0788888888889,124.072,0.50485,0.345333333333333,0.520716666666667,15.7338,-36.786,17.73,4.4645,-0.25545,-0.04305,0.765725,41.5002,-21.8288,-287.63,928.572333333333,1,1,1,1
24-May-2018 12:54:40,-6.44444444444444,0.561085714285714,0.203371428571429,0.140071428571429,-77.55,-41.2,-20.27225,9.433,-0.7423,0.26438,-0.68902,29.2162222222222,-2.98466666666667,28.0788888888889,124.072,0.50485,0.345333333333333,0.520716666666667,15.7338,-36.786,17.73,4.4645,-0.25545,-0.04305,0.765725,41.5002,-21.8288,-287.63,928.572333333333,1,1,1,1
24-May-2018 12:54:40,-6.44444444444444,0.561085714285714,0.203371428571429,0.140071428571429,-77.55,-41.2,-20.27225,9.433,-0.7423,0.26438,-0.68902,29.2162222222222,-2.98466666666667,28.0788888888889,124.072,0.50485,0.345333333333333,0.520716666666667,15.7338,-36.786,17.73,4.4645,-0.25545,-0.04305,0.765725,41.5002,-21.8288,-287.63,928.572333333333,1,1,1,1
24-May-2018 12:54:41,9,-0.07938,0.02348,0.2395,-52.008,-26.4,-21.3534,11.124,-0.761675,0.11335,-0.6973,19.009,-3.950625,-5.63375,124.072,-0.0686,0.0752333333333333,0.0113,-59.332,-23.128,37.613,3.99025,0.3989,0.406416666666667,0.50775,51.061,6.329,4.2684,1077.897,1,0,1,1
24-May-2018 12:54:41,9,-0.07938,0.02348,0.2395,-52.008,-26.4,-21.3534,11.124,-0.761675,0.11335,-0.6973,19.009,-3.950625,-5.63375,124.072,-0.0686,0.0752333333333333,0.0113,-59.332,-23.128,37.613,3.99025,0.3989,0.406416666666667,0.50775,51.061,6.329,4.2684,1077.897,1,0,1,1
24-May-2018 12:54:41,9,-0.07938,0.02348,0.2395,-52.008,-26.4,-21.3534,11.124,-0.761675,0.11335,-0.6973,19.009,-3.950625,-5.63375,124.072,-0.0686,0.0752333333333333,0.0113,-59.332,-23.128,37.613,3.99025,0.3989,0.406416666666667,0.50775,51.061,6.329,4.2684,1077.897,1,0,1,1
24-May-2018 12:54:41,9,-0.07938,0.02348,0.2395,-52.008,-26.4,-21.3534,11.124,-0.761675,0.11335,-0.6973,19.009,-3.950625,-5.63375,124.072,-0.0686,0.0752333333333333,0.0113,-59.332,-23.128,37.613,3.99025,0.3989,0.406416666666667,0.50775,51.061,6.329,4.2684,1077.897,1,0,1,1
24-May-2018 12:54:42,21.4444444444444,0.1874,0.0336,0.1937,-48.98,-49.65,-16.73,8.947,-0.714125,0.179025,-0.67675,-43.3444444444444,6.69355555555556,-11.1655555555556,124.072,0.624125,0.502925,0.528625,-1.9425,-43.35,15.6275,4.34,0.49815,0.462075,0.6121,-37.744,4.5976,10.8048,1112.455,1,1,1,1
24-May-2018 12:54:42,21.4444444444444,0.1874,0.0336,0.1937,-48.98,-49.65,-16.73,8.947,-0.714125,0.179025,-0.67675,-43.3444444444444,6.69355555555556,-11.1655555555556,124.072,0.624125,0.502925,0.528625,-1.9425,-43.35,15.6275,4.34,0.49815,0.462075,0.6121,-37.744,4.5976,10.8048,1112.455,1,1,1,1
24-May-2018 12:54:42,21.4444444444444,0.1874,0.0336,0.1937,-48.98,-49.65,-16.73,8.947,-0.714125,0.179025,-0.67675,-43.3444444444444,6.69355555555556,-11.1655555555556,124.072,0.624125,0.502925,0.528625,-1.9425,-43.35,15.6275,4.34,0.49815,0.462075,0.6121,-37.744,4.5976,10.8048,1112.455,1,1,1,1
24-May-2018 12:54:42,21.4444444444444,0.1874,0.0336,0.1937,-48.98,-49.65,-16.73,8.947,-0.714125,0.179025,-0.67675,-43.3444444444444,6.69355555555556,-11.1655555555556,124.072,0.624125,0.502925,0.528625,-1.9425,-43.35,15.6275,4.34,0.49815,0.462075,0.6121,-37.744,4.5976,10.8048,1112.455,1,1,1,1
24-May-2018 12:54:43,30.5555555555556,-0.00824285714285714,-0.0756857142857143,0.330314285714286,-14.099,-23.9271428571429,-1.823,11.0313333333333,-0.8038,0.350175,-0.5984,-34.2388888888889,-16.5844444444444,16.0458888888889,128.637,0.420366666666667,0.3226,0.457266666666667,40.0357142857143,49.0614285714286,-18.9628571428571,4.835,0.573266666666667,0.103766666666667,0.434566666666667,92.5305,10.305,-39.9695,1135.575,1,1,1,1
24-May-2018 12:54:43,30.5555555555556,-0.00824285714285714,-0.0756857142857143,0.330314285714286,-14.099,-23.9271428571429,-1.823,11.0313333333333,-0.8038,0.350175,-0.5984,-34.2388888888889,-16.5844444444444,16.0458888888889,128.637,0.420366666666667,0.3226,0.457266666666667,40.0357142857143,49.0614285714286,-18.9628571428571,4.835,0.573266666666667,0.103766666666667,0.434566666666667,92.5305,10.305,-39.9695,1135.575,1,1,1,1
24-May-2018 12:54:43,30.5555555555556,-0.00824285714285714,-0.0756857142857143,0.330314285714286,-14.099,-23.9271428571429,-1.823,11.0313333333333,-0.8038,0.350175,-0.5984,-34.2388888888889,-16.5844444444444,16.0458888888889,128.637,0.420366666666667,0.3226,0.457266666666667,40.0357142857143,49.0614285714286,-18.9628571428571,4.835,0.573266666666667,0.103766666666667,0.434566666666667,92.5305,10.305,-39.9695,1135.575,1,1,1,1
24-May-2018 12:54:43,30.5555555555556,-0.00824285714285714,-0.0756857142857143,0.330314285714286,-14.099,-23.9271428571429,-1.823,11.0313333333333,-0.8038,0.350175,-0.5984,-34.2388888888889,-16.5844444444444,16.0458888888889,128.637,0.420366666666667,0.3226,0.457266666666667,40.0357142857143,49.0614285714286,-18.9628571428571,4.835,0.573266666666667,0.103766666666667,0.434566666666667,92.5305,10.305,-39.9695,1135.575,1,1,1,1
24-May-2018 12:54:44,37.1,0.077375,-0.0529125,0.3065875,-6.82333333333333,43.53,8.80966666666666,10.20225,-0.85066,0.41106,-0.51752,-3.599,-35.394,22.4228,128.637,0.333033333333333,0.3395,0.487816666666667,-36.8516666666667,-116.27,22.7733333333333,4.835,0.7013,0.9824,0.7561,-5.60975,0.68575,-0.0152499999999997,979.19,1,0,1,1
24-May-2018 12:54:44,37.1,0.077375,-0.0529125,0.3065875,-6.82333333333333,43.53,8.80966666666666,10.20225,-0.85066,0.41106,-0.51752,-3.599,-35.394,22.4228,128.637,0.333033333333333,0.3395,0.487816666666667,-36.8516666666667,-116.27,22.7733333333333,4.835,0.7013,0.9824,0.7561,-5.60975,0.68575,-0.0152499999999997,979.19,1,0,1,1
24-May-2018 12:54:44,37.1,0.077375,-0.0529125,0.3065875,-6.82333333333333,43.53,8.80966666666666,10.20225,-0.85066,0.41106,-0.51752,-3.599,-35.394,22.4228,128.637,0.333033333333333,0.3395,0.487816666666667,-36.8516666666667,-116.27,22.7733333333333,4.835,0.7013,0.9824,0.7561,-5.60975,0.68575,-0.0152499999999997,979.19,1,0,1,1
24-May-2018 12:54:44,37.1,0.077375,-0.0529125,0.3065875,-6.82333333333333,43.53,8.80966666666666,10.20225,-0.85066,0.41106,-0.51752,-3.599,-35.394,22.4228,128.637,0.333033333333333,0.3395,0.487816666666667,-36.8516666666667,-116.27,22.7733333333333,0,0.7013,0.9824,0.7561,-5.60975,0.68575,-0.0152499999999997,979.19,1,0,1,1
24-May-2018 12:54:45,40.7142857142857,-0.102266666666667,-0.161,0.458116666666667,-51.225,-172.525,-1.60725,12.5423333333333,-0.76455,0.470975,-0.520075,-12.27,-34.09,-23.917,128.637,0.1791,0.276575,0.2647,131.251333333333,-46.99,-61.0433333333333,4.7535,0.91435,0.78905,0.4316,2.195,-6.6155,-10.64,930.2165,1,1,1,1
24-May-2018 12:54:45,40.7142857142857,-0.102266666666667,-0.161,0.458116666666667,-51.225,-172.525,-1.60725,12.5423333333333,-0.76455,0.470975,-0.520075,-12.27,-34.09,-23.917,128.637,0.1791,0.276575,0.2647,131.251333333333,-46.99,-61.0433333333333,4.7535,0.91435,0.78905,0.4316,2.195,-6.6155,-10.64,930.2165,1,1,1,1
24-May-2018 12:54:45,40.7142857142857,-0.102266666666667,-0.161,0.458116666666667,-51.225,-172.525,-1.60725,12.5423333333333,-0.76455,0.470975,-0.520075,-12.27,-34.09,-23.917,128.637,0.1791,0.276575,0.2647,131.251333333333,-46.99,-61.0433333333333,4.7535,0.91435,0.78905,0.4316,2.195,-6.6155,-10.64,930.2165,1,1,1,1
24-May-2018 12:54:45,40.7142857142857,-0.102266666666667,-0.161,0.458116666666667,-51.225,-172.525,-1.60725,12.5423333333333,-0.76455,0.470975,-0.520075,-12.27,-34.09,-23.917,128.637,0.1791,0.276575,0.2647,131.251333333333,-46.99,-61.0433333333333,4.7535,0.91435,0.78905,0.4316,2.195,-6.6155,-10.64,930.2165,1,1,1,1
24-May-2018 12:54:46,42.8571428571429,0.03045,0.0945,0.2327,-25.44,-82.55,-14.68125,10.287,-1.02086666666667,0.0974333333333333,-0.836466666666667,13.83,-57.004,-36.6,125.724,0.83725,0.8115,0.47045,95.4433333333333,96.8133333333333,-51.48,4.648,0.372375,0.8987,0.52465,0.2072,-3.5976,-41.1338,930.2165,1,0,1,1
24-May-2018 12:54:46,42.8571428571429,0.03045,0.0945,0.2327,-25.44,-82.55,-14.68125,10.287,-1.02086666666667,0.0974333333333333,-0.836466666666667,13.83,-57.004,-36.6,125.724,0.83725,0.8115,0.47045,95.4433333333333,96.8133333333333,-51.48,4.648,0.372375,0.8987,0.52465,0.2072,-3.5976,-41.1338,930.2165,1,0,1,1
24-May-2018 12:54:46,42.8571428571429,0.03045,0.0945,0.2327,-25.44,-82.55,-14.68125,10.287,-1.02086666666667,0.0974333333333333,-0.836466666666667,13.83,-57.004,-36.6,125.724,0.83725,0.8115,0.47045,95.4433333333333,96.8133333333333,-51.48,4.648,0.372375,0.8987,0.52465,0.2072,-3.5976,-41.1338,930.2165,1,0,1,1
24-May-2018 12:54:46,42.8571428571429,0.03045,0.0945,0.2327,-25.44,-82.55,-14.68125,10.287,-1.02086666666667,0.0974333333333333,-0.836466666666667,13.83,-57.004,-36.6,125.724,0.83725,0.8115,0.47045,95.4433333333333,96.8133333333333,-51.48,4.648,0.372375,0.8987,0.52465,0.2072,-3.5976,-41.1338,0,1,0,1,1
24-May-2018 12:54:47,44.2857142857143,0.2345,-0.1393,0.523828571428571,-17.84,-64.8816666666667,-24.1116666666667,12.9766666666667,-0.712425,0.069725,-0.599275,-0.0441999999999997,4.4656,-15.354,122.811,0.518116666666667,0.344533333333333,0.489233333333333,14.565,-74.09,14.3766666666667,4.6604,0.4077,0.45978,0.0742,15.4026,2.4636,1.8902,795.053666666667,1,1,1,1
24-May-2018 12:54:47,44.2857142857143,0.2345,-0.1393,0.523828571428571,-17.84,-64.8816666666667,-24.1116666666667,12.9766666666667,-0.712425,0.069725,-0.599275,-0.0441999999999997,4.4656,-15.354,122.811,0.518116666666667,0.344533333333333,0.489233333333333,14.565,-74.09,14.3766666666667,4.6604,0.4077,0.45978,0.0742,15.4026,2.4636,1.8902,795.053666666667,1,1,1,1
24-May-2018 12:54:47,44.2857142857143,0.2345,-0.1393,0.523828571428571,-17.84,-64.8816666666667,-24.1116666666667,12.9766666666667,-0.712425,0.069725,-0.599275,-0.0441999999999997,4.4656,-15.354,122.811,0.518116666666667,0.344533333333333,0.489233333333333,14.565,-74.09,14.3766666666667,4.6604,0.4077,0.45978,0.0742,15.4026,2.4636,1.8902,795.053666666667,1,1,1,1
24-May-2018 12:54:47,44.2857142857143,0.2345,-0.1393,0.523828571428571,-17.84,-64.8816666666667,-24.1116666666667,12.9766666666667,-0.712425,0.069725,-0.599275,-0.0441999999999997,4.4656,-15.354,122.811,0.518116666666667,0.344533333333333,0.489233333333333,14.565,-74.09,14.3766666666667,4.6604,0.4077,0.45978,0.0742,15.4026,2.4636,1.8902,795.053666666667,1,1,1,1
24-May-2018 12:54:48,48.3,0.054575,0.1336,0.5299375,19.51075,-80.65,-28.85575,10.701,-0.905675,0.02235,-0.626075,28.8375,18.703375,-16.34625,122.811,0.4517,0.1052,0.40385,-96.8,-48.3175,55.55,4.435,0.28365,0.81935,0.507066666666667,-17.1025,0.77775,-21.03625,794.181,1,1,1,1
24-May-2018 12:54:48,48.3,0.054575,0.1336,0.5299375,19.51075,-80.65,-28.85575,10.701,-0.905675,0.02235,-0.626075,28.8375,18.703375,-16.34625,122.811,0.4517,0.1052,0.40385,-96.8,-48.3175,55.55,4.435,0.28365,0.81935,0.507066666666667,-17.1025,0.77775,-21.03625,794.181,1,1,1,1
24-May-2018 12:54:48,48.3,0.054575,0.1336,0.5299375,19.51075,-80.65,-28.85575,10.701,-0.905675,0.02235,-0.626075,28.8375,18.703375,-16.34625,122.811,0.4517,0.1052,0.40385,-96.8,-48.3175,55.55,4.435,0.28365,0.81935,0.507066666666667,-17.1025,0.77775,-21.03625,794.181,1,1,1,1
24-May-2018 12:54:48,48.3,0.054575,0.1336,0.5299375,19.51075,-80.65,-28.85575,10.701,-0.905675,0.02235,-0.626075,28.8375,18.703375,-16.34625,122.811,0.4517,0.1052,0.40385,-96.8,-48.3175,55.55,4.435,0.28365,0.81935,0.507066666666667,-17.1025,0.77775,-21.03625,794.181,1,1,1,1
24-May-2018 12:54:49,49.6,0.119611111111111,-0.0914333333333333,0.552033333333333,49.477875,1.06250000000001,4.4665,10.701,-0.92604,0.27728,-0.51368,20.0266666666667,-0.151111111111111,30.6388888888889,118.9555,0.1803,0.33732,0.1666,-9.36500000000001,-142.625,33.0125,4.40525,0.188216666666667,0.759883333333333,0.541433333333333,-29.6345,13.3535,-8.811,966.30075,1,1,1,1
24-May-2018 12:54:49,49.6,0.119611111111111,-0.0914333333333333,0.552033333333333,49.477875,1.06250000000001,4.4665,10.701,-0.92604,0.27728,-0.51368,20.0266666666667,-0.151111111111111,30.6388888888889,118.9555,0.1803,0.33732,0.1666,-9.36500000000001,-142.625,33.0125,4.40525,0.188216666666667,0.759883333333333,0.541433333333333,-29.6345,13.3535,-8.811,966.30075,1,1,1,1
24-May-2018 12:54:49,49.6,0.119611111111111,-0.0914333333333333,0.552033333333333,49.477875,1.06250000000001,4.4665,10.701,-0.92604,0.27728,-0.51368,20.0266666666667,-0.151111111111111,30.6388888888889,118.9555,0.1803,0.33732,0.1666,-9.36500000000001,-142.625,33.0125,4.40525,0.188216666666667,0.759883333333333,0.541433333333333,-29.6345,13.3535,-8.811,966.30075,1,1,1,1
24-May-2018 12:54:49,49.6,0.119611111111111,-0.0914333333333333,0.552033333333333,49.477875,1.06250000000001,4.4665,10.701,-0.92604,0.27728,-0.51368,20.0266666666667,-0.151111111111111,30.6388888888889,118.9555,0.1803,0.33732,0.1666,-9.36500000000001,-142.625,33.0125,4.40525,0.188216666666667,0.759883333333333,0.541433333333333,-29.6345,13.3535,-8.811,966.30075,1,1,1,1
24-May-2018 12:54:50,51,0.18208,-0.06497,0.42842,-15.1125,-15.51375,22.1175,10.701,-0.789825,0.240125,-0.50525,31.96,-20.5866666666667,25.7755555555556,115.1,0.84268,0.53794,0.44728,66.0092,103.906,-4.548,4.358,0.306416666666667,0.7368,0.337716666666667,3.61275,-0.8535,-1.23475,862.873,1,1,1,1
24-May-2018 12:54:50,51,0.18208,-0.06497,0.42842,-15.1125,-15.51375,22.1175,10.701,-0.789825,0.240125,-0.50525,31.96,-20.5866666666667,25.7755555555556,115.1,0.84268,0.53794,0.44728,66.0092,103.906,-4.548,4.358,0.306416666666667,0.7368,0.337716666666667,3.61275,-0.8535,-1.23475,862.873,1,1,1,1
24-May-2018 12:54:50,51,0.18208,-0.06497,0.42842,-15.1125,-15.51375,22.1175,0,-0.789825,0.240125,-0.50525,31.96,-20.5866666666667,25.7755555555556,115.1,0.84268,0.53794,0.44728,66.0092,103.906,-4.548,4.358,0.306416666666667,0.7368,0.337716666666667,3.61275,-0.8535,-1.23475,862.873,1,1,1,1
24-May-2018 12:54:50,51,0.18208,-0.06497,0.42842,-15.1125,-15.51375,22.1175,0,-0.789825,0.240125,-0.50525,31.96,-20.5866666666667,25.7755555555556,115.1,0.84268,0.53794,0.44728,66.0092,103.906,-4.548,4.358,0.306416666666667,0.7368,0.337716666666667,3.61275,-0.8535,-1.23475,862.873,1,1,1,1
24-May-2018 12:54:51,51.7777777777778,-0.15346,-0.06822,0.49944,10.5307142857143,120.414285714286,12.1505714285714,9.694,-0.791366666666667,0.2456,-0.5183,3.43616666666667,-9.07666666666667,-0.394833333333333,115.1,0.396133333333333,0.350066666666667,0.779,-18.56,17.4766666666667,-76.3333333333333,4.681,0.425275,0.766775,0.1953,-9.817,-6.0976,21.878,794.5705,1,0,1,1
24-May-2018 12:54:51,51.7777777777778,-0.15346,-0.06822,0.49944,10.5307142857143,120.414285714286,12.1505714285714,9.694,-0.791366666666667,0.2456,-0.5183,3.43616666666667,-9.07666666666667,-0.394833333333333,115.1,0.396133333333333,0.350066666666667,0.779,-18.56,17.4766666666667,-76.3333333333333,4.681,0.425275,0.766775,0.1953,-9.817,-6.0976,21.878,794.5705,1,0,1,1
24-May-2018 12:54:51,51.7777777777778,-0.15346,-0.06822,0.49944,10.5307142857143,120.414285714286,12.1505714285714,9.694,-0.791366666666667,0.2456,-0.5183,3.43616666666667,-9.07666666666667,-0.394833333333333,115.1,0.396133333333333,0.350066666666667,0.779,-18.56,17.4766666666667,-76.3333333333333,4.681,0.425275,0.766775,0.1953,-9.817,-6.0976,21.878,794.5705,1,0,1,1
24-May-2018 12:54:51,51.7777777777778,-0.15346,-0.06822,0.49944,10.5307142857143,120.414285714286,12.1505714285714,9.694,-0.791366666666667,0.2456,-0.5183,3.43616666666667,-9.07666666666667,-0.394833333333333,115.1,0.396133333333333,0.350066666666667,0.779,-18.56,17.4766666666667,-76.3333333333333,4.681,0.425275,0.766775,0.1953,-9.817,-6.0976,21.878,794.5705,1,0,1,1
24-May-2018 12:54:52,52.2727272727273,0.59915,-0.0838833333333333,0.453983333333333,12.2234,149.518,43.816,10.8096666666667,-0.89776,0.26204,-0.58882,14.0105555555556,6.32,-22.3,112.150666666667,1.84583333333333,1.54956666666667,0.655266666666667,-7.26,8.55,23.5825,4.73928571428571,0.7789,1.22036666666667,0.578166666666667,33.24675,13.04875,-11.41775,723.9,1,1,1,1
24-May-2018 12:54:52,52.2727272727273,0.59915,-0.0838833333333333,0.453983333333333,12.2234,149.518,43.816,10.8096666666667,-0.89776,0.26204,-0.58882,14.0105555555556,6.32,-22.3,112.150666666667,1.84583333333333,1.54956666666667,0.655266666666667,-7.26,8.55,23.5825,4.73928571428571,0.7789,1.22036666666667,0.578166666666667,33.24675,13.04875,-11.41775,723.9,1,1,1,1
24-May-2018 12:54:52,52.2727272727273,0.59915,-0.0838833333333333,0.453983333333333,12.2234,149.518,43.816,10.8096666666667,-0.89776,0.26204,-0.58882,14.0105555555556,6.32,-22.3,112.150666666667,1.84583333333333,1.54956666666667,0.655266666666667,-7.26,8.55,23.5825,4.73928571428571,0.7789,1.22036666666667,0.578166666666667,33.24675,13.04875,-11.41775,723.9,1,1,1,1
24-May-2018 12:54:52,52.2727272727273,0.59915,-0.0838833333333333,0.453983333333333,12.2234,149.518,43.816,10.8096666666667,-0.89776,0.26204,-0.58882,14.0105555555556,6.32,-22.3,112.150666666667,1.84583333333333,1.54956666666667,0.655266666666667,-7.26,8.55,23.5825,4.73928571428571,0.7789,1.22036666666667,0.578166666666667,33.24675,13.04875,-11.41775,723.9,1,1,1,1
