TIME,HELMET_RAW,BELT_ACC_X,BELT_ACC_Y,BELT_ACC_Z,BELT_ANG_X,BELT_ANG_Y,BELT_ANG_Z,BELT_LUMINOSITY,NECK_ACC_X,NECK_ACC_Y,NECK_ACC_Z,NECK_ANG_X,NECK_ANG_Y,NECK_ANG_Z,NECK_LUMINOSITY,PCKT_ACC_X,PCKT_ACC_Y,PCKT_ACC_Z,PCKT_ANG_X,PCKT_ANG_Y,PCKT_ANG_Z,PCKT_LUMINOSITY,WRST_ACC_X,WRST_ACC_Y,WRST_ACC_Z,WRST_ANG_X,WRST_ANG_Y,WRST_ANG_Z,WRST_LUMINOSITY,IR_1,IR_2,IR_3,IR_4
24-May-2018 12:56:42,1232,-0.4308,-0.4903,0.61645,-165,110,37.9,10.577,-0.8986,-0.1517,-0.5214,74.1633333333333,13.88,51.3566666666667,148.018,0.4229,0.3526,-0.0564,-51.1775,-9.14999999999999,5.82,4.05225,0.3375,1.24,-0.3014,-19.512,2.378,4.268,505.802,1,1,1,1
24-May-2018 12:56:42,1232,-0.4308,-0.4903,0.61645,-165,110,37.9,10.577,-0.8986,-0.1517,-0.5214,74.1633333333333,13.88,51.3566666666667,148.018,0.4229,0.3526,-0.0564,-51.1775,-9.14999999999999,5.82,4.05225,0.3375,1.24,-0.3014,-19.512,2.378,4.268,505.802,1,1,1,1
24-May-2018 12:56:42,1232,-0.4308,-0.4903,0.61645,-165,110,37.9,10.577,-0.8986,-0.1517,-0.5214,74.1633333333333,13.88,51.3566666666667,148.018,0.4229,0.3526,-0.0564,-51.1775,-9.14999999999999,5.82,4.05225,0.3375,1.24,-0.3014,-19.512,2.378,4.268,505.802,1,1,1,1
24-May-2018 12:56:42,1232,-0.4308,-0.4903,0.61645,-165,110,37.9,10.577,-0.8986,-0.1517,-0.5214,74.1633333333333,13.88,51.3566666666667,148.018,0.4229,0.3526,-0.0564,-51.1775,-9.14999999999999,5.82,0,0.3375,1.24,-0.3014,-19.512,2.378,4.268,505.802,1,1,1,1
24-May-2018 12:56:43,1232,0.29655,-0.202,0.441883333333333,-26.3025,-203.133333333333,-88.0841666666667,11.185,-0.89605,-0.091975,-0.543875,84.66125,15.3465,75.6675,148.018,0.73606,0.47264,0.68454,-30.988,30.376,-11.385,3.7565,0.110866666666667,0.690366666666667,-0.280983333333333,-10.1931666666667,5.13216666666667,17.5,496.552666666667,1,1,1,1
24-May-2018 12:56:43,1232,0.29655,-0.202,0.441883333333333,-26.3025,-203.133333333333,-88.0841666666667,11.185,-0.89605,-0.091975,-0.543875,84.66125,15.3465,75.6675,148.018,0.73606,0.47264,0.68454,-30.988,30.376,-11.385,3.7565,0.110866666666667,0.690366666666667,-0.280983333333333,-10.1931666666667,5.13216666666667,17.5,496.552666666667,1,1,1,1
24-May-2018 12:56:43,1232,0.29655,-0.202,0.441883333333333,-26.3025,-203.133333333333,-88.0841666666667,11.185,-0.89605,-0.091975,-0.543875,84.66125,15.3465,75.6675,148.018,0.73606,0.47264,0.68454,-30.988,30.376,-11.385,3.7565,0.110866666666667,0.690366666666667,-0.280983333333333,-10.1931666666667,5.13216666666667,17.5,496.552666666667,1,1,1,1
24-May-2018 12:56:43,1232,0.29655,-0.202,0.441883333333333,-26.3025,-203.133333333333,-88.0841666666667,11.185,-0.89605,-0.091975,-0.543875,84.66125,15.3465,75.6675,148.018,0.73606,0.47264,0.68454,-30.988,30.376,-11.385,3.7565,0.110866666666667,0.690366666666667,-0.280983333333333,-10.1931666666667,5.13216666666667,17.5,496.552666666667,1,1,1,1
24-May-2018 12:56:44,1232,0.09254,-0.46112,0.4583,102.615,-20.375,-3.875,14.0345,-0.8878,0.0301666666666667,-0.562533333333333,106.116666666667,28.6383333333333,106.7,148.018,0.41234,0.30892,0.10144,87.7466666666667,5.66666666666667,-67.632,4.08675,0.056775,0.579,-0.3205,9.2562,2.427,-8.4268,464.174666666667,1,1,1,1
24-May-2018 12:56:44,1232,0.09254,-0.46112,0.4583,102.615,-20.375,-3.875,14.0345,-0.8878,0.0301666666666667,-0.562533333333333,106.116666666667,28.6383333333333,106.7,148.018,0.41234,0.30892,0.10144,87.7466666666667,5.66666666666667,-67.632,4.08675,0.056775,0.579,-0.3205,9.2562,2.427,-8.4268,464.174666666667,1,1,1,1
24-May-2018 12:56:44,1232,0.09254,-0.46112,0.4583,102.615,-20.375,-3.875,14.0345,-0.8878,0.0301666666666667,-0.562533333333333,106.116666666667,28.6383333333333,106.7,148.018,0.41234,0.30892,0.10144,87.7466666666667,5.66666666666667,-67.632,4.08675,0.056775,0.579,-0.3205,9.2562,2.427,-8.4268,464.174666666667,1,1,1,1
24-May-2018 12:56:44,1232,0.09254,-0.46112,0.4583,102.615,-20.375,-3.875,14.0345,-0.8878,0.0301666666666667,-0.562533333333333,106.116666666667,28.6383333333333,106.7,148.018,0.41234,0.30892,0.10144,87.7466666666667,5.66666666666667,-67.632,4.08675,0.056775,0.579,-0.3205,9.2562,2.427,-8.4268,464.174666666667,1,1,1,1
24-May-2018 12:56:45,1155.57142857143,0.212566666666667,-0.13615,0.320983333333333,-41.1428571428571,1.20571428571429,-25.2514285714286,10.162,-0.8267,0.11725,-0.601175,113.616666666667,14.7226666666667,109.45,148.018,0.44414,0.44108,0.24404,-35.5583333333333,-91.56,15.6383333333333,4.1216,0.425314285714286,1.03958571428571,-0.267842857142857,-3.08342857142857,-3.90257142857143,-0.287571428571428,502.075,1,0,1,1
24-May-2018 12:56:45,1155.57142857143,0.212566666666667,-0.13615,0.320983333333333,-41.1428571428571,1.20571428571429,-25.2514285714286,10.162,-0.8267,0.11725,-0.601175,113.616666666667,14.7226666666667,109.45,148.018,0.44414,0.44108,0.24404,-35.5583333333333,-91.56,15.6383333333333,4.1216,0.425314285714286,1.03958571428571,-0.267842857142857,-3.08342857142857,-3.90257142857143,-0.287571428571428,502.075,1,0,1,1
24-May-2018 12:56:45,1155.57142857143,0.212566666666667,-0.13615,0.320983333333333,-41.1428571428571,1.20571428571429,-25.2514285714286,10.162,-0.8267,0.11725,-0.601175,113.616666666667,14.7226666666667,109.45,148.018,0.44414,0.44108,0.24404,-35.5583333333333,-91.56,15.6383333333333,4.1216,0.425314285714286,1.03958571428571,-0.267842857142857,-3.08342857142857,-3.90257142857143,-0.287571428571428,502.075,1,0,1,1
24-May-2018 12:56:45,1155.57142857143,0.212566666666667,-0.13615,0.320983333333333,-41.1428571428571,1.20571428571429,-25.2514285714286,10.162,-0.8267,0.11725,-0.601175,113.616666666667,14.7226666666667,109.45,148.018,0.44414,0.44108,0.24404,-35.5583333333333,-91.56,15.6383333333333,4.1216,0.425314285714286,1.03958571428571,-0.267842857142857,-3.08342857142857,-3.90257142857143,-0.287571428571428,502.075,1,0,1,1
24-May-2018 12:56:46,212.1,0.280711111111111,-0.0572222222222222,0.517688888888889,55.82,-55.4075,-46.8475,10.162,-0.816775,0.154,-0.5982,82.9625,-17.90875,75.63625,157.78825,0.413625,0.3536625,0.4543375,-32.0546666666667,-19.91,22.3193333333333,3.697,0.33446,0.68782,-0.28026,16.8191666666667,-1.07716666666667,-0.711333333333333,503.475,1,1,1,1
24-May-2018 12:56:46,212.1,0.280711111111111,-0.0572222222222222,0.517688888888889,55.82,-55.4075,-46.8475,10.162,-0.816775,0.154,-0.5982,82.9625,-17.90875,75.63625,157.78825,0.413625,0.3536625,0.4543375,-32.0546666666667,-19.91,22.3193333333333,3.697,0.33446,0.68782,-0.28026,16.8191666666667,-1.07716666666667,-0.711333333333333,503.475,1,1,1,1
24-May-2018 12:56:46,212.1,0.280711111111111,-0.0572222222222222,0.517688888888889,55.82,-55.4075,-46.8475,10.162,-0.816775,0.154,-0.5982,82.9625,-17.90875,75.63625,157.78825,0.413625,0.3536625,0.4543375,-32.0546666666667,-19.91,22.3193333333333,3.697,0.33446,0.68782,-0.28026,16.8191666666667,-1.07716666666667,-0.711333333333333,503.475,1,1,1,1
24-May-2018 12:56:46,212.1,0.280711111111111,-0.0572222222222222,0.517688888888889,55.82,-55.4075,-46.8475,10.162,-0.816775,0.154,-0.5982,82.9625,-17.90875,75.63625,157.78825,0.413625,0.3536625,0.4543375,-32.0546666666667,-19.91,22.3193333333333,3.697,0.33446,0.68782,-0.28026,16.8191666666667,-1.07716666666667,-0.711333333333333,503.475,1,1,1,1
24-May-2018 12:56:47,-1978.88888888889,0.24394,-0.08866,0.36369,47.9975,38.3175,30.945,10.162,-0.805616666666667,0.204283333333333,-0.593266666666667,42.42875,-14.695,57.5725,161.045,0.669175,0.5245,0.687025,-6.68028571428571,-36.7128571428571,10.2604285714286,4.106,0.00950000000000001,0.9761,-0.38735,-6.38485714285714,2.87442857142857,-6.202,481.4312,1,0,1,1
24-May-2018 12:56:47,-1978.88888888889,0.24394,-0.08866,0.36369,47.9975,38.3175,30.945,10.162,-0.805616666666667,0.204283333333333,-0.593266666666667,42.42875,-14.695,57.5725,161.045,0.669175,0.5245,0.687025,-6.68028571428571,-36.7128571428571,10.2604285714286,4.106,0.00950000000000001,0.9761,-0.38735,-6.38485714285714,2.87442857142857,-6.202,481.4312,1,0,1,1
24-May-2018 12:56:47,-1978.88888888889,0.24394,-0.08866,0.36369,47.9975,38.3175,30.945,10.162,-0.805616666666667,0.204283333333333,-0.593266666666667,42.42875,-14.695,57.5725,161.045,0.669175,0.5245,0.687025,-6.68028571428571,-36.7128571428571,10.2604285714286,4.106,0.00950000000000001,0.9761,-0.38735,-6.38485714285714,2.87442857142857,-6.202,481.4312,1,0,1,1
24-May-2018 12:56:47,-1978.88888888889,0.24394,-0.08866,0.36369,47.9975,38.3175,30.945,10.162,-0.805616666666667,0.204283333333333,-0.593266666666667,42.42875,-14.695,57.5725,161.045,0.669175,0.5245,0.687025,-6.68028571428571,-36.7128571428571,10.2604285714286,4.106,0.00950000000000001,0.9761,-0.38735,-6.38485714285714,2.87442857142857,-6.202,481.4312,1,0,1,1
24-May-2018 12:56:48,-713,0.1978,0.0372444444444444,0.470044444444444,4.26,-71.577125,-28.107875,10.162,-0.810783333333334,0.3144,-0.654216666666667,29.53875,-5.66025,34.19375,161.045,0.626483333333333,0.334433333333333,0.695083333333333,21.6283333333333,71.5983333333333,31.8451666666667,4.4838,0.3744125,1.3585125,-0.3319625,-5.518125,8.40725,10.88425,450.568,1,1,1,1
24-May-2018 12:56:48,-713,0.1978,0.0372444444444444,0.470044444444444,4.26,-71.577125,-28.107875,10.162,-0.810783333333334,0.3144,-0.654216666666667,29.53875,-5.66025,34.19375,161.045,0.626483333333333,0.334433333333333,0.695083333333333,21.6283333333333,71.5983333333333,31.8451666666667,4.4838,0.3744125,1.3585125,-0.3319625,-5.518125,8.40725,10.88425,450.568,1,1,1,1
24-May-2018 12:56:48,-713,0.1978,0.0372444444444444,0.470044444444444,4.26,-71.577125,-28.107875,10.162,-0.810783333333334,0.3144,-0.654216666666667,29.53875,-5.66025,34.19375,161.045,0.626483333333333,0.334433333333333,0.695083333333333,21.6283333333333,71.5983333333333,31.8451666666667,4.4838,0.3744125,1.3585125,-0.3319625,-5.518125,8.40725,10.88425,450.568,1,1,1,1
24-May-2018 12:56:48,-713,0.1978,0.0372444444444444,0.470044444444444,4.26,-71.577125,-28.107875,10.162,-0.810783333333334,0.3144,-0.654216666666667,29.53875,-5.66025,34.19375,161.045,0.626483333333333,0.334433333333333,0.695083333333333,21.6283333333333,71.5983333333333,31.8451666666667,4.4838,0.3744125,1.3585125,-0.3319625,-5.518125,8.40725,10.88425,450.568,1,1,1,1
24-May-2018 12:56:49,1565,-0.218257142857143,-0.1727,0.408428571428571,49.756,-16.34,14.518,11.208,-0.7336,0.26808,-0.67632,61.4655555555555,-16.4666666666667,34.2366666666667,141.699,0.71342,0.56896,0.62482,-2.28125,45.7025,-5.47025,4.118,0.235842857142857,0.5482,-0.231185714285714,-2.429,-8.933,-6.63633333333333,470.228666666667,1,1,1,1
24-May-2018 12:56:49,1565,-0.218257142857143,-0.1727,0.408428571428571,49.756,-16.34,14.518,11.208,-0.7336,0.26808,-0.67632,61.4655555555555,-16.4666666666667,34.2366666666667,141.699,0.71342,0.56896,0.62482,-2.28125,45.7025,-5.47025,4.118,0.235842857142857,0.5482,-0.231185714285714,-2.429,-8.933,-6.63633333333333,470.228666666667,1,1,1,1
24-May-2018 12:56:49,1565,-0.218257142857143,-0.1727,0.408428571428571,49.756,-16.34,14.518,11.208,-0.7336,0.26808,-0.67632,61.4655555555555,-16.4666666666667,34.2366666666667,141.699,0.71342,0.56896,0.62482,-2.28125,45.7025,-5.47025,4.118,0.235842857142857,0.5482,-0.231185714285714,-2.429,-8.933,-6.63633333333333,470.228666666667,1,1,1,1
24-May-2018 12:56:49,1565,-0.218257142857143,-0.1727,0.408428571428571,49.756,-16.34,14.518,11.208,-0.7336,0.26808,-0.67632,61.4655555555555,-16.4666666666667,34.2366666666667,141.699,0.71342,0.56896,0.62482,-2.28125,45.7025,-5.47025,4.118,0.235842857142857,0.5482,-0.231185714285714,-2.429,-8.933,-6.63633333333333,470.228666666667,1,1,1,1
24-May-2018 12:56:50,-80.6,0.21988,-0.51032,0.63106,9.1375,-32.41875,19.808625,10.551,-0.75942,0.22394,-0.67422,33.76875,-18.1125,-2.767875,141.80225,-0.01028,0.07512,0.16922,-45.965,7.20666666666666,28.3533333333333,3.9725,0.10778,0.67004,-0.4248,2.439,12.9471666666667,2.815,483.0456,1,0,1,1
24-May-2018 12:56:50,-80.6,0.21988,-0.51032,0.63106,9.1375,-32.41875,19.808625,10.551,-0.75942,0.22394,-0.67422,33.76875,-18.1125,-2.767875,141.80225,-0.01028,0.07512,0.16922,-45.965,7.20666666666666,28.3533333333333,3.9725,0.10778,0.67004,-0.4248,2.439,12.9471666666667,2.815,483.0456,1,0,1,1
24-May-2018 12:56:50,-80.6,0.21988,-0.51032,0.63106,9.1375,-32.41875,19.808625,10.551,-0.75942,0.22394,-0.67422,33.76875,-18.1125,-2.767875,141.80225,-0.01028,0.07512,0.16922,-45.965,7.20666666666666,28.3533333333333,3.9725,0.10778,0.67004,-0.4248,2.439,12.9471666666667,2.815,483.0456,1,0,1,1
24-May-2018 12:56:50,-80.6,0.21988,-0.51032,0.63106,9.1375,-32.41875,19.808625,10.551,-0.75942,0.22394,-0.67422,33.76875,-18.1125,-2.767875,141.80225,-0.01028,0.07512,0.16922,-45.965,7.20666666666666,28.3533333333333,3.9725,0.10778,0.67004,-0.4248,2.439,12.9471666666667,2.815,483.0456,1,0,1,1
24-May-2018 12:56:51,-1965.625,0.306725,-0.2506125,0.4941875,58.515,28.255,40.3063333333333,9.48375,-0.85604,0.14424,-0.64206,38.5055555555556,2.72777777777778,-25.3555555555556,142.112,0.446957142857143,0.344471428571429,0.590228571428571,-75.7666666666667,-120.106666666667,60.5083333333333,3.87925,0.3651875,0.7241375,-0.3039375,21.2281428571429,-6.51557142857143,4.76485714285714,498.945,1,0,1,1
24-May-2018 12:56:51,-1965.625,0.306725,-0.2506125,0.4941875,58.515,28.255,40.3063333333333,9.48375,-0.85604,0.14424,-0.64206,38.5055555555556,2.72777777777778,-25.3555555555556,142.112,0.446957142857143,0.344471428571429,0.590228571428571,-75.7666666666667,-120.106666666667,60.5083333333333,3.87925,0.3651875,0.7241375,-0.3039375,21.2281428571429,-6.51557142857143,4.76485714285714,498.945,1,0,1,1
24-May-2018 12:56:51,-1965.625,0.306725,-0.2506125,0.4941875,58.515,28.255,40.3063333333333,9.48375,-0.85604,0.14424,-0.64206,38.5055555555556,2.72777777777778,-25.3555555555556,142.112,0.446957142857143,0.344471428571429,0.590228571428571,-75.7666666666667,-120.106666666667,60.5083333333333,3.87925,0.3651875,0.7241375,-0.3039375,21.2281428571429,-6.51557142857143,4.76485714285714,498.945,1,0,1,1
24-May-2018 12:56:51,-1965.625,0.306725,-0.2506125,0.4941875,58.515,28.255,40.3063333333333,9.48375,-0.85604,0.14424,-0.64206,38.5055555555556,2.72777777777778,-25.3555555555556,142.112,0.446957142857143,0.344471428571429,0.590228571428571,-75.7666666666667,-120.106666666667,60.5083333333333,3.87925,0.3651875,0.7241375,-0.3039375,21.2281428571429,-6.51557142857143,4.76485714285714,498.945,1,0,1,1
24-May-2018 12:56:52,-1398,-0.11094,-0.25074,0.5505,-73.3201428571429,-101.112857142857,-39.7222857142857,10.5022,-0.85514,-0.01094,-0.60806,43.21125,17.52725,-4.1385,142.112,0.104075,0.20275,0.30575,-115.605,-9.52833333333334,-7.18333333333333,3.9115,0.31165,1.3747,-0.488716666666667,-16.5591428571429,-4.669,6.716,484.97475,1,0,1,1
24-May-2018 12:56:52,-1398,-0.11094,-0.25074,0.5505,-73.3201428571429,-101.112857142857,-39.7222857142857,10.5022,-0.85514,-0.01094,-0.60806,43.21125,17.52725,-4.1385,142.112,0.104075,0.20275,0.30575,-115.605,-9.52833333333334,-7.18333333333333,3.9115,0.31165,1.3747,-0.488716666666667,-16.5591428571429,-4.669,6.716,484.97475,1,0,1,1
24-May-2018 12:56:52,-1398,-0.11094,-0.25074,0.5505,-73.3201428571429,-101.112857142857,-39.7222857142857,10.5022,-0.85514,-0.01094,-0.60806,43.21125,17.52725,-4.1385,142.112,0.104075,0.20275,0.30575,-115.605,-9.52833333333334,-7.18333333333333,3.9115,0.31165,1.3747,-0.488716666666667,-16.5591428571429,-4.669,6.716,484.97475,1,0,1,1
24-May-2018 12:56:52,-1398,-0.11094,-0.25074,0.5505,-73.3201428571429,-101.112857142857,-39.7222857142857,10.5022,-0.85514,-0.01094,-0.60806,43.21125,17.52725,-4.1385,142.112,0.104075,0.20275,0.30575,-115.605,-9.52833333333334,-7.18333333333333,3.9115,0.31165,1.3747,-0.488716666666667,-16.5591428571429,-4.669,6.716,484.97475,1,0,1,1
24-May-2018 12:56:53,692,-0.00825714285714287,-0.270242857142857,0.546657142857143,-3.192,7.92,39.2488,11.84625,-0.821525,-0.1457,-0.570125,27.7111111111111,0.523222222222222,-3.40744444444444,137.008666666667,0.677575,0.639625,0.52475,-5.21666666666666,1.73333333333333,-22.2066666666667,3.7385,0.3587,1.22078333333333,-0.429016666666667,-11.028875,-0.190625,-4.893375,451.312,1,1,1,1
24-May-2018 12:56:53,692,-0.00825714285714287,-0.270242857142857,0.546657142857143,-3.192,7.92,39.2488,11.84625,-0.821525,-0.1457,-0.570125,27.7111111111111,0.523222222222222,-3.40744444444444,137.008666666667,0.677575,0.639625,0.52475,-5.21666666666666,1.73333333333333,-22.2066666666667,3.7385,0.3587,1.22078333333333,-0.429016666666667,-11.028875,-0.190625,-4.893375,451.312,1,1,1,1
24-May-2018 12:56:53,692,-0.00825714285714287,-0.270242857142857,0.546657142857143,-3.192,7.92,39.2488,11.84625,-0.821525,-0.1457,-0.570125,27.7111111111111,0.523222222222222,-3.40744444444444,137.008666666667,0.677575,0.639625,0.52475,-5.21666666666666,1.73333333333333,-22.2066666666667,3.7385,0.3587,1.22078333333333,-0.429016666666667,-11.028875,-0.190625,-4.893375,451.312,1,1,1,1
24-May-2018 12:56:53,692,-0.00825714285714287,-0.270242857142857,0.546657142857143,-3.192,7.92,39.2488,11.84625,-0.821525,-0.1457,-0.570125,27.7111111111111,0.523222222222222,-3.40744444444444,137.008666666667,0.677575,0.639625,0.52475,-5.21666666666666,1.73333333333333,-22.2066666666667,3.7385,0.3587,1.22078333333333,-0.429016666666667,-11.028875,-0.190625,-4.893375,451.312,1,1,1,1
24-May-2018 12:56:54,1624.1,0.317371428571429,-0.0975142857142857,0.582714285714286,-25.5528571428571,-51.4475714285714,-34.9,10.4486666666667,-0.79742,-0.15922,-0.60162,27.6855555555556,-5.49866666666667,5.73755555555556,134.457,0.4179125,0.3602125,0.3461,82.2415,113.003333333333,-47.4741666666667,4.06,0.0613571428571429,0.631957142857143,-0.394685714285714,-8.10966666666667,13.374,-0.335333333333333,449.461666666667,1,1,1,1
24-May-2018 12:56:54,1624.1,0.317371428571429,-0.0975142857142857,0.582714285714286,-25.5528571428571,-51.4475714285714,-34.9,10.4486666666667,-0.79742,-0.15922,-0.60162,27.6855555555556,-5.49866666666667,5.73755555555556,134.457,0.4179125,0.3602125,0.3461,82.2415,113.003333333333,-47.4741666666667,4.06,0.0613571428571429,0.631957142857143,-0.394685714285714,-8.10966666666667,13.374,-0.335333333333333,449.461666666667,1,1,1,1
24-May-2018 12:56:54,1624.1,0.317371428571429,-0.0975142857142857,0.582714285714286,-25.5528571428571,-51.4475714285714,-34.9,10.4486666666667,-0.79742,-0.15922,-0.60162,27.6855555555556,-5.49866666666667,5.73755555555556,134.457,0.4179125,0.3602125,0.3461,82.2415,113.003333333333,-47.4741666666667,4.06,0.0613571428571429,0.631957142857143,-0.394685714285714,-8.10966666666667,13.374,-0.335333333333333,449.461666666667,1,1,1,1
24-May-2018 12:56:54,1624.1,0.317371428571429,-0.0975142857142857,0.582714285714286,-25.5528571428571,-51.4475714285714,-34.9,10.4486666666667,-0.79742,-0.15922,-0.60162,27.6855555555556,-5.49866666666667,5.73755555555556,134.457,0.4179125,0.3602125,0.3461,82.2415,113.003333333333,-47.4741666666667,4.06,0.0613571428571429,0.631957142857143,-0.394685714285714,-8.10966666666667,13.374,-0.335333333333333,449.461666666667,1,1,1,1
24-May-2018 12:56:55,619,0.19822,-0.31455,0.39757,59.609125,142.421375,65.41625,10.4486666666667,-0.78968,-0.20782,-0.60844,17.2252222222222,-2.681,17.2933333333333,134.457,0.321,0.31996,0.08674,-17.908,41.6,15.1328571428571,4.1286,0.15156,0.98298,-0.1543,-43.3833333333333,46.2501666666667,130.701333333333,512.773,1,1,1,1
24-May-2018 12:56:55,619,0.19822,-0.31455,0.39757,59.609125,142.421375,65.41625,10.4486666666667,-0.78968,-0.20782,-0.60844,17.2252222222222,-2.681,17.2933333333333,134.457,0.321,0.31996,0.08674,-17.908,41.6,15.1328571428571,4.1286,0.15156,0.98298,-0.1543,-43.3833333333333,46.2501666666667,130.701333333333,512.773,1,1,1,1
24-May-2018 12:56:55,619,0.19822,-0.31455,0.39757,59.609125,142.421375,65.41625,10.4486666666667,-0.78968,-0.20782,-0.60844,17.2252222222222,-2.681,17.2933333333333,134.457,0.321,0.31996,0.08674,-17.908,41.6,15.1328571428571,4.1286,0.15156,0.98298,-0.1543,-43.3833333333333,46.2501666666667,130.701333333333,512.773,1,1,1,1
24-May-2018 12:56:55,619,0.19822,-0.31455,0.39757,59.609125,142.421375,65.41625,10.4486666666667,-0.78968,-0.20782,-0.60844,17.2252222222222,-2.681,17.2933333333333,134.457,0.321,0.31996,0.08674,-17.908,41.6,15.1328571428571,4.1286,0.15156,0.98298,-0.1543,-43.3833333333333,46.2501666666667,130.701333333333,512.773,1,1,1,1
24-May-2018 12:56:56,-1220.44444444444,0.0820285714285714,-0.00967142857142857,0.522928571428572,-19.475,-113.75,-44.955,10.4486666666667,-0.8106,-0.17755,-0.651725,-11.3555555555556,-0.620555555555555,15.3888888888889,128.05725,0.784983333333333,0.486183333333333,0.65615,-29.7811428571429,-58.021,-7.10642857142857,4.248,-1.1137,-0.527416666666667,0.505783333333333,31.8613,31.1219,69.1768,768.351,1,0,1,0.5
24-May-2018 12:56:56,-1220.44444444444,0.0820285714285714,-0.00967142857142857,0.522928571428572,-19.475,-113.75,-44.955,10.4486666666667,-0.8106,-0.17755,-0.651725,-11.3555555555556,-0.620555555555555,15.3888888888889,128.05725,0.784983333333333,0.486183333333333,0.65615,-29.7811428571429,-58.021,-7.10642857142857,4.248,-1.1137,-0.527416666666667,0.505783333333333,31.8613,31.1219,69.1768,768.351,1,0,1,0.5
24-May-2018 12:56:56,-1220.44444444444,0.0820285714285714,-0.00967142857142857,0.522928571428572,-19.475,-113.75,-44.955,10.4486666666667,-0.8106,-0.17755,-0.651725,-11.3555555555556,-0.620555555555555,15.3888888888889,128.05725,0.784983333333333,0.486183333333333,0.65615,-29.7811428571429,-58.021,-7.10642857142857,4.248,-1.1137,-0.527416666666667,0.505783333333333,31.8613,31.1219,69.1768,768.351,1,0,1,0.5
24-May-2018 12:56:56,-1220.44444444444,0.0820285714285714,-0.00967142857142857,0.522928571428572,-19.475,-113.75,-44.955,10.4486666666667,-0.8106,-0.17755,-0.651725,-11.3555555555556,-0.620555555555555,15.3888888888889,128.05725,0.784983333333333,0.486183333333333,0.65615,-29.7811428571429,-58.021,-7.10642857142857,4.248,-1.1137,-0.527416666666667,0.505783333333333,31.8613,31.1219,69.1768,768.351,1,0,1,0.5
24-May-2018 12:56:57,-1988.42857142857,0.14465,-0.367366666666667,0.637133333333333,-45.3966666666667,-75.0866666666667,-42.37,10.4486666666667,-0.895033333333333,-0.0911333333333333,-0.7077,-20.9,6.02075,17.07,125.924,0.808733333333333,0.384566666666667,0.509066666666667,0.248,-5.94,2.805,4.6985,-0.8871,0.0304333333333334,0.337566666666667,18.68925,3.56675,35.3375,782.315,1,1,1,0
24-May-2018 12:56:57,-1988.42857142857,0.14465,-0.367366666666667,0.637133333333333,-45.3966666666667,-75.0866666666667,-42.37,10.4486666666667,-0.895033333333333,-0.0911333333333333,-0.7077,-20.9,6.02075,17.07,125.924,0.808733333333333,0.384566666666667,0.509066666666667,0.248,-5.94,2.805,4.6985,-0.8871,0.0304333333333334,0.337566666666667,18.68925,3.56675,35.3375,782.315,1,1,1,0
24-May-2018 12:56:57,-1988.42857142857,0.14465,-0.367366666666667,0.637133333333333,-45.3966666666667,-75.0866666666667,-42.37,10.4486666666667,-0.895033333333333,-0.0911333333333333,-0.7077,-20.9,6.02075,17.07,125.924,0.808733333333333,0.384566666666667,0.509066666666667,0.248,-5.94,2.805,4.6985,-0.8871,0.0304333333333334,0.337566666666667,18.68925,3.56675,35.3375,782.315,1,1,1,0
24-May-2018 12:56:57,-1988.42857142857,0.14465,-0.367366666666667,0.637133333333333,-45.3966666666667,-75.0866666666667,-42.37,10.4486666666667,-0.895033333333333,-0.0911333333333333,-0.7077,-20.9,6.02075,17.07,125.924,0.808733333333333,0.384566666666667,0.509066666666667,0.248,-5.94,2.805,4.6985,-0.8871,0.0304333333333334,0.337566666666667,18.68925,3.56675,35.3375,782.315,1,1,1,0
24-May-2018 12:56:58,236.75,-0.39365,-0.1331,0.2719,36.65,-119.55,-36.45,10.4486666666667,-0.8378,-0.0167,-0.5947,-31.4333333333333,6.626,14.7933333333333,125.924,0.808733333333333,0.384566666666667,0.509066666666667,3.902,7.256,15.24,4.6985,-0.9332,-0.22435,0.3301,18.68925,3.56675,35.3375,1030.607,1,0,1,0
24-May-2018 12:56:58,236.75,-0.39365,-0.1331,0.2719,36.65,-119.55,-36.45,10.4486666666667,-0.8378,-0.0167,-0.5947,-31.4333333333333,6.626,14.7933333333333,125.924,0.808733333333333,0.384566666666667,0.509066666666667,3.902,7.256,15.24,4.6985,-0.9332,-0.22435,0.3301,18.68925,3.56675,35.3375,1030.607,1,0,1,0
24-May-2018 12:56:58,236.75,-0.39365,-0.1331,0.2719,36.65,-119.55,-36.45,10.4486666666667,-0.8378,-0.0167,-0.5947,-31.4333333333333,6.626,14.7933333333333,125.924,0.808733333333333,0.384566666666667,0.509066666666667,3.902,7.256,15.24,4.6985,-0.9332,-0.22435,0.3301,18.68925,3.56675,35.3375,1030.607,1,0,1,0
24-May-2018 12:56:58,236.75,-0.39365,-0.1331,0.2719,36.65,-119.55,-36.45,10.4486666666667,-0.8378,-0.0167,-0.5947,-31.4333333333333,6.626,14.7933333333333,0,0,0,0,3.902,7.256,15.24,0,-0.9332,-0.22435,0.3301,0,0,0,1030.607,1,0,1,0
24-May-2018 12:56:59,2047,0.71808,-0.18867,0.47237,45.2215714285714,30.7252857142857,17.7627142857143,10.4486666666667,-0.85642,0.07132,-0.56844,-18.7777777777778,-6.32777777777778,15.8844444444444,125.924,0.802016666666667,0.211633333333333,0.5551,11.355,20.60875,12.1155,4.888,-0.952683333333333,-0.121283333333333,0.0969833333333334,62.8125,4.315,-19.923625,782.257333333333,1,1,1,1
24-May-2018 12:56:59,2047,0.71808,-0.18867,0.47237,45.2215714285714,30.7252857142857,17.7627142857143,10.4486666666667,-0.85642,0.07132,-0.56844,-18.7777777777778,-6.32777777777778,15.8844444444444,125.924,0.802016666666667,0.211633333333333,0.5551,11.355,20.60875,12.1155,4.888,-0.952683333333333,-0.121283333333333,0.0969833333333334,62.8125,4.315,-19.923625,782.257333333333,1,1,1,1
24-May-2018 12:56:59,2047,0.71808,-0.18867,0.47237,45.2215714285714,30.7252857142857,17.7627142857143,0,-0.85642,0.07132,-0.56844,-18.7777777777778,-6.32777777777778,15.8844444444444,125.924,0.802016666666667,0.211633333333333,0.5551,11.355,20.60875,12.1155,4.888,-0.952683333333333,-0.121283333333333,0.0969833333333334,62.8125,4.315,-19.923625,782.257333333333,1,1,1,1
24-May-2018 12:56:59,2047,0.71808,-0.18867,0.47237,45.2215714285714,30.7252857142857,17.7627142857143,0,-0.85642,0.07132,-0.56844,-18.7777777777778,-6.32777777777778,15.8844444444444,125.924,0.802016666666667,0.211633333333333,0.5551,11.355,20.60875,12.1155,4.888,-0.952683333333333,-0.121283333333333,0.0969833333333334,62.8125,4.315,-19.923625,782.257333333333,1,1,1,1
24-May-2018 12:57:00,2047,0.92075,-0.1279,0.40275,20.423,-6.7276,0.2686,11.899125,-0.90645,0.12385,-0.534825,35.8865555555556,-1.04555555555556,7.57444444444444,130.542666666667,0.748628571428571,0.338685714285714,0.551014285714286,26.3793333333333,-3.79833333333333,5.142,4.355,-0.952266666666667,-0.0915555555555556,0.150555555555556,2.24075,4.60375,4.71025,470.034,1,1,1,1
24-May-2018 12:57:00,2047,0.92075,-0.1279,0.40275,20.423,-6.7276,0.2686,11.899125,-0.90645,0.12385,-0.534825,35.8865555555556,-1.04555555555556,7.57444444444444,130.542666666667,0.748628571428571,0.338685714285714,0.551014285714286,26.3793333333333,-3.79833333333333,5.142,4.355,-0.952266666666667,-0.0915555555555556,0.150555555555556,2.24075,4.60375,4.71025,470.034,1,1,1,1
24-May-2018 12:57:00,2047,0.92075,-0.1279,0.40275,20.423,-6.7276,0.2686,11.899125,-0.90645,0.12385,-0.534825,35.8865555555556,-1.04555555555556,7.57444444444444,130.542666666667,0.748628571428571,0.338685714285714,0.551014285714286,26.3793333333333,-3.79833333333333,5.142,4.355,-0.952266666666667,-0.0915555555555556,0.150555555555556,2.24075,4.60375,4.71025,470.034,1,1,1,1
24-May-2018 12:57:00,2047,0.92075,-0.1279,0.40275,20.423,-6.7276,0.2686,11.899125,-0.90645,0.12385,-0.534825,35.8865555555556,-1.04555555555556,7.57444444444444,130.542666666667,0.748628571428571,0.338685714285714,0.551014285714286,26.3793333333333,-3.79833333333333,5.142,4.355,-0.952266666666667,-0.0915555555555556,0.150555555555556,2.24075,4.60375,4.71025,470.034,1,1,1,1
24-May-2018 12:57:01,1864.33333333333,0.996285714285714,-0.0897,0.312857142857143,-13.5175,7.355125,7.44775,10.2686666666667,-0.780075,0.03255,-0.57465,24.5238888888889,-4.48833333333333,-9.86222222222222,132.852,0.775025,0.3465,0.62065,-32.6925,-32.087,-22.7621,3.46566666666667,-0.9170375,-0.0745125,0.201975,44.57325,6.0365,-0.61725,483.156,0,1,1,0
24-May-2018 12:57:01,1864.33333333333,0.996285714285714,-0.0897,0.312857142857143,-13.5175,7.355125,7.44775,10.2686666666667,-0.780075,0.03255,-0.57465,24.5238888888889,-4.48833333333333,-9.86222222222222,132.852,0.775025,0.3465,0.62065,-32.6925,-32.087,-22.7621,3.46566666666667,-0.9170375,-0.0745125,0.201975,44.57325,6.0365,-0.61725,483.156,0,1,1,0
24-May-2018 12:57:01,1864.33333333333,0.996285714285714,-0.0897,0.312857142857143,-13.5175,7.355125,7.44775,10.2686666666667,-0.780075,0.03255,-0.57465,24.5238888888889,-4.48833333333333,-9.86222222222222,132.852,0.775025,0.3465,0.62065,-32.6925,-32.087,-22.7621,3.46566666666667,-0.9170375,-0.0745125,0.201975,44.57325,6.0365,-0.61725,483.156,0,1,1,0
24-May-2018 12:57:01,1864.33333333333,0.996285714285714,-0.0897,0.312857142857143,-13.5175,7.355125,7.44775,10.2686666666667,-0.780075,0.03255,-0.57465,24.5238888888889,-4.48833333333333,-9.86222222222222,132.852,0.775025,0.3465,0.62065,-32.6925,-32.087,-22.7621,3.46566666666667,-0.9170375,-0.0745125,0.201975,44.57325,6.0365,-0.61725,483.156,0,1,1,0
24-May-2018 12:57:02,1343.2,0.906942857142857,-0.139514285714286,0.337728571428571,-43.8116666666667,10.7403333333333,-17.7583333333333,8.91766666666667,-0.82475,0.0111,-0.600375,3.12,3.529125,-29.3875,132.852,0.791583333333333,0.355083333333333,0.542833333333333,-4.46,-5.9202,-3.5924,2.506,-0.9333,-0.0646,0.206083333333333,67.9878571428571,-4.87814285714286,-20.9844285714286,481.657,0,0,1,0
24-May-2018 12:57:02,1343.2,0.906942857142857,-0.139514285714286,0.337728571428571,-43.8116666666667,10.7403333333333,-17.7583333333333,8.91766666666667,-0.82475,0.0111,-0.600375,3.12,3.529125,-29.3875,132.852,0.791583333333333,0.355083333333333,0.542833333333333,-4.46,-5.9202,-3.5924,2.506,-0.9333,-0.0646,0.206083333333333,67.9878571428571,-4.87814285714286,-20.9844285714286,481.657,0,0,1,0
24-May-2018 12:57:02,1343.2,0.906942857142857,-0.139514285714286,0.337728571428571,-43.8116666666667,10.7403333333333,-17.7583333333333,8.91766666666667,-0.82475,0.0111,-0.600375,3.12,3.529125,-29.3875,132.852,0.791583333333333,0.355083333333333,0.542833333333333,-4.46,-5.9202,-3.5924,2.506,-0.9333,-0.0646,0.206083333333333,67.9878571428571,-4.87814285714286,-20.9844285714286,481.657,0,0,1,0
24-May-2018 12:57:02,1343.2,0.906942857142857,-0.139514285714286,0.337728571428571,-43.8116666666667,10.7403333333333,-17.7583333333333,8.91766666666667,-0.82475,0.0111,-0.600375,3.12,3.529125,-29.3875,132.852,0.791583333333333,0.355083333333333,0.542833333333333,-4.46,-5.9202,-3.5924,2.506,-0.9333,-0.0646,0.206083333333333,67.9878571428571,-4.87814285714286,-20.9844285714286,481.657,0,0,1,0
24-May-2018 12:57:03,942.5,0.69724,-0.06478,0.3193,-26.102,-18.32625,0.355625000000001,5.29475,-0.93562,-0.17584,-0.63468,20.811,22.0431111111111,-30.8444444444444,120.303,0.817583333333333,0.389566666666667,0.480416666666667,-22.692,-23.528,-11.78,2.3128,-0.92782,-0.0459,0.25972,-4.78228571428571,-0.40057142857143,-0.913285714285712,480.873666666667,0,1,1,0
24-May-2018 12:57:03,942.5,0.69724,-0.06478,0.3193,-26.102,-18.32625,0.355625000000001,5.29475,-0.93562,-0.17584,-0.63468,20.811,22.0431111111111,-30.8444444444444,120.303,0.817583333333333,0.389566666666667,0.480416666666667,-22.692,-23.528,-11.78,2.3128,-0.92782,-0.0459,0.25972,-4.78228571428571,-0.40057142857143,-0.913285714285712,480.873666666667,0,1,1,0
24-May-2018 12:57:03,942.5,0.69724,-0.06478,0.3193,-26.102,-18.32625,0.355625000000001,5.29475,-0.93562,-0.17584,-0.63468,20.811,22.0431111111111,-30.8444444444444,120.303,0.817583333333333,0.389566666666667,0.480416666666667,-22.692,-23.528,-11.78,2.3128,-0.92782,-0.0459,0.25972,-4.78228571428571,-0.40057142857143,-0.913285714285712,480.873666666667,0,1,1,0
24-May-2018 12:57:03,942.5,0.69724,-0.06478,0.3193,-26.102,-18.32625,0.355625000000001,5.29475,-0.93562,-0.17584,-0.63468,20.811,22.0431111111111,-30.8444444444444,120.303,0.817583333333333,0.389566666666667,0.480416666666667,-22.692,-23.528,-11.78,2.3128,-0.92782,-0.0459,0.25972,-4.78228571428571,-0.40057142857143,-0.913285714285712,480.873666666667,0,1,1,0
24-May-2018 12:57:04,683.5,0.9222875,-0.16225,0.306725,-19.5433333333333,8.27483333333333,1.482,8.13733333333333,-0.7666,-0.37615,-0.51445,-3.95577777777778,6.16233333333333,-32.3333333333333,116.12,0.71204,0.4011,0.66996,-45.7152857142857,-26.5157142857143,-26.6028571428571,3.3772,-0.968216666666667,-0.0595333333333333,0.27535,-72.0213333333333,-6.0365,39.2988333333333,457.066,1,1,1,1
24-May-2018 12:57:04,683.5,0.9222875,-0.16225,0.306725,-19.5433333333333,8.27483333333333,1.482,8.13733333333333,-0.7666,-0.37615,-0.51445,-3.95577777777778,6.16233333333333,-32.3333333333333,116.12,0.71204,0.4011,0.66996,-45.7152857142857,-26.5157142857143,-26.6028571428571,3.3772,-0.968216666666667,-0.0595333333333333,0.27535,-72.0213333333333,-6.0365,39.2988333333333,457.066,1,1,1,1
24-May-2018 12:57:04,683.5,0.9222875,-0.16225,0.306725,-19.5433333333333,8.27483333333333,1.482,8.13733333333333,-0.7666,-0.37615,-0.51445,-3.95577777777778,6.16233333333333,-32.3333333333333,116.12,0.71204,0.4011,0.66996,-45.7152857142857,-26.5157142857143,-26.6028571428571,3.3772,-0.968216666666667,-0.0595333333333333,0.27535,-72.0213333333333,-6.0365,39.2988333333333,457.066,1,1,1,1
24-May-2018 12:57:04,683.5,0.9222875,-0.16225,0.306725,-19.5433333333333,8.27483333333333,1.482,8.13733333333333,-0.7666,-0.37615,-0.51445,-3.95577777777778,6.16233333333333,-32.3333333333333,116.12,0.71204,0.4011,0.66996,-45.7152857142857,-26.5157142857143,-26.6028571428571,3.3772,-0.968216666666667,-0.0595333333333333,0.27535,-72.0213333333333,-6.0365,39.2988333333333,457.066,1,1,1,1
24-May-2018 12:57:05,222.111111111111,0.8759,-0.136357142857143,0.413928571428571,-26.445,7.45016666666667,-4.676,6.23533333333333,-0.693,-0.34272,-0.5752,-12.0525,-10.9975,-19.925,116.12,0.749214285714286,0.254,0.559871428571429,6.14,5.205,11.2883333333333,8.0288,-0.92716,0.01708,0.26962,-121.0356,6.8292,45.6096,516.538666666667,1,1,1,1
24-May-2018 12:57:05,222.111111111111,0.8759,-0.136357142857143,0.413928571428571,-26.445,7.45016666666667,-4.676,6.23533333333333,-0.693,-0.34272,-0.5752,-12.0525,-10.9975,-19.925,116.12,0.749214285714286,0.254,0.559871428571429,6.14,5.205,11.2883333333333,8.0288,-0.92716,0.01708,0.26962,-121.0356,6.8292,45.6096,516.538666666667,1,1,1,1
24-May-2018 12:57:05,222.111111111111,0.8759,-0.136357142857143,0.413928571428571,-26.445,7.45016666666667,-4.676,6.23533333333333,-0.693,-0.34272,-0.5752,-12.0525,-10.9975,-19.925,116.12,0.749214285714286,0.254,0.559871428571429,6.14,5.205,11.2883333333333,8.0288,-0.92716,0.01708,0.26962,-121.0356,6.8292,45.6096,516.538666666667,1,1,1,1
24-May-2018 12:57:05,222.111111111111,0.8759,-0.136357142857143,0.413928571428571,-26.445,7.45016666666667,-4.676,6.23533333333333,-0.693,-0.34272,-0.5752,-12.0525,-10.9975,-19.925,116.12,0.749214285714286,0.254,0.559871428571429,6.14,5.205,11.2883333333333,8.0288,-0.92716,0.01708,0.26962,-121.0356,6.8292,45.6096,516.538666666667,1,1,1,1
24-May-2018 12:57:06,267.5,0.8871,-0.2695875,0.2092375,-60.5777777777778,14.6658888888889,-12.1036666666667,6.23533333333333,-0.694875,-0.3618,-0.62475,2.2437,-9.5606,9.8778,110.202,0.79286,0.32392,0.43846,54.0098,34.9844,26.46,2.198,-0.928885714285714,-0.0434857142857143,0.372371428571429,-26.9861428571429,-3.702,-20.4181428571429,782.423,1,1,1,1
24-May-2018 12:57:06,267.5,0.8871,-0.2695875,0.2092375,-60.5777777777778,14.6658888888889,-12.1036666666667,6.23533333333333,-0.694875,-0.3618,-0.62475,2.2437,-9.5606,9.8778,110.202,0.79286,0.32392,0.43846,54.0098,34.9844,26.46,2.198,-0.928885714285714,-0.0434857142857143,0.372371428571429,-26.9861428571429,-3.702,-20.4181428571429,782.423,1,1,1,1
24-May-2018 12:57:06,267.5,0.8871,-0.2695875,0.2092375,-60.5777777777778,14.6658888888889,-12.1036666666667,6.23533333333333,-0.694875,-0.3618,-0.62475,2.2437,-9.5606,9.8778,110.202,0.79286,0.32392,0.43846,54.0098,34.9844,26.46,2.198,-0.928885714285714,-0.0434857142857143,0.372371428571429,-26.9861428571429,-3.702,-20.4181428571429,782.423,1,1,1,1
24-May-2018 12:57:06,267.5,0.8871,-0.2695875,0.2092375,-60.5777777777778,14.6658888888889,-12.1036666666667,6.23533333333333,-0.694875,-0.3618,-0.62475,2.2437,-9.5606,9.8778,110.202,0.79286,0.32392,0.43846,54.0098,34.9844,26.46,2.198,-0.928885714285714,-0.0434857142857143,0.372371428571429,-26.9861428571429,-3.702,-20.4181428571429,782.423,1,1,1,1
24-May-2018 12:57:07,197,0.9165,-0.099475,0.3243375,0.266666666666666,-4.62133333333333,-0.145555555555554,6.23533333333333,-0.79074,-0.30058,-0.69798,-21.4625,3.088,9.58525,110.202,0.826,0.357442857142857,0.435057142857143,35.5371428571429,22.6462857142857,14.7611428571429,2.382,-0.965928571428571,-0.1096,0.303785714285714,-33.12,-4.95933333333333,20.8636666666667,974.349,1,1,1,1
24-May-2018 12:57:07,197,0.9165,-0.099475,0.3243375,0.266666666666666,-4.62133333333333,-0.145555555555554,6.23533333333333,-0.79074,-0.30058,-0.69798,-21.4625,3.088,9.58525,110.202,0.826,0.357442857142857,0.435057142857143,35.5371428571429,22.6462857142857,14.7611428571429,2.382,-0.965928571428571,-0.1096,0.303785714285714,-33.12,-4.95933333333333,20.8636666666667,974.349,1,1,1,1
24-May-2018 12:57:07,197,0.9165,-0.099475,0.3243375,0.266666666666666,-4.62133333333333,-0.145555555555554,6.23533333333333,-0.79074,-0.30058,-0.69798,-21.4625,3.088,9.58525,110.202,0.826,0.357442857142857,0.435057142857143,35.5371428571429,22.6462857142857,14.7611428571429,2.382,-0.965928571428571,-0.1096,0.303785714285714,-33.12,-4.95933333333333,20.8636666666667,974.349,1,1,1,1
24-May-2018 12:57:07,197,0.9165,-0.099475,0.3243375,0.266666666666666,-4.62133333333333,-0.145555555555554,6.23533333333333,-0.79074,-0.30058,-0.69798,-21.4625,3.088,9.58525,110.202,0.826,0.357442857142857,0.435057142857143,35.5371428571429,22.6462857142857,14.7611428571429,2.382,-0.965928571428571,-0.1096,0.303785714285714,-33.12,-4.95933333333333,20.8636666666667,974.349,1,1,1,1
24-May-2018 12:57:08,139.6,0.888663636363636,-0.113945454545455,0.358690909090909,30.7696666666667,-9.38333333333333,3.35266666666667,6.23533333333333,-0.87416,-0.05256,-0.52112,33.41875,-18.71625,43.0525,106.027,0.757642857142857,0.315257142857143,0.583214285714286,-8.88166666666667,-13.3585,9.404,2.79775,-1.01046666666667,-0.139833333333333,0.259366666666667,80.1728333333333,-23.4656666666667,-60.559,974.349,1,0,1,0
24-May-2018 12:57:08,139.6,0.888663636363636,-0.113945454545455,0.358690909090909,30.7696666666667,-9.38333333333333,3.35266666666667,6.23533333333333,-0.87416,-0.05256,-0.52112,33.41875,-18.71625,43.0525,106.027,0.757642857142857,0.315257142857143,0.583214285714286,-8.88166666666667,-13.3585,9.404,2.79775,-1.01046666666667,-0.139833333333333,0.259366666666667,80.1728333333333,-23.4656666666667,-60.559,974.349,1,0,1,0
24-May-2018 12:57:08,139.6,0.888663636363636,-0.113945454545455,0.358690909090909,30.7696666666667,-9.38333333333333,3.35266666666667,6.23533333333333,-0.87416,-0.05256,-0.52112,33.41875,-18.71625,43.0525,106.027,0.757642857142857,0.315257142857143,0.583214285714286,-8.88166666666667,-13.3585,9.404,2.79775,-1.01046666666667,-0.139833333333333,0.259366666666667,80.1728333333333,-23.4656666666667,-60.559,974.349,1,0,1,0
24-May-2018 12:57:08,139.6,0.888663636363636,-0.113945454545455,0.358690909090909,30.7696666666667,-9.38333333333333,3.35266666666667,6.23533333333333,-0.87416,-0.05256,-0.52112,33.41875,-18.71625,43.0525,106.027,0.757642857142857,0.315257142857143,0.583214285714286,-8.88166666666667,-13.3585,9.404,2.79775,-1.01046666666667,-0.139833333333333,0.259366666666667,80.1728333333333,-23.4656666666667,-60.559,0,1,0,1,0
24-May-2018 12:57:09,136,0.90932,-0.20766,0.44968,84.72,-6.054,13.2612,5.25528571428571,-0.83865,-0.0553833333333333,-0.484416666666667,52.335,-29.7125,36.61125,106.027,0.7979,0.360425,0.62285,-36.06,-42.59,0.430799999999999,2.536,-0.77595,-0.162533333333333,0.434083333333333,13.1705714285714,16.472,-10.662,806.637,1,0,0.5,0
24-May-2018 12:57:09,136,0.90932,-0.20766,0.44968,84.72,-6.054,13.2612,5.25528571428571,-0.83865,-0.0553833333333333,-0.484416666666667,52.335,-29.7125,36.61125,106.027,0.7979,0.360425,0.62285,-36.06,-42.59,0.430799999999999,2.536,-0.77595,-0.162533333333333,0.434083333333333,13.1705714285714,16.472,-10.662,806.637,1,0,0.5,0
24-May-2018 12:57:09,136,0.90932,-0.20766,0.44968,84.72,-6.054,13.2612,5.25528571428571,-0.83865,-0.0553833333333333,-0.484416666666667,52.335,-29.7125,36.61125,106.027,0.7979,0.360425,0.62285,-36.06,-42.59,0.430799999999999,2.536,-0.77595,-0.162533333333333,0.434083333333333,13.1705714285714,16.472,-10.662,806.637,1,0,0.5,0
24-May-2018 12:57:09,136,0.90932,-0.20766,0.44968,84.72,-6.054,13.2612,5.25528571428571,-0.83865,-0.0553833333333333,-0.484416666666667,52.335,-29.7125,36.61125,106.027,0.7979,0.360425,0.62285,-36.06,-42.59,0.430799999999999,2.536,-0.77595,-0.162533333333333,0.434083333333333,13.1705714285714,16.472,-10.662,806.637,1,0,0.5,0
24-May-2018 12:57:10,111.25,0.906571428571429,-0.0619428571428571,0.4368,35.115,-9.29333333333333,9.80466666666667,5.242,-0.980075,-0.033625,-0.5351,12.2675555555556,4.88866666666667,-6.45277777777778,92.9736666666667,0.6132,0.13595,0.7492,-31.6585,13.473,-32.05,2.802,-0.9771,0.0249833333333333,0.247733333333333,5.29466666666667,-15.4575,-11.88,806.637,1,0,0,0
24-May-2018 12:57:10,111.25,0.906571428571429,-0.0619428571428571,0.4368,35.115,-9.29333333333333,9.80466666666667,5.242,-0.980075,-0.033625,-0.5351,12.2675555555556,4.88866666666667,-6.45277777777778,92.9736666666667,0.6132,0.13595,0.7492,-31.6585,13.473,-32.05,2.802,-0.9771,0.0249833333333333,0.247733333333333,5.29466666666667,-15.4575,-11.88,806.637,1,0,0,0
24-May-2018 12:57:10,111.25,0.906571428571429,-0.0619428571428571,0.4368,35.115,-9.29333333333333,9.80466666666667,5.242,-0.980075,-0.033625,-0.5351,12.2675555555556,4.88866666666667,-6.45277777777778,92.9736666666667,0.6132,0.13595,0.7492,-31.6585,13.473,-32.05,2.802,-0.9771,0.0249833333333333,0.247733333333333,5.29466666666667,-15.4575,-11.88,806.637,1,0,0,0
24-May-2018 12:57:10,111.25,0.906571428571429,-0.0619428571428571,0.4368,35.115,-9.29333333333333,9.80466666666667,5.242,-0.980075,-0.033625,-0.5351,12.2675555555556,4.88866666666667,-6.45277777777778,92.9736666666667,0.6132,0.13595,0.7492,-31.6585,13.473,-32.05,2.802,-0.9771,0.0249833333333333,0.247733333333333,5.29466666666667,-15.4575,-11.88,0,1,0,0,0
24-May-2018 12:57:11,94.8888888888889,0.92865,-0.179375,0.212475,18.1338,0.974,7.6346,6.755,-0.930783333333333,-0.195733333333333,-0.414133333333333,22.506125,23.70125,-8.865,86.447,0.81888,0.4079,0.50294,-27.961,-15.6306666666667,-28.9666666666667,2.903,-0.875775,0.0344,0.312725,-11.636,12.9268333333333,25.183,626.927666666667,0,0,0,0
24-May-2018 12:57:11,94.8888888888889,0.92865,-0.179375,0.212475,18.1338,0.974,7.6346,6.755,-0.930783333333333,-0.195733333333333,-0.414133333333333,22.506125,23.70125,-8.865,86.447,0.81888,0.4079,0.50294,-27.961,-15.6306666666667,-28.9666666666667,2.903,-0.875775,0.0344,0.312725,-11.636,12.9268333333333,25.183,626.927666666667,0,0,0,0
24-May-2018 12:57:11,94.8888888888889,0.92865,-0.179375,0.212475,18.1338,0.974,7.6346,6.755,-0.930783333333333,-0.195733333333333,-0.414133333333333,22.506125,23.70125,-8.865,86.447,0.81888,0.4079,0.50294,-27.961,-15.6306666666667,-28.9666666666667,2.903,-0.875775,0.0344,0.312725,-11.636,12.9268333333333,25.183,626.927666666667,0,0,0,0
24-May-2018 12:57:11,94.8888888888889,0.92865,-0.179375,0.212475,18.1338,0.974,7.6346,6.755,-0.930783333333333,-0.195733333333333,-0.414133333333333,22.506125,23.70125,-8.865,86.447,0.81888,0.4079,0.50294,-27.961,-15.6306666666667,-28.9666666666667,2.903,-0.875775,0.0344,0.312725,-11.636,12.9268333333333,25.183,626.927666666667,0,0,0,0
