TIME,HELMET_RAW,BELT_ACC_X,BELT_ACC_Y,BELT_ACC_Z,BELT_ANG_X,BELT_ANG_Y,BELT_ANG_Z,BELT_LUMINOSITY,NECK_ACC_X,NECK_ACC_Y,NECK_ACC_Z,NECK_ANG_X,NECK_ANG_Y,NECK_ANG_Z,NECK_LUMINOSITY,PCKT_ACC_X,PCKT_ACC_Y,PCKT_ACC_Z,PCKT_ANG_X,PCKT_ANG_Y,PCKT_ANG_Z,PCKT_LUMINOSITY,WRST_ACC_X,WRST_ACC_Y,WRST_ACC_Z,WRST_ANG_X,WRST_ANG_Y,WRST_ANG_Z,WRST_LUMINOSITY,IR_1,IR_2,IR_3,IR_4
24-May-2018 12:55:18,-803.111111111111,0.909583333333333,-0.1586,0.31905,-0.644875,3.330875,0.161625,9.41766666666667,-0.83788,-0.06646,-0.5542,23.4044444444444,10.9755555555556,12.2875555555556,136.172,0.774375,0.3609,0.4968875,1.4168,1.296,3.2684,4.39775,0.375325,0.88775,0.134,14.009,2.317,5.51825,783.599,1,1,1,1
24-May-2018 12:55:18,-803.111111111111,0.909583333333333,-0.1586,0.31905,-0.644875,3.330875,0.161625,9.41766666666667,-0.83788,-0.06646,-0.5542,23.4044444444444,10.9755555555556,12.2875555555556,136.172,0.774375,0.3609,0.4968875,1.4168,1.296,3.2684,4.39775,0.375325,0.88775,0.134,14.009,2.317,5.51825,783.599,1,1,1,1
24-May-2018 12:55:18,-803.111111111111,0.909583333333333,-0.1586,0.31905,-0.644875,3.330875,0.161625,9.41766666666667,-0.83788,-0.06646,-0.5542,23.4044444444444,10.9755555555556,12.2875555555556,136.172,0.774375,0.3609,0.4968875,1.4168,1.296,3.2684,4.39775,0.375325,0.88775,0.134,14.009,2.317,5.51825,783.599,1,1,1,1
24-May-2018 12:55:18,-803.111111111111,0.909583333333333,-0.1586,0.31905,-0.644875,3.330875,0.161625,9.41766666666667,-0.83788,-0.06646,-0.5542,23.4044444444444,10.9755555555556,12.2875555555556,136.172,0.774375,0.3609,0.4968875,1.4168,1.296,3.2684,4.39775,0.375325,0.88775,0.134,14.009,2.317,5.51825,783.599,1,1,1,1
24-May-2018 12:55:19,685.444444444444,0.891014285714286,-0.121142857142857,0.363742857142857,-1.87616666666667,1.0105,4.77583333333333,9.7025,-0.860166666666667,-0.03865,-0.653533333333333,-5.801875,0.8485,20.37625,142.2625,0.9758,0.4953,0.59744,-3.55333333333333,-2.95933333333333,-24.8433333333333,4.57633333333333,0.35192,0.95074,0.10622,-6.073,-1.6586,-0.2438,740.745,1,1,1,1
24-May-2018 12:55:19,685.444444444444,0.891014285714286,-0.121142857142857,0.363742857142857,-1.87616666666667,1.0105,4.77583333333333,9.7025,-0.860166666666667,-0.03865,-0.653533333333333,-5.801875,0.8485,20.37625,142.2625,0.9758,0.4953,0.59744,-3.55333333333333,-2.95933333333333,-24.8433333333333,4.57633333333333,0.35192,0.95074,0.10622,-6.073,-1.6586,-0.2438,740.745,1,1,1,1
24-May-2018 12:55:19,685.444444444444,0.891014285714286,-0.121142857142857,0.363742857142857,-1.87616666666667,1.0105,4.77583333333333,9.7025,-0.860166666666667,-0.03865,-0.653533333333333,-5.801875,0.8485,20.37625,142.2625,0.9758,0.4953,0.59744,-3.55333333333333,-2.95933333333333,-24.8433333333333,4.57633333333333,0.35192,0.95074,0.10622,-6.073,-1.6586,-0.2438,740.745,1,1,1,1
24-May-2018 12:55:19,685.444444444444,0.891014285714286,-0.121142857142857,0.363742857142857,-1.87616666666667,1.0105,4.77583333333333,9.7025,-0.860166666666667,-0.03865,-0.653533333333333,-5.801875,0.8485,20.37625,142.2625,0.9758,0.4953,0.59744,-3.55333333333333,-2.95933333333333,-24.8433333333333,4.57633333333333,0.35192,0.95074,0.10622,-6.073,-1.6586,-0.2438,740.745,1,1,1,1
24-May-2018 12:55:20,2047,0.886414285714286,-0.178985714285714,0.393828571428571,3.54575,-0.415875,-1.529625,9.7025,-0.838825,0.171225,-0.543175,-29.3625,29.91,34.24,148.353,0.1109,0.105066666666667,0.2795,-22.1725,-117.655,56.2775,4.361,0.143166666666667,0.655066666666667,0.0156,30.2895,14.6645,-0.01525,743.297666666667,1,1,1,1
24-May-2018 12:55:20,2047,0.886414285714286,-0.178985714285714,0.393828571428571,3.54575,-0.415875,-1.529625,9.7025,-0.838825,0.171225,-0.543175,-29.3625,29.91,34.24,148.353,0.1109,0.105066666666667,0.2795,-22.1725,-117.655,56.2775,4.361,0.143166666666667,0.655066666666667,0.0156,30.2895,14.6645,-0.01525,743.297666666667,1,1,1,1
24-May-2018 12:55:20,2047,0.886414285714286,-0.178985714285714,0.393828571428571,3.54575,-0.415875,-1.529625,9.7025,-0.838825,0.171225,-0.543175,-29.3625,29.91,34.24,148.353,0.1109,0.105066666666667,0.2795,-22.1725,-117.655,56.2775,4.361,0.143166666666667,0.655066666666667,0.0156,30.2895,14.6645,-0.01525,743.297666666667,1,1,1,1
24-May-2018 12:55:20,2047,0.886414285714286,-0.178985714285714,0.393828571428571,3.54575,-0.415875,-1.529625,9.7025,-0.838825,0.171225,-0.543175,-29.3625,29.91,34.24,148.353,0.1109,0.105066666666667,0.2795,-22.1725,-117.655,56.2775,4.361,0.143166666666667,0.655066666666667,0.0156,30.2895,14.6645,-0.01525,743.297666666667,1,1,1,1
24-May-2018 12:55:21,2047,0.854722222222222,-0.140555555555556,0.454422222222222,6.567375,-20.476,-6.69625,9.7025,-0.8067,0.3535,-0.54822,9.16088888888889,-10.1344444444444,22.8744444444444,157.9395,0.28735,0.190183333333333,0.324266666666667,59.6216666666667,98.3266666666667,16.1816666666667,4.244,0.485133333333333,0.886233333333333,-0.0260666666666667,25.22875,6.00625,-6.31125,676.933,1,1,1,1
24-May-2018 12:55:21,2047,0.854722222222222,-0.140555555555556,0.454422222222222,6.567375,-20.476,-6.69625,9.7025,-0.8067,0.3535,-0.54822,9.16088888888889,-10.1344444444444,22.8744444444444,157.9395,0.28735,0.190183333333333,0.324266666666667,59.6216666666667,98.3266666666667,16.1816666666667,4.244,0.485133333333333,0.886233333333333,-0.0260666666666667,25.22875,6.00625,-6.31125,676.933,1,1,1,1
24-May-2018 12:55:21,2047,0.854722222222222,-0.140555555555556,0.454422222222222,6.567375,-20.476,-6.69625,9.7025,-0.8067,0.3535,-0.54822,9.16088888888889,-10.1344444444444,22.8744444444444,157.9395,0.28735,0.190183333333333,0.324266666666667,59.6216666666667,98.3266666666667,16.1816666666667,4.244,0.485133333333333,0.886233333333333,-0.0260666666666667,25.22875,6.00625,-6.31125,676.933,1,1,1,1
24-May-2018 12:55:21,2047,0.854722222222222,-0.140555555555556,0.454422222222222,6.567375,-20.476,-6.69625,9.7025,-0.8067,0.3535,-0.54822,9.16088888888889,-10.1344444444444,22.8744444444444,157.9395,0.28735,0.190183333333333,0.324266666666667,59.6216666666667,98.3266666666667,16.1816666666667,4.244,0.485133333333333,0.886233333333333,-0.0260666666666667,25.22875,6.00625,-6.31125,676.933,1,1,1,1
24-May-2018 12:55:22,1239.875,0.213744444444444,-0.204866666666667,0.537177777777778,-0.220000000000001,-11.91875,-9.81,9.7025,-0.804875,0.2019,-0.537075,37.2577777777778,-55.4444444444444,-12.766,167.526,0.665975,0.3274,0.561475,-64.0813333333333,-177.433333333333,53.8683333333333,4.171,0.03615,0.781875,-0.020425,-9.07,1.60075,14.49725,627.6392,1,1,1,1
24-May-2018 12:55:22,1239.875,0.213744444444444,-0.204866666666667,0.537177777777778,-0.220000000000001,-11.91875,-9.81,9.7025,-0.804875,0.2019,-0.537075,37.2577777777778,-55.4444444444444,-12.766,167.526,0.665975,0.3274,0.561475,-64.0813333333333,-177.433333333333,53.8683333333333,4.171,0.03615,0.781875,-0.020425,-9.07,1.60075,14.49725,627.6392,1,1,1,1
24-May-2018 12:55:22,1239.875,0.213744444444444,-0.204866666666667,0.537177777777778,-0.220000000000001,-11.91875,-9.81,9.7025,-0.804875,0.2019,-0.537075,37.2577777777778,-55.4444444444444,-12.766,167.526,0.665975,0.3274,0.561475,-64.0813333333333,-177.433333333333,53.8683333333333,4.171,0.03615,0.781875,-0.020425,-9.07,1.60075,14.49725,627.6392,1,1,1,1
24-May-2018 12:55:22,1239.875,0.213744444444444,-0.204866666666667,0.537177777777778,-0.220000000000001,-11.91875,-9.81,9.7025,-0.804875,0.2019,-0.537075,37.2577777777778,-55.4444444444444,-12.766,167.526,0.665975,0.3274,0.561475,-64.0813333333333,-177.433333333333,53.8683333333333,4.171,0.03615,0.781875,-0.020425,-9.07,1.60075,14.49725,627.6392,1,1,1,1
24-May-2018 12:55:23,-977.857142857143,0.147855555555556,-0.327144444444444,0.552322222222222,12.9325,19.08075,-4.3525,9.7025,-0.87228,0.16218,-0.5123,-20.24,-0.186444444444443,-38.1333333333333,167.526,0.39935,0.2626,0.544283333333333,24.2942,60.42,17.134,3.96933333333333,0.411775,1.14465,0.095,1.3315,5.15233333333333,-5.14233333333333,606.06,1,1,1,1
24-May-2018 12:55:23,-977.857142857143,0.147855555555556,-0.327144444444444,0.552322222222222,12.9325,19.08075,-4.3525,9.7025,-0.87228,0.16218,-0.5123,-20.24,-0.186444444444443,-38.1333333333333,167.526,0.39935,0.2626,0.544283333333333,24.2942,60.42,17.134,3.96933333333333,0.411775,1.14465,0.095,1.3315,5.15233333333333,-5.14233333333333,606.06,1,1,1,1
24-May-2018 12:55:23,-977.857142857143,0.147855555555556,-0.327144444444444,0.552322222222222,12.9325,19.08075,-4.3525,9.7025,-0.87228,0.16218,-0.5123,-20.24,-0.186444444444443,-38.1333333333333,167.526,0.39935,0.2626,0.544283333333333,24.2942,60.42,17.134,3.96933333333333,0.411775,1.14465,0.095,1.3315,5.15233333333333,-5.14233333333333,606.06,1,1,1,1
24-May-2018 12:55:23,-977.857142857143,0.147855555555556,-0.327144444444444,0.552322222222222,12.9325,19.08075,-4.3525,0,-0.87228,0.16218,-0.5123,-20.24,-0.186444444444443,-38.1333333333333,167.526,0.39935,0.2626,0.544283333333333,24.2942,60.42,17.134,3.96933333333333,0.411775,1.14465,0.095,1.3315,5.15233333333333,-5.14233333333333,606.06,1,1,1,1
24-May-2018 12:55:24,582.3,0.280166666666667,-0.484533333333333,0.701866666666667,16.7773333333333,185.775,65.125,10.7891666666667,-1.018325,0.062025,-0.6492,16.0145555555556,50.1188888888889,-44.7777777777778,154.732,0.2695,0.253633333333333,0.279816666666667,4.51975,72.75,1.44125,4.16825,-0.0493,1.0078,-0.05915,-2.0425,-8.7805,-5.2135,617.9058,1,1,1,1
24-May-2018 12:55:24,582.3,0.280166666666667,-0.484533333333333,0.701866666666667,16.7773333333333,185.775,65.125,10.7891666666667,-1.018325,0.062025,-0.6492,16.0145555555556,50.1188888888889,-44.7777777777778,154.732,0.2695,0.253633333333333,0.279816666666667,4.51975,72.75,1.44125,4.16825,-0.0493,1.0078,-0.05915,-2.0425,-8.7805,-5.2135,617.9058,1,1,1,1
24-May-2018 12:55:24,582.3,0.280166666666667,-0.484533333333333,0.701866666666667,16.7773333333333,185.775,65.125,10.7891666666667,-1.018325,0.062025,-0.6492,16.0145555555556,50.1188888888889,-44.7777777777778,154.732,0.2695,0.253633333333333,0.279816666666667,4.51975,72.75,1.44125,4.16825,-0.0493,1.0078,-0.05915,-2.0425,-8.7805,-5.2135,617.9058,1,1,1,1
24-May-2018 12:55:24,582.3,0.280166666666667,-0.484533333333333,0.701866666666667,16.7773333333333,185.775,65.125,10.7891666666667,-1.018325,0.062025,-0.6492,16.0145555555556,50.1188888888889,-44.7777777777778,154.732,0.2695,0.253633333333333,0.279816666666667,4.51975,72.75,1.44125,4.16825,-0.0493,1.0078,-0.05915,-2.0425,-8.7805,-5.2135,617.9058,1,1,1,1
24-May-2018 12:55:25,1653.5,-0.00820000000000002,-0.0224666666666667,0.264666666666667,27.94625,30.205,26.35375,10.62875,-0.719725,-0.2167,-0.554,62.9544444444444,85.9877777777778,-52.0888888888889,148.335,0.106875,0.055825,0.19655,13.7451428571429,30.18,-2.1,4.0525,0.492325,0.9793,0.048025,24.5631666666667,3.872,-6.89033333333333,631.508,1,1,1,1
24-May-2018 12:55:25,1653.5,-0.00820000000000002,-0.0224666666666667,0.264666666666667,27.94625,30.205,26.35375,10.62875,-0.719725,-0.2167,-0.554,62.9544444444444,85.9877777777778,-52.0888888888889,148.335,0.106875,0.055825,0.19655,13.7451428571429,30.18,-2.1,4.0525,0.492325,0.9793,0.048025,24.5631666666667,3.872,-6.89033333333333,631.508,1,1,1,1
24-May-2018 12:55:25,1653.5,-0.00820000000000002,-0.0224666666666667,0.264666666666667,27.94625,30.205,26.35375,10.62875,-0.719725,-0.2167,-0.554,62.9544444444444,85.9877777777778,-52.0888888888889,148.335,0.106875,0.055825,0.19655,13.7451428571429,30.18,-2.1,4.0525,0.492325,0.9793,0.048025,24.5631666666667,3.872,-6.89033333333333,631.508,1,1,1,1
24-May-2018 12:55:25,1653.5,-0.00820000000000002,-0.0224666666666667,0.264666666666667,27.94625,30.205,26.35375,10.62875,-0.719725,-0.2167,-0.554,62.9544444444444,85.9877777777778,-52.0888888888889,148.335,0.106875,0.055825,0.19655,13.7451428571429,30.18,-2.1,4.0525,0.492325,0.9793,0.048025,24.5631666666667,3.872,-6.89033333333333,631.508,1,1,1,1
24-May-2018 12:55:26,1158.1,-0.1426,0.0240857142857143,0.225785714285714,24.4916666666667,-20.9333333333333,8.1095,10.974,-0.61888,-0.32998,-0.72818,-56.9,-7.65433333333333,-22.8,148.335,0.473266666666667,0.29425,0.314383333333333,-6.3925,-36.88,24.49,3.9316,-0.0131,0.36135,-0.002175,-1.0975,-6.631,-9.10075,640.1,1,1,1,1
24-May-2018 12:55:26,1158.1,-0.1426,0.0240857142857143,0.225785714285714,24.4916666666667,-20.9333333333333,8.1095,10.974,-0.61888,-0.32998,-0.72818,-56.9,-7.65433333333333,-22.8,148.335,0.473266666666667,0.29425,0.314383333333333,-6.3925,-36.88,24.49,3.9316,-0.0131,0.36135,-0.002175,-1.0975,-6.631,-9.10075,640.1,1,1,1,1
24-May-2018 12:55:26,1158.1,-0.1426,0.0240857142857143,0.225785714285714,24.4916666666667,-20.9333333333333,8.1095,10.974,-0.61888,-0.32998,-0.72818,-56.9,-7.65433333333333,-22.8,148.335,0.473266666666667,0.29425,0.314383333333333,-6.3925,-36.88,24.49,3.9316,-0.0131,0.36135,-0.002175,-1.0975,-6.631,-9.10075,640.1,1,1,1,1
24-May-2018 12:55:26,1158.1,-0.1426,0.0240857142857143,0.225785714285714,24.4916666666667,-20.9333333333333,8.1095,10.974,-0.61888,-0.32998,-0.72818,-56.9,-7.65433333333333,-22.8,148.335,0.473266666666667,0.29425,0.314383333333333,-6.3925,-36.88,24.49,3.9316,-0.0131,0.36135,-0.002175,-1.0975,-6.631,-9.10075,640.1,1,1,1,1
24-May-2018 12:55:27,814.9,-0.14384,-0.43656,0.62778,-39.5833333333333,-90.105,-57.9183333333333,10.186,-0.57285,-0.28015,-0.7986,8.093625,17.1915,5.6225,75.01425,0.655766666666667,0.412166666666667,0.477983333333333,-61.118,-126.552,54.7846,4.2114,0.142033333333333,0.7775,-0.03,2.3985,-7.20533333333333,-8.46566666666667,672.330333333333,1,1,1,1
24-May-2018 12:55:27,814.9,-0.14384,-0.43656,0.62778,-39.5833333333333,-90.105,-57.9183333333333,10.186,-0.57285,-0.28015,-0.7986,8.093625,17.1915,5.6225,75.01425,0.655766666666667,0.412166666666667,0.477983333333333,-61.118,-126.552,54.7846,4.2114,0.142033333333333,0.7775,-0.03,2.3985,-7.20533333333333,-8.46566666666667,672.330333333333,1,1,1,1
24-May-2018 12:55:27,814.9,-0.14384,-0.43656,0.62778,-39.5833333333333,-90.105,-57.9183333333333,10.186,-0.57285,-0.28015,-0.7986,8.093625,17.1915,5.6225,75.01425,0.655766666666667,0.412166666666667,0.477983333333333,-61.118,-126.552,54.7846,4.2114,0.142033333333333,0.7775,-0.03,2.3985,-7.20533333333333,-8.46566666666667,672.330333333333,1,1,1,1
24-May-2018 12:55:27,814.9,-0.14384,-0.43656,0.62778,-39.5833333333333,-90.105,-57.9183333333333,10.186,-0.57285,-0.28015,-0.7986,8.093625,17.1915,5.6225,75.01425,0.655766666666667,0.412166666666667,0.477983333333333,-61.118,-126.552,54.7846,4.2114,0.142033333333333,0.7775,-0.03,2.3985,-7.20533333333333,-8.46566666666667,672.330333333333,1,1,1,1
24-May-2018 12:55:28,578.7,-0.14194,-0.1326,0.26758,10.888125,-23.590875,-18.904625,10.695,-0.524325,-0.1672,-0.875,-62.0777777777778,33.0682222222222,51.8666666666667,50.574,0.236966666666667,0.249733333333333,0.260733333333333,-67.0533333333333,35.3333333333333,0.966666666666666,3.9905,-0.135175,0.391675,0.0389,13.65875,-3.71975,-13.9785,699.863333333333,1,1,1,1
24-May-2018 12:55:28,578.7,-0.14194,-0.1326,0.26758,10.888125,-23.590875,-18.904625,10.695,-0.524325,-0.1672,-0.875,-62.0777777777778,33.0682222222222,51.8666666666667,50.574,0.236966666666667,0.249733333333333,0.260733333333333,-67.0533333333333,35.3333333333333,0.966666666666666,3.9905,-0.135175,0.391675,0.0389,13.65875,-3.71975,-13.9785,699.863333333333,1,1,1,1
24-May-2018 12:55:28,578.7,-0.14194,-0.1326,0.26758,10.888125,-23.590875,-18.904625,10.695,-0.524325,-0.1672,-0.875,-62.0777777777778,33.0682222222222,51.8666666666667,50.574,0.236966666666667,0.249733333333333,0.260733333333333,-67.0533333333333,35.3333333333333,0.966666666666666,3.9905,-0.135175,0.391675,0.0389,13.65875,-3.71975,-13.9785,699.863333333333,1,1,1,1
24-May-2018 12:55:28,578.7,-0.14194,-0.1326,0.26758,10.888125,-23.590875,-18.904625,10.695,-0.524325,-0.1672,-0.875,-62.0777777777778,33.0682222222222,51.8666666666667,50.574,0.236966666666667,0.249733333333333,0.260733333333333,-67.0533333333333,35.3333333333333,0.966666666666666,3.9905,-0.135175,0.391675,0.0389,13.65875,-3.71975,-13.9785,699.863333333333,1,1,1,1
24-May-2018 12:55:29,411.4,0.385844444444444,-0.297977777777778,0.619622222222222,5.1674,-9.81999999999999,14.038,11.809,-0.48698,0.07302,-1.04422,-67.6444444444444,25.3184444444444,30.5302222222222,50.574,0.4370625,0.33465,0.2696625,31.7971428571429,67.9371428571429,7.38142857142857,4.4255,0.11178,0.41826,0.02042,3.674,2.60675,-0.670999999999999,667.638,1,1,1,1
24-May-2018 12:55:29,411.4,0.385844444444444,-0.297977777777778,0.619622222222222,5.1674,-9.81999999999999,14.038,11.809,-0.48698,0.07302,-1.04422,-67.6444444444444,25.3184444444444,30.5302222222222,50.574,0.4370625,0.33465,0.2696625,31.7971428571429,67.9371428571429,7.38142857142857,4.4255,0.11178,0.41826,0.02042,3.674,2.60675,-0.670999999999999,667.638,1,1,1,1
24-May-2018 12:55:29,411.4,0.385844444444444,-0.297977777777778,0.619622222222222,5.1674,-9.81999999999999,14.038,11.809,-0.48698,0.07302,-1.04422,-67.6444444444444,25.3184444444444,30.5302222222222,50.574,0.4370625,0.33465,0.2696625,31.7971428571429,67.9371428571429,7.38142857142857,4.4255,0.11178,0.41826,0.02042,3.674,2.60675,-0.670999999999999,667.638,1,1,1,1
24-May-2018 12:55:29,411.4,0.385844444444444,-0.297977777777778,0.619622222222222,5.1674,-9.81999999999999,14.038,11.809,-0.48698,0.07302,-1.04422,-67.6444444444444,25.3184444444444,30.5302222222222,50.574,0.4370625,0.33465,0.2696625,31.7971428571429,67.9371428571429,7.38142857142857,4.4255,0.11178,0.41826,0.02042,3.674,2.60675,-0.670999999999999,667.638,1,1,1,1
24-May-2018 12:55:30,282.75,0.1174,-0.266475,0.4657125,8.59644444444445,30.6888888888889,10.7734444444444,11.809,-0.4405,0.3232,-0.812775,-64.1571428571429,23.5322857142857,2.54742857142857,94.477,0.08155,0.196125,0.0518,-61.7866666666667,-58.87,32.76,3.9376,0.1463,1.065225,-0.02855,7.9634,-10.6832,-8.9146,635.705,1,1,1,1
24-May-2018 12:55:30,282.75,0.1174,-0.266475,0.4657125,8.59644444444445,30.6888888888889,10.7734444444444,11.809,-0.4405,0.3232,-0.812775,-64.1571428571429,23.5322857142857,2.54742857142857,94.477,0.08155,0.196125,0.0518,-61.7866666666667,-58.87,32.76,3.9376,0.1463,1.065225,-0.02855,7.9634,-10.6832,-8.9146,635.705,1,1,1,1
24-May-2018 12:55:30,282.75,0.1174,-0.266475,0.4657125,8.59644444444445,30.6888888888889,10.7734444444444,11.809,-0.4405,0.3232,-0.812775,-64.1571428571429,23.5322857142857,2.54742857142857,94.477,0.08155,0.196125,0.0518,-61.7866666666667,-58.87,32.76,3.9376,0.1463,1.065225,-0.02855,7.9634,-10.6832,-8.9146,635.705,1,1,1,1
24-May-2018 12:55:30,282.75,0.1174,-0.266475,0.4657125,8.59644444444445,30.6888888888889,10.7734444444444,11.809,-0.4405,0.3232,-0.812775,-64.1571428571429,23.5322857142857,2.54742857142857,94.477,0.08155,0.196125,0.0518,-61.7866666666667,-58.87,32.76,3.9376,0.1463,1.065225,-0.02855,7.9634,-10.6832,-8.9146,635.705,1,1,1,1
24-May-2018 12:55:31,-20.4444444444444,0.22558,-0.36584,0.56318,-54.752,-30.36,-9.506,11.809,-0.4949,0.4726,-0.749533333333333,-37.085,-29.135,-34.6375,94.477,0.36135,0.3874,0.4438,-61.005,-212.25,74.1875,4.1845,-0.1735,-0.07848,-0.21488,-14.5976,7.2924,9.9756,670.41,1,1,1,1
24-May-2018 12:55:31,-20.4444444444444,0.22558,-0.36584,0.56318,-54.752,-30.36,-9.506,11.809,-0.4949,0.4726,-0.749533333333333,-37.085,-29.135,-34.6375,94.477,0.36135,0.3874,0.4438,-61.005,-212.25,74.1875,4.1845,-0.1735,-0.07848,-0.21488,-14.5976,7.2924,9.9756,670.41,1,1,1,1
24-May-2018 12:55:31,-20.4444444444444,0.22558,-0.36584,0.56318,-54.752,-30.36,-9.506,11.809,-0.4949,0.4726,-0.749533333333333,-37.085,-29.135,-34.6375,94.477,0.36135,0.3874,0.4438,-61.005,-212.25,74.1875,4.1845,-0.1735,-0.07848,-0.21488,-14.5976,7.2924,9.9756,670.41,1,1,1,1
24-May-2018 12:55:31,-20.4444444444444,0.22558,-0.36584,0.56318,-54.752,-30.36,-9.506,11.809,-0.4949,0.4726,-0.749533333333333,-37.085,-29.135,-34.6375,94.477,0.36135,0.3874,0.4438,-61.005,-212.25,74.1875,4.1845,-0.1735,-0.07848,-0.21488,-14.5976,7.2924,9.9756,670.41,1,1,1,1
24-May-2018 12:55:32,186.5,0.137622222222222,-0.279888888888889,0.478311111111111,7.2855,117.209125,33.1125,11.809,-0.5236,0.400475,-0.905925,64.5825,-5.450625,-47.375,94.477,0.583942857142857,0.456285714285714,0.246457142857143,-19.2,129.92,-3.9104,4.0645,0.137516666666667,0.75065,-0.200916666666667,-11.8294,10.0976,15.1218,630.796333333333,1,1,1,1
24-May-2018 12:55:32,186.5,0.137622222222222,-0.279888888888889,0.478311111111111,7.2855,117.209125,33.1125,11.809,-0.5236,0.400475,-0.905925,64.5825,-5.450625,-47.375,94.477,0.583942857142857,0.456285714285714,0.246457142857143,-19.2,129.92,-3.9104,4.0645,0.137516666666667,0.75065,-0.200916666666667,-11.8294,10.0976,15.1218,630.796333333333,1,1,1,1
24-May-2018 12:55:32,186.5,0.137622222222222,-0.279888888888889,0.478311111111111,7.2855,117.209125,33.1125,11.809,-0.5236,0.400475,-0.905925,64.5825,-5.450625,-47.375,94.477,0.583942857142857,0.456285714285714,0.246457142857143,-19.2,129.92,-3.9104,4.0645,0.137516666666667,0.75065,-0.200916666666667,-11.8294,10.0976,15.1218,630.796333333333,1,1,1,1
24-May-2018 12:55:32,186.5,0.137622222222222,-0.279888888888889,0.478311111111111,7.2855,117.209125,33.1125,11.809,-0.5236,0.400475,-0.905925,64.5825,-5.450625,-47.375,94.477,0.583942857142857,0.456285714285714,0.246457142857143,-19.2,129.92,-3.9104,4.0645,0.137516666666667,0.75065,-0.200916666666667,-11.8294,10.0976,15.1218,630.796333333333,1,1,1,1
24-May-2018 12:55:33,211.555555555556,0.238342857142857,-0.252471428571429,0.5599,-35.9485714285714,10.6571428571429,4.11657142857143,11.809,-0.64876,0.21402,-0.75814,73.745,-108.55,6.464625,91.036,0.48582,0.47362,0.46952,27.3625,-12.0375,37.805,4.20466666666667,0.41392,0.6851,-0.08358,18.2318333333333,17.4796666666667,6.71766666666667,585.625,1,1,1,1
24-May-2018 12:55:33,211.555555555556,0.238342857142857,-0.252471428571429,0.5599,-35.9485714285714,10.6571428571429,4.11657142857143,11.809,-0.64876,0.21402,-0.75814,73.745,-108.55,6.464625,91.036,0.48582,0.47362,0.46952,27.3625,-12.0375,37.805,4.20466666666667,0.41392,0.6851,-0.08358,18.2318333333333,17.4796666666667,6.71766666666667,585.625,1,1,1,1
24-May-2018 12:55:33,211.555555555556,0.238342857142857,-0.252471428571429,0.5599,-35.9485714285714,10.6571428571429,4.11657142857143,11.809,-0.64876,0.21402,-0.75814,73.745,-108.55,6.464625,91.036,0.48582,0.47362,0.46952,27.3625,-12.0375,37.805,4.20466666666667,0.41392,0.6851,-0.08358,18.2318333333333,17.4796666666667,6.71766666666667,585.625,1,1,1,1
24-May-2018 12:55:33,211.555555555556,0.238342857142857,-0.252471428571429,0.5599,-35.9485714285714,10.6571428571429,4.11657142857143,0,-0.64876,0.21402,-0.75814,73.745,-108.55,6.464625,91.036,0.48582,0.47362,0.46952,27.3625,-12.0375,37.805,4.20466666666667,0.41392,0.6851,-0.08358,18.2318333333333,17.4796666666667,6.71766666666667,585.625,1,1,1,1
24-May-2018 12:55:34,-219.1,-0.0217333333333333,-0.0558,0.5358,8.934,-60.72,-34.5786,12.473,-0.845475,0.05695,-0.69295,49.7933333333333,-14.6988888888889,4.46555555555555,87.595,0.488716666666667,0.607933333333333,0.358683333333333,84.074,130.362,-106.918,4.1385,0.2778,0.90325,0.05055,3.99375,-15.8385,-8.2925,620.646,1,1,1,1
24-May-2018 12:55:34,-219.1,-0.0217333333333333,-0.0558,0.5358,8.934,-60.72,-34.5786,12.473,-0.845475,0.05695,-0.69295,49.7933333333333,-14.6988888888889,4.46555555555555,87.595,0.488716666666667,0.607933333333333,0.358683333333333,84.074,130.362,-106.918,4.1385,0.2778,0.90325,0.05055,3.99375,-15.8385,-8.2925,620.646,1,1,1,1
24-May-2018 12:55:34,-219.1,-0.0217333333333333,-0.0558,0.5358,8.934,-60.72,-34.5786,12.473,-0.845475,0.05695,-0.69295,49.7933333333333,-14.6988888888889,4.46555555555555,87.595,0.488716666666667,0.607933333333333,0.358683333333333,84.074,130.362,-106.918,4.1385,0.2778,0.90325,0.05055,3.99375,-15.8385,-8.2925,620.646,1,1,1,1
24-May-2018 12:55:34,-219.1,-0.0217333333333333,-0.0558,0.5358,8.934,-60.72,-34.5786,12.473,-0.845475,0.05695,-0.69295,49.7933333333333,-14.6988888888889,4.46555555555555,87.595,0.488716666666667,0.607933333333333,0.358683333333333,84.074,130.362,-106.918,4.1385,0.2778,0.90325,0.05055,3.99375,-15.8385,-8.2925,620.646,1,1,1,1
24-May-2018 12:55:35,-1049.28571428571,0.00781250000000003,-0.40375,0.5954625,-77.808,147.415,-5.70833333333333,11.69675,-0.86918,-0.08062,-0.59188,5.41055555555555,3.75688888888889,-4.49411111111111,87.595,0.493325,0.467425,0.428525,44.7957142857143,50.6171428571429,0.708142857142859,4.043,0.0934666666666667,0.782733333333333,-0.09345,12.244,7.0854,-16.0854,603.9975,1,1,1,1
24-May-2018 12:55:35,-1049.28571428571,0.00781250000000003,-0.40375,0.5954625,-77.808,147.415,-5.70833333333333,11.69675,-0.86918,-0.08062,-0.59188,5.41055555555555,3.75688888888889,-4.49411111111111,87.595,0.493325,0.467425,0.428525,44.7957142857143,50.6171428571429,0.708142857142859,4.043,0.0934666666666667,0.782733333333333,-0.09345,12.244,7.0854,-16.0854,603.9975,1,1,1,1
24-May-2018 12:55:35,-1049.28571428571,0.00781250000000003,-0.40375,0.5954625,-77.808,147.415,-5.70833333333333,11.69675,-0.86918,-0.08062,-0.59188,5.41055555555555,3.75688888888889,-4.49411111111111,87.595,0.493325,0.467425,0.428525,44.7957142857143,50.6171428571429,0.708142857142859,4.043,0.0934666666666667,0.782733333333333,-0.09345,12.244,7.0854,-16.0854,603.9975,1,1,1,1
24-May-2018 12:55:35,-1049.28571428571,0.00781250000000003,-0.40375,0.5954625,-77.808,147.415,-5.70833333333333,11.69675,-0.86918,-0.08062,-0.59188,5.41055555555555,3.75688888888889,-4.49411111111111,87.595,0.493325,0.467425,0.428525,44.7957142857143,50.6171428571429,0.708142857142859,4.043,0.0934666666666667,0.782733333333333,-0.09345,12.244,7.0854,-16.0854,603.9975,1,1,1,1
24-May-2018 12:55:36,-13.0909090909091,0.627983333333333,-0.447566666666667,0.6447,72.75,32.65,3.6525,12.5896666666667,-0.85585,-0.0171,-0.56785,-22.5166666666667,-3.03816666666667,-7.28333333333333,87.595,0.70855,0.38475,0.625116666666667,-52.0525,52.3,1.18,4.15366666666667,0.109733333333333,1.1117,-0.0451333333333333,-48.1685,5.35075,7.25625,545.303,1,1,1,1
24-May-2018 12:55:36,-13.0909090909091,0.627983333333333,-0.447566666666667,0.6447,72.75,32.65,3.6525,12.5896666666667,-0.85585,-0.0171,-0.56785,-22.5166666666667,-3.03816666666667,-7.28333333333333,87.595,0.70855,0.38475,0.625116666666667,-52.0525,52.3,1.18,4.15366666666667,0.109733333333333,1.1117,-0.0451333333333333,-48.1685,5.35075,7.25625,545.303,1,1,1,1
24-May-2018 12:55:36,-13.0909090909091,0.627983333333333,-0.447566666666667,0.6447,72.75,32.65,3.6525,12.5896666666667,-0.85585,-0.0171,-0.56785,-22.5166666666667,-3.03816666666667,-7.28333333333333,87.595,0.70855,0.38475,0.625116666666667,-52.0525,52.3,1.18,4.15366666666667,0.109733333333333,1.1117,-0.0451333333333333,-48.1685,5.35075,7.25625,545.303,1,1,1,1
24-May-2018 12:55:36,-13.0909090909091,0.627983333333333,-0.447566666666667,0.6447,72.75,32.65,3.6525,12.5896666666667,-0.85585,-0.0171,-0.56785,-22.5166666666667,-3.03816666666667,-7.28333333333333,87.595,0.70855,0.38475,0.625116666666667,-52.0525,52.3,1.18,4.15366666666667,0.109733333333333,1.1117,-0.0451333333333333,-48.1685,5.35075,7.25625,545.303,1,1,1,1
24-May-2018 12:55:37,506,0.102285714285714,0.0357,0.2997,-51.3233333333333,-20.45,-29.218,14.953,-0.83648,-0.02478,-0.58832,44.96525,-3.00725,11.820625,141.237,0.543483333333333,0.443,0.389233333333333,75.33,204.316666666667,-37.5816666666667,4.176,0.388742857142857,1.02597142857143,0.405471428571429,-42.7028333333333,2.2155,1.33133333333333,545.303,1,1,1,1
24-May-2018 12:55:37,506,0.102285714285714,0.0357,0.2997,-51.3233333333333,-20.45,-29.218,14.953,-0.83648,-0.02478,-0.58832,44.96525,-3.00725,11.820625,141.237,0.543483333333333,0.443,0.389233333333333,75.33,204.316666666667,-37.5816666666667,4.176,0.388742857142857,1.02597142857143,0.405471428571429,-42.7028333333333,2.2155,1.33133333333333,545.303,1,1,1,1
24-May-2018 12:55:37,506,0.102285714285714,0.0357,0.2997,-51.3233333333333,-20.45,-29.218,14.953,-0.83648,-0.02478,-0.58832,44.96525,-3.00725,11.820625,141.237,0.543483333333333,0.443,0.389233333333333,75.33,204.316666666667,-37.5816666666667,4.176,0.388742857142857,1.02597142857143,0.405471428571429,-42.7028333333333,2.2155,1.33133333333333,545.303,1,1,1,1
24-May-2018 12:55:37,506,0.102285714285714,0.0357,0.2997,-51.3233333333333,-20.45,-29.218,14.953,-0.83648,-0.02478,-0.58832,44.96525,-3.00725,11.820625,141.237,0.543483333333333,0.443,0.389233333333333,75.33,204.316666666667,-37.5816666666667,4.176,0.388742857142857,1.02597142857143,0.405471428571429,-42.7028333333333,2.2155,1.33133333333333,0,1,1,1,1
24-May-2018 12:55:38,171.2,0.09724,-0.13046,0.39784,32.5675555555556,-98.0532222222222,-25.206,21.034,-0.814883333333333,-0.21355,-0.596166666666667,88.8675,20.60625,46.24625,144.87,0.2449,0.201325,0.1849,83.8,103.444,-8.646,4.05066666666667,0.19985,0.9938,0.119325,-2.4878,1.7806,0.4754,707.433,1,1,1,1
24-May-2018 12:55:38,171.2,0.09724,-0.13046,0.39784,32.5675555555556,-98.0532222222222,-25.206,21.034,-0.814883333333333,-0.21355,-0.596166666666667,88.8675,20.60625,46.24625,144.87,0.2449,0.201325,0.1849,83.8,103.444,-8.646,4.05066666666667,0.19985,0.9938,0.119325,-2.4878,1.7806,0.4754,707.433,1,1,1,1
24-May-2018 12:55:38,171.2,0.09724,-0.13046,0.39784,32.5675555555556,-98.0532222222222,-25.206,21.034,-0.814883333333333,-0.21355,-0.596166666666667,88.8675,20.60625,46.24625,144.87,0.2449,0.201325,0.1849,83.8,103.444,-8.646,4.05066666666667,0.19985,0.9938,0.119325,-2.4878,1.7806,0.4754,707.433,1,1,1,1
24-May-2018 12:55:38,171.2,0.09724,-0.13046,0.39784,32.5675555555556,-98.0532222222222,-25.206,21.034,-0.814883333333333,-0.21355,-0.596166666666667,88.8675,20.60625,46.24625,144.87,0.2449,0.201325,0.1849,83.8,103.444,-8.646,4.05066666666667,0.19985,0.9938,0.119325,-2.4878,1.7806,0.4754,707.433,1,1,1,1
24-May-2018 12:55:39,-1993.72727272727,0.358916666666667,-0.0769166666666667,0.31175,10.0801428571429,-109.275714285714,-41.8728571428571,10.826,-0.83238,-0.14068,-0.61896,91.496,27.148,83.933,152.136,0.1715,0.305933333333333,0.0592666666666667,-56.2214285714286,32.4728571428571,19.1042857142857,4.029,0.1878,0.27738,0.00422,2.4758,4.4876,17.317,674.837,1,1,1,1
24-May-2018 12:55:39,-1993.72727272727,0.358916666666667,-0.0769166666666667,0.31175,10.0801428571429,-109.275714285714,-41.8728571428571,10.826,-0.83238,-0.14068,-0.61896,91.496,27.148,83.933,152.136,0.1715,0.305933333333333,0.0592666666666667,-56.2214285714286,32.4728571428571,19.1042857142857,4.029,0.1878,0.27738,0.00422,2.4758,4.4876,17.317,674.837,1,1,1,1
24-May-2018 12:55:39,-1993.72727272727,0.358916666666667,-0.0769166666666667,0.31175,10.0801428571429,-109.275714285714,-41.8728571428571,10.826,-0.83238,-0.14068,-0.61896,91.496,27.148,83.933,152.136,0.1715,0.305933333333333,0.0592666666666667,-56.2214285714286,32.4728571428571,19.1042857142857,4.029,0.1878,0.27738,0.00422,2.4758,4.4876,17.317,674.837,1,1,1,1
24-May-2018 12:55:39,-1993.72727272727,0.358916666666667,-0.0769166666666667,0.31175,10.0801428571429,-109.275714285714,-41.8728571428571,10.826,-0.83238,-0.14068,-0.61896,91.496,27.148,83.933,152.136,0.1715,0.305933333333333,0.0592666666666667,-56.2214285714286,32.4728571428571,19.1042857142857,4.029,0.1878,0.27738,0.00422,2.4758,4.4876,17.317,674.837,1,1,1,1
24-May-2018 12:55:40,-2048,0.138655555555556,-0.252855555555556,0.581466666666667,-30.7528571428571,46.5514285714286,-27.2942857142857,10.672,-0.83552,-0.07772,-0.61112,72.80125,18.63125,88.16625,152.136,0.521171428571429,0.344414285714286,0.392371428571429,-39.285,-50.1,29.2025,4.06066666666667,0.1263125,0.93305,0.0945625,-8.57142857142857,6.568,-10.27,614.778,1,1,1,1
24-May-2018 12:55:40,-2048,0.138655555555556,-0.252855555555556,0.581466666666667,-30.7528571428571,46.5514285714286,-27.2942857142857,10.672,-0.83552,-0.07772,-0.61112,72.80125,18.63125,88.16625,152.136,0.521171428571429,0.344414285714286,0.392371428571429,-39.285,-50.1,29.2025,4.06066666666667,0.1263125,0.93305,0.0945625,-8.57142857142857,6.568,-10.27,614.778,1,1,1,1
24-May-2018 12:55:40,-2048,0.138655555555556,-0.252855555555556,0.581466666666667,-30.7528571428571,46.5514285714286,-27.2942857142857,10.672,-0.83552,-0.07772,-0.61112,72.80125,18.63125,88.16625,152.136,0.521171428571429,0.344414285714286,0.392371428571429,-39.285,-50.1,29.2025,4.06066666666667,0.1263125,0.93305,0.0945625,-8.57142857142857,6.568,-10.27,614.778,1,1,1,1
24-May-2018 12:55:40,-2048,0.138655555555556,-0.252855555555556,0.581466666666667,-30.7528571428571,46.5514285714286,-27.2942857142857,10.672,-0.83552,-0.07772,-0.61112,72.80125,18.63125,88.16625,152.136,0.521171428571429,0.344414285714286,0.392371428571429,-39.285,-50.1,29.2025,4.06066666666667,0.1263125,0.93305,0.0945625,-8.57142857142857,6.568,-10.27,614.778,1,1,1,1
24-May-2018 12:55:41,1033.7,0.3048625,-0.07025,0.4124125,-26.38125,-113.5825,-40.46625,10.672,-0.7505,0.07008,-0.64076,68.875,14.78475,104.74875,154.728,0.614142857142857,0.386614285714286,0.399057142857143,-68.74,-31.28,27.484,4.5595,0.409214285714286,1.26445714285714,0.210742857142857,-6.5854,-0.5488,5.866,600.763666666667,1,1,1,1
24-May-2018 12:55:41,1033.7,0.3048625,-0.07025,0.4124125,-26.38125,-113.5825,-40.46625,10.672,-0.7505,0.07008,-0.64076,68.875,14.78475,104.74875,154.728,0.614142857142857,0.386614285714286,0.399057142857143,-68.74,-31.28,27.484,4.5595,0.409214285714286,1.26445714285714,0.210742857142857,-6.5854,-0.5488,5.866,600.763666666667,1,1,1,1
24-May-2018 12:55:41,1033.7,0.3048625,-0.07025,0.4124125,-26.38125,-113.5825,-40.46625,10.672,-0.7505,0.07008,-0.64076,68.875,14.78475,104.74875,154.728,0.614142857142857,0.386614285714286,0.399057142857143,-68.74,-31.28,27.484,4.5595,0.409214285714286,1.26445714285714,0.210742857142857,-6.5854,-0.5488,5.866,600.763666666667,1,1,1,1
24-May-2018 12:55:41,1033.7,0.3048625,-0.07025,0.4124125,-26.38125,-113.5825,-40.46625,10.672,-0.7505,0.07008,-0.64076,68.875,14.78475,104.74875,154.728,0.614142857142857,0.386614285714286,0.399057142857143,-68.74,-31.28,27.484,4.5595,0.409214285714286,1.26445714285714,0.210742857142857,-6.5854,-0.5488,5.866,600.763666666667,1,1,1,1
24-May-2018 12:55:42,2034.4,-0.2344,-0.182333333333333,0.48455,-61.0083333333333,-54.274,-19.4833333333333,10.672,-0.62875,0.197475,-0.9131,48.6433333333333,67.72,101.028333333333,157.32,-0.134766666666667,0.0459666666666667,-0.0204333333333333,11.3178,-52.94,40.348,4.023,0.648366666666667,1.20966666666667,0.245366666666667,2.061,-3.1218,-14.9512,612.5305,1,0,1,1
24-May-2018 12:55:42,2034.4,-0.2344,-0.182333333333333,0.48455,-61.0083333333333,-54.274,-19.4833333333333,10.672,-0.62875,0.197475,-0.9131,48.6433333333333,67.72,101.028333333333,157.32,-0.134766666666667,0.0459666666666667,-0.0204333333333333,11.3178,-52.94,40.348,4.023,0.648366666666667,1.20966666666667,0.245366666666667,2.061,-3.1218,-14.9512,612.5305,1,0,1,1
24-May-2018 12:55:42,2034.4,-0.2344,-0.182333333333333,0.48455,-61.0083333333333,-54.274,-19.4833333333333,0,-0.62875,0.197475,-0.9131,48.6433333333333,67.72,101.028333333333,157.32,-0.134766666666667,0.0459666666666667,-0.0204333333333333,11.3178,-52.94,40.348,4.023,0.648366666666667,1.20966666666667,0.245366666666667,2.061,-3.1218,-14.9512,612.5305,1,0,1,1
24-May-2018 12:55:42,2034.4,-0.2344,-0.182333333333333,0.48455,-61.0083333333333,-54.274,-19.4833333333333,0,-0.62875,0.197475,-0.9131,48.6433333333333,67.72,101.028333333333,157.32,-0.134766666666667,0.0459666666666667,-0.0204333333333333,11.3178,-52.94,40.348,4.023,0.648366666666667,1.20966666666667,0.245366666666667,2.061,-3.1218,-14.9512,612.5305,1,0,1,1
24-May-2018 12:55:43,1599.2,0.134257142857143,-0.1792,0.521385714285714,7.6737,21.724,-12.3563,10.518,-0.473,0.240775,-0.901925,43.35,-2.9078,63.252,157.32,0.530514285714286,0.465614285714286,0.499357142857143,-44.46,-26.69,-3.278,4.19466666666667,0.178566666666667,-0.0071,0.0200666666666667,-9.695,1.4025,-1.4025,647.4755,1,1,1,1
24-May-2018 12:55:43,1599.2,0.134257142857143,-0.1792,0.521385714285714,7.6737,21.724,-12.3563,10.518,-0.473,0.240775,-0.901925,43.35,-2.9078,63.252,157.32,0.530514285714286,0.465614285714286,0.499357142857143,-44.46,-26.69,-3.278,4.19466666666667,0.178566666666667,-0.0071,0.0200666666666667,-9.695,1.4025,-1.4025,647.4755,1,1,1,1
24-May-2018 12:55:43,1599.2,0.134257142857143,-0.1792,0.521385714285714,7.6737,21.724,-12.3563,10.518,-0.473,0.240775,-0.901925,43.35,-2.9078,63.252,157.32,0.530514285714286,0.465614285714286,0.499357142857143,-44.46,-26.69,-3.278,4.19466666666667,0.178566666666667,-0.0071,0.0200666666666667,-9.695,1.4025,-1.4025,647.4755,1,1,1,1
24-May-2018 12:55:43,1599.2,0.134257142857143,-0.1792,0.521385714285714,7.6737,21.724,-12.3563,10.518,-0.473,0.240775,-0.901925,43.35,-2.9078,63.252,157.32,0.530514285714286,0.465614285714286,0.499357142857143,-44.46,-26.69,-3.278,4.19466666666667,0.178566666666667,-0.0071,0.0200666666666667,-9.695,1.4025,-1.4025,647.4755,1,1,1,1
24-May-2018 12:55:44,755.363636363636,0.16944,-0.15234,0.476,-9.556,-72.076,-13.58,10.8024285714286,-0.4917,0.2013,-0.9286,51.07,-20.13625,42.725,164.360666666667,0.26156,0.23788,0.21852,4.8282,-87.148,23.214,3.626,0.1108,0.5749,-0.129575,2.8048,-8.8172,7.244,647.4755,1,1,1,1
24-May-2018 12:55:44,755.363636363636,0.16944,-0.15234,0.476,-9.556,-72.076,-13.58,10.8024285714286,-0.4917,0.2013,-0.9286,51.07,-20.13625,42.725,164.360666666667,0.26156,0.23788,0.21852,4.8282,-87.148,23.214,3.626,0.1108,0.5749,-0.129575,2.8048,-8.8172,7.244,647.4755,1,1,1,1
24-May-2018 12:55:44,755.363636363636,0.16944,-0.15234,0.476,-9.556,-72.076,-13.58,10.8024285714286,-0.4917,0.2013,-0.9286,51.07,-20.13625,42.725,164.360666666667,0.26156,0.23788,0.21852,4.8282,-87.148,23.214,3.626,0.1108,0.5749,-0.129575,2.8048,-8.8172,7.244,647.4755,1,1,1,1
24-May-2018 12:55:44,755.363636363636,0.16944,-0.15234,0.476,-9.556,-72.076,-13.58,10.8024285714286,-0.4917,0.2013,-0.9286,51.07,-20.13625,42.725,164.360666666667,0.26156,0.23788,0.21852,4.8282,-87.148,23.214,3.626,0.1108,0.5749,-0.129575,2.8048,-8.8172,7.244,0,1,1,1,1
24-May-2018 12:55:45,-503.333333333333,0.2859625,-0.175175,0.515575,7.35285714285714,-35.2464285714286,-6.66142857142857,12.734,-0.512975,0.1504,-0.89615,54.7455555555556,-12.4168888888889,23.43,167.881,1.087975,0.714275,0.796675,-21.9531666666667,47.74,4.75166666666667,4.07925,0.4562,1.9819,0.101866666666667,-1.1342,10.0122,1.0368,628.867,1,0,1,1
24-May-2018 12:55:45,-503.333333333333,0.2859625,-0.175175,0.515575,7.35285714285714,-35.2464285714286,-6.66142857142857,12.734,-0.512975,0.1504,-0.89615,54.7455555555556,-12.4168888888889,23.43,167.881,1.087975,0.714275,0.796675,-21.9531666666667,47.74,4.75166666666667,4.07925,0.4562,1.9819,0.101866666666667,-1.1342,10.0122,1.0368,628.867,1,0,1,1
24-May-2018 12:55:45,-503.333333333333,0.2859625,-0.175175,0.515575,7.35285714285714,-35.2464285714286,-6.66142857142857,12.734,-0.512975,0.1504,-0.89615,54.7455555555556,-12.4168888888889,23.43,167.881,1.087975,0.714275,0.796675,-21.9531666666667,47.74,4.75166666666667,4.07925,0.4562,1.9819,0.101866666666667,-1.1342,10.0122,1.0368,628.867,1,0,1,1
24-May-2018 12:55:45,-503.333333333333,0.2859625,-0.175175,0.515575,7.35285714285714,-35.2464285714286,-6.66142857142857,12.734,-0.512975,0.1504,-0.89615,54.7455555555556,-12.4168888888889,23.43,167.881,1.087975,0.714275,0.796675,-21.9531666666667,47.74,4.75166666666667,4.07925,0.4562,1.9819,0.101866666666667,-1.1342,10.0122,1.0368,628.867,1,0,1,1
24-May-2018 12:55:46,710.7,0.4826125,-0.1536375,0.4292625,50.13,82.4428571428572,37.3722857142857,10.8373333333333,-0.66855,0.00704999999999999,-0.86355,62.35,-9.003,21.51125,167.881,0.282728571428571,0.0299285714285714,0.375357142857143,17.635,-8.51375,38.76375,4.01275,-0.00833333333333334,0.619333333333333,-0.311866666666667,20.7072,8.9754,6.0124,644.884666666667,1,1,1,1
24-May-2018 12:55:46,710.7,0.4826125,-0.1536375,0.4292625,50.13,82.4428571428572,37.3722857142857,10.8373333333333,-0.66855,0.00704999999999999,-0.86355,62.35,-9.003,21.51125,167.881,0.282728571428571,0.0299285714285714,0.375357142857143,17.635,-8.51375,38.76375,4.01275,-0.00833333333333334,0.619333333333333,-0.311866666666667,20.7072,8.9754,6.0124,644.884666666667,1,1,1,1
24-May-2018 12:55:46,710.7,0.4826125,-0.1536375,0.4292625,50.13,82.4428571428572,37.3722857142857,10.8373333333333,-0.66855,0.00704999999999999,-0.86355,62.35,-9.003,21.51125,167.881,0.282728571428571,0.0299285714285714,0.375357142857143,17.635,-8.51375,38.76375,4.01275,-0.00833333333333334,0.619333333333333,-0.311866666666667,20.7072,8.9754,6.0124,644.884666666667,1,1,1,1
24-May-2018 12:55:46,710.7,0.4826125,-0.1536375,0.4292625,50.13,82.4428571428572,37.3722857142857,10.8373333333333,-0.66855,0.00704999999999999,-0.86355,62.35,-9.003,21.51125,167.881,0.282728571428571,0.0299285714285714,0.375357142857143,17.635,-8.51375,38.76375,4.01275,-0.00833333333333334,0.619333333333333,-0.311866666666667,20.7072,8.9754,6.0124,644.884666666667,1,1,1,1
24-May-2018 12:55:47,858.75,0.6658,-0.137357142857143,0.351128571428571,8.105,2.3975,2.56583333333333,11.345,-0.68628,-0.10518,-0.75782,15.4661111111111,-14.48,9.53088888888889,161.234333333333,0.781675,0.30725,0.5803,-17.28,-8.164,-9.7258,4.408,0.19154,1.10858,0.0448,7.27342857142857,-3.63214285714286,-2.49114285714286,587.183,1,0,1,1
24-May-2018 12:55:47,858.75,0.6658,-0.137357142857143,0.351128571428571,8.105,2.3975,2.56583333333333,11.345,-0.68628,-0.10518,-0.75782,15.4661111111111,-14.48,9.53088888888889,161.234333333333,0.781675,0.30725,0.5803,-17.28,-8.164,-9.7258,4.408,0.19154,1.10858,0.0448,7.27342857142857,-3.63214285714286,-2.49114285714286,587.183,1,0,1,1
24-May-2018 12:55:47,858.75,0.6658,-0.137357142857143,0.351128571428571,8.105,2.3975,2.56583333333333,11.345,-0.68628,-0.10518,-0.75782,15.4661111111111,-14.48,9.53088888888889,161.234333333333,0.781675,0.30725,0.5803,-17.28,-8.164,-9.7258,4.408,0.19154,1.10858,0.0448,7.27342857142857,-3.63214285714286,-2.49114285714286,587.183,1,0,1,1
24-May-2018 12:55:47,858.75,0.6658,-0.137357142857143,0.351128571428571,8.105,2.3975,2.56583333333333,11.345,-0.68628,-0.10518,-0.75782,15.4661111111111,-14.48,9.53088888888889,161.234333333333,0.781675,0.30725,0.5803,-17.28,-8.164,-9.7258,4.408,0.19154,1.10858,0.0448,7.27342857142857,-3.63214285714286,-2.49114285714286,587.183,1,0,1,1
