TIME,HELMET_RAW,BELT_ACC_X,BELT_ACC_Y,BELT_ACC_Z,BELT_ANG_X,BELT_ANG_Y,BELT_ANG_Z,BELT_LUMINOSITY,NECK_ACC_X,NECK_ACC_Y,NECK_ACC_Z,NECK_ANG_X,NECK_ANG_Y,NECK_ANG_Z,NECK_LUMINOSITY,PCKT_ACC_X,PCKT_ACC_Y,PCKT_ACC_Z,PCKT_ANG_X,PCKT_ANG_Y,PCKT_ANG_Z,PCKT_LUMINOSITY,WRST_ACC_X,WRST_ACC_Y,WRST_ACC_Z,WRST_ANG_X,WRST_ANG_Y,WRST_ANG_Z,WRST_LUMINOSITY,IR_1,IR_2,IR_3,IR_4
24-May-2018 14:09:01,51.2,0.897457142857143,0.259242857142857,-0.209471428571429,-2.90433333333333,4.54166666666667,1.5765,315.476,0,0,0,0,0,0,0,0.95765,-0.090975,0.19385,-1.91371428571429,-2.12,-0.128857142857143,0.022,-0.947571428571428,-0.224514285714286,0.1088,2.449,-23.4858333333333,-9.19716666666667,419.68075,1,1,1,0
24-May-2018 14:09:01,51.2,0.897457142857143,0.259242857142857,-0.209471428571429,-2.90433333333333,4.54166666666667,1.5765,315.476,0,0,0,0,0,0,0,0.95765,-0.090975,0.19385,-1.91371428571429,-2.12,-0.128857142857143,0.022,-0.947571428571428,-0.224514285714286,0.1088,2.449,-23.4858333333333,-9.19716666666667,419.68075,1,1,1,0
24-May-2018 14:09:01,51.2,0.897457142857143,0.259242857142857,-0.209471428571429,-2.90433333333333,4.54166666666667,1.5765,315.476,0,0,0,0,0,0,0,0.95765,-0.090975,0.19385,-1.91371428571429,-2.12,-0.128857142857143,0.022,-0.947571428571428,-0.224514285714286,0.1088,2.449,-23.4858333333333,-9.19716666666667,419.68075,1,1,1,0
24-May-2018 14:09:01,51.2,0.897457142857143,0.259242857142857,-0.209471428571429,-2.90433333333333,4.54166666666667,1.5765,315.476,0,0,0,0,0,0,0,0.95765,-0.090975,0.19385,-1.91371428571429,-2.12,-0.128857142857143,0.022,-0.947571428571428,-0.224514285714286,0.1088,2.449,-23.4858333333333,-9.19716666666667,419.68075,1,1,1,0
24-May-2018 14:09:02,51,0.937011111111111,0.127666666666667,-0.0824111111111111,21.026,7.33225,5.938375,315.476,0,0,0,0,0,0,0,0.958322222222222,-0.0999,0.1739,-0.587571428571429,-1.12857142857143,0.219142857142857,0.022,-0.923383333333333,-0.232116666666667,0.104583333333333,-6.8418,-1.2318,3,423.818,1,1,1,0
24-May-2018 14:09:02,51,0.937011111111111,0.127666666666667,-0.0824111111111111,21.026,7.33225,5.938375,315.476,0,0,0,0,0,0,0,0.958322222222222,-0.0999,0.1739,-0.587571428571429,-1.12857142857143,0.219142857142857,0.022,-0.923383333333333,-0.232116666666667,0.104583333333333,-6.8418,-1.2318,3,423.818,1,1,1,0
24-May-2018 14:09:02,51,0.937011111111111,0.127666666666667,-0.0824111111111111,21.026,7.33225,5.938375,315.476,0,0,0,0,0,0,0,0.958322222222222,-0.0999,0.1739,-0.587571428571429,-1.12857142857143,0.219142857142857,0.022,-0.923383333333333,-0.232116666666667,0.104583333333333,-6.8418,-1.2318,3,423.818,1,1,1,0
24-May-2018 14:09:02,51,0.937011111111111,0.127666666666667,-0.0824111111111111,21.026,7.33225,5.938375,315.476,0,0,0,0,0,0,0,0.958322222222222,-0.0999,0.1739,-0.587571428571429,-1.12857142857143,0.219142857142857,0.022,-0.923383333333333,-0.232116666666667,0.104583333333333,-6.8418,-1.2318,3,423.818,1,1,1,0
24-May-2018 14:09:03,51,0.957044444444444,0.116366666666667,-0.000533333333333332,7.83877777777778,2.64244444444444,-0.178222222222222,315.476,0,0,0,0,0,0,0,0.95844,-0.10882,0.16268,-0.119333333333333,-1.46833333333333,0.083,0.022,-0.9229,-0.2237,0.0908,4.87783333333333,0.3455,-0.965166666666667,409.069666666667,1,1,1,0
24-May-2018 14:09:03,51,0.957044444444444,0.116366666666667,-0.000533333333333332,7.83877777777778,2.64244444444444,-0.178222222222222,315.476,0,0,0,0,0,0,0,0.95844,-0.10882,0.16268,-0.119333333333333,-1.46833333333333,0.083,0.022,-0.9229,-0.2237,0.0908,4.87783333333333,0.3455,-0.965166666666667,409.069666666667,1,1,1,0
24-May-2018 14:09:03,51,0.957044444444444,0.116366666666667,-0.000533333333333332,7.83877777777778,2.64244444444444,-0.178222222222222,315.476,0,0,0,0,0,0,0,0.95844,-0.10882,0.16268,-0.119333333333333,-1.46833333333333,0.083,0.022,-0.9229,-0.2237,0.0908,4.87783333333333,0.3455,-0.965166666666667,409.069666666667,1,1,1,0
24-May-2018 14:09:03,51,0.957044444444444,0.116366666666667,-0.000533333333333332,7.83877777777778,2.64244444444444,-0.178222222222222,315.476,0,0,0,0,0,0,0,0.95844,-0.10882,0.16268,-0.119333333333333,-1.46833333333333,0.083,0.022,-0.9229,-0.2237,0.0908,4.87783333333333,0.3455,-0.965166666666667,409.069666666667,1,1,1,0
24-May-2018 14:09:04,51.6,0.9612,0.10915,-0.0351,4.41066666666667,-2.03066666666667,-0.81,315.476,0,0,0,0,0,0,0,0.9562,-0.113,0.16125,0.915,-1.15,0.305,0.022,-0.92,-0.22985,0.08065,4.573,4.085,-0.244,420.22,1,1,1,0
24-May-2018 14:09:04,51.6,0.9612,0.10915,-0.0351,4.41066666666667,-2.03066666666667,-0.81,315.476,0,0,0,0,0,0,0,0.9562,-0.113,0.16125,0.915,-1.15,0.305,0.022,-0.92,-0.22985,0.08065,4.573,4.085,-0.244,420.22,1,1,1,0
24-May-2018 14:09:04,51.6,0.9612,0.10915,-0.0351,4.41066666666667,-2.03066666666667,-0.81,315.476,0,0,0,0,0,0,0,0.9562,-0.113,0.16125,0.915,-1.15,0.305,0.022,-0.92,-0.22985,0.08065,4.573,4.085,-0.244,420.22,1,1,1,0
24-May-2018 14:09:04,51.6,0.9612,0.10915,-0.0351,4.41066666666667,-2.03066666666667,-0.81,315.476,0,0,0,0,0,0,0,0.9562,-0.113,0.16125,0.915,-1.15,0.305,0.022,-0.92,-0.22985,0.08065,4.573,4.085,-0.244,420.22,1,1,1,0
24-May-2018 14:09:05,51.3,0.958083333333333,0.1017,-0.04205,6.2025,0.72,1.37225,392.327666666667,0,0,0,0,0,0,0,0.957142857142857,-0.112814285714286,0.171642857142857,-2.2125,0.366666666666667,-0.911666666666667,0.022,-0.92386,-0.22208,0.08034,2.5002,0.6342,-0.5366,406.6515,1,1,1,0
24-May-2018 14:09:05,51.3,0.958083333333333,0.1017,-0.04205,6.2025,0.72,1.37225,392.327666666667,0,0,0,0,0,0,0,0.957142857142857,-0.112814285714286,0.171642857142857,-2.2125,0.366666666666667,-0.911666666666667,0.022,-0.92386,-0.22208,0.08034,2.5002,0.6342,-0.5366,406.6515,1,1,1,0
24-May-2018 14:09:05,51.3,0.958083333333333,0.1017,-0.04205,6.2025,0.72,1.37225,392.327666666667,0,0,0,0,0,0,0,0.957142857142857,-0.112814285714286,0.171642857142857,-2.2125,0.366666666666667,-0.911666666666667,0.022,-0.92386,-0.22208,0.08034,2.5002,0.6342,-0.5366,406.6515,1,1,1,0
24-May-2018 14:09:05,51.3,0.958083333333333,0.1017,-0.04205,6.2025,0.72,1.37225,392.327666666667,0,0,0,0,0,0,0,0.957142857142857,-0.112814285714286,0.171642857142857,-2.2125,0.366666666666667,-0.911666666666667,0.022,-0.92386,-0.22208,0.08034,2.5002,0.6342,-0.5366,406.6515,1,1,1,0
24-May-2018 14:09:06,51.6666666666667,0.954825,0.10175,-0.052775,-0.36525,0.3365,0.32125,382.9862,0,0,0,0,0,0,0,0.957875,-0.0977625,0.1791375,0.575142857142857,-0.961285714285714,-0.120428571428571,0.022,-0.923022222222222,-0.230444444444444,0.0842222222222222,2.0244,1.3416,-0.3662,410.893,1,1,1,0
24-May-2018 14:09:06,51.6666666666667,0.954825,0.10175,-0.052775,-0.36525,0.3365,0.32125,382.9862,0,0,0,0,0,0,0,0.957875,-0.0977625,0.1791375,0.575142857142857,-0.961285714285714,-0.120428571428571,0.022,-0.923022222222222,-0.230444444444444,0.0842222222222222,2.0244,1.3416,-0.3662,410.893,1,1,1,0
24-May-2018 14:09:06,51.6666666666667,0.954825,0.10175,-0.052775,-0.36525,0.3365,0.32125,382.9862,0,0,0,0,0,0,0,0.957875,-0.0977625,0.1791375,0.575142857142857,-0.961285714285714,-0.120428571428571,0.022,-0.923022222222222,-0.230444444444444,0.0842222222222222,2.0244,1.3416,-0.3662,410.893,1,1,1,0
24-May-2018 14:09:06,51.6666666666667,0.954825,0.10175,-0.052775,-0.36525,0.3365,0.32125,382.9862,0,0,0,0,0,0,0,0.957875,-0.0977625,0.1791375,0.575142857142857,-0.961285714285714,-0.120428571428571,0.022,-0.923022222222222,-0.230444444444444,0.0842222222222222,2.0244,1.3416,-0.3662,410.893,1,1,1,0
24-May-2018 14:09:07,51.8888888888889,0.954516666666667,0.109316666666667,-0.0431333333333333,-0.2898,-0.0932,-0.071,382.147833333333,0,0,0,0,0,0,0,0.956583333333333,-0.104866666666667,0.197566666666667,-0.809833333333333,0.398,-0.0885,0.022,-0.92085,-0.23265,0.0837,1.2905,-0.243833333333333,-0.5385,408.0758,1,1,1,0
24-May-2018 14:09:07,51.8888888888889,0.954516666666667,0.109316666666667,-0.0431333333333333,-0.2898,-0.0932,-0.071,382.147833333333,0,0,0,0,0,0,0,0.956583333333333,-0.104866666666667,0.197566666666667,-0.809833333333333,0.398,-0.0885,0.022,-0.92085,-0.23265,0.0837,1.2905,-0.243833333333333,-0.5385,408.0758,1,1,1,0
24-May-2018 14:09:07,51.8888888888889,0.954516666666667,0.109316666666667,-0.0431333333333333,-0.2898,-0.0932,-0.071,382.147833333333,0,0,0,0,0,0,0,0.956583333333333,-0.104866666666667,0.197566666666667,-0.809833333333333,0.398,-0.0885,0.022,-0.92085,-0.23265,0.0837,1.2905,-0.243833333333333,-0.5385,408.0758,1,1,1,0
24-May-2018 14:09:07,51.8888888888889,0.954516666666667,0.109316666666667,-0.0431333333333333,-0.2898,-0.0932,-0.071,382.147833333333,0,0,0,0,0,0,0,0.956583333333333,-0.104866666666667,0.197566666666667,-0.809833333333333,0.398,-0.0885,0.022,-0.92085,-0.23265,0.0837,1.2905,-0.243833333333333,-0.5385,408.0758,1,1,1,0
24-May-2018 14:09:08,51.2727272727273,0.95445,0.11595,-0.048325,-1.2475,-0.8175,-0.3,382.478,0,0,0,0,0,0,0,0.9564,-0.097475,0.1941375,-0.525333333333333,-1.48833333333333,-0.353333333333333,0.022,-0.919383333333333,-0.230416666666667,0.0958,3.181,-0.497833333333333,-0.457166666666667,409.4555,1,1,1,0
24-May-2018 14:09:08,51.2727272727273,0.95445,0.11595,-0.048325,-1.2475,-0.8175,-0.3,382.478,0,0,0,0,0,0,0,0.9564,-0.097475,0.1941375,-0.525333333333333,-1.48833333333333,-0.353333333333333,0.022,-0.919383333333333,-0.230416666666667,0.0958,3.181,-0.497833333333333,-0.457166666666667,409.4555,1,1,1,0
24-May-2018 14:09:08,51.2727272727273,0.95445,0.11595,-0.048325,-1.2475,-0.8175,-0.3,382.478,0,0,0,0,0,0,0,0.9564,-0.097475,0.1941375,-0.525333333333333,-1.48833333333333,-0.353333333333333,0.022,-0.919383333333333,-0.230416666666667,0.0958,3.181,-0.497833333333333,-0.457166666666667,409.4555,1,1,1,0
24-May-2018 14:09:08,51.2727272727273,0.95445,0.11595,-0.048325,-1.2475,-0.8175,-0.3,382.478,0,0,0,0,0,0,0,0.9564,-0.097475,0.1941375,-0.525333333333333,-1.48833333333333,-0.353333333333333,0.022,-0.919383333333333,-0.230416666666667,0.0958,3.181,-0.497833333333333,-0.457166666666667,409.4555,1,1,1,0
24-May-2018 14:09:09,51.4,0.95395,0.118683333333333,-0.0471666666666667,1.5366,0.5368,0.3908,383.876666666667,0,0,0,0,0,0,0,0.9569,-0.1054875,0.1896875,0.924428571428571,-1.111,-0.0582857142857142,0.022,-0.917,-0.22244,0.08998,-3.3995,2.17975,-0.13725,422.0205,1,1,1,0
24-May-2018 14:09:09,51.4,0.95395,0.118683333333333,-0.0471666666666667,1.5366,0.5368,0.3908,383.876666666667,0,0,0,0,0,0,0,0.9569,-0.1054875,0.1896875,0.924428571428571,-1.111,-0.0582857142857142,0.022,-0.917,-0.22244,0.08998,-3.3995,2.17975,-0.13725,422.0205,1,1,1,0
24-May-2018 14:09:09,51.4,0.95395,0.118683333333333,-0.0471666666666667,1.5366,0.5368,0.3908,383.876666666667,0,0,0,0,0,0,0,0.9569,-0.1054875,0.1896875,0.924428571428571,-1.111,-0.0582857142857142,0.022,-0.917,-0.22244,0.08998,-3.3995,2.17975,-0.13725,422.0205,1,1,1,0
24-May-2018 14:09:09,51.4,0.95395,0.118683333333333,-0.0471666666666667,1.5366,0.5368,0.3908,383.876666666667,0,0,0,0,0,0,0,0.9569,-0.1054875,0.1896875,0.924428571428571,-1.111,-0.0582857142857142,0.022,-0.917,-0.22244,0.08998,-3.3995,2.17975,-0.13725,422.0205,1,1,1,0
24-May-2018 14:09:10,51.3636363636364,0.952714285714286,0.120785714285714,-0.0471428571428571,0.673,0.157571428571429,0.531714285714286,385.344,0,0,0,0,0,0,0,0.95716,-0.1018,0.18838,0.0236666666666666,-0.725,-0.120833333333333,0.022,-0.9225,-0.239316666666667,0.0857333333333333,-0.1525,-0.66325,-0.304875,403.865,1,1,1,0
24-May-2018 14:09:10,51.3636363636364,0.952714285714286,0.120785714285714,-0.0471428571428571,0.673,0.157571428571429,0.531714285714286,385.344,0,0,0,0,0,0,0,0.95716,-0.1018,0.18838,0.0236666666666666,-0.725,-0.120833333333333,0.022,-0.9225,-0.239316666666667,0.0857333333333333,-0.1525,-0.66325,-0.304875,403.865,1,1,1,0
24-May-2018 14:09:10,51.3636363636364,0.952714285714286,0.120785714285714,-0.0471428571428571,0.673,0.157571428571429,0.531714285714286,385.344,0,0,0,0,0,0,0,0.95716,-0.1018,0.18838,0.0236666666666666,-0.725,-0.120833333333333,0.022,-0.9225,-0.239316666666667,0.0857333333333333,-0.1525,-0.66325,-0.304875,403.865,1,1,1,0
24-May-2018 14:09:10,51.3636363636364,0.952714285714286,0.120785714285714,-0.0471428571428571,0.673,0.157571428571429,0.531714285714286,385.344,0,0,0,0,0,0,0,0.95716,-0.1018,0.18838,0.0236666666666666,-0.725,-0.120833333333333,0.022,-0.9225,-0.239316666666667,0.0857333333333333,-0.1525,-0.66325,-0.304875,403.865,1,1,1,0
24-May-2018 14:09:11,51.9,0.95455,0.11215,-0.0456,-1.34,1.4325,1.1285,385.242,0,0,0,0,0,0,0,0.95715,-0.10405,0.19025,-0.42,-0.54,-0.120833333333333,0.022,-0.921933333333333,-0.231866666666667,0.0645333333333333,5.061,-2.012,-3.963,401.151,1,1,1,0
24-May-2018 14:09:11,51.9,0.95455,0.11215,-0.0456,-1.34,1.4325,1.1285,385.242,0,0,0,0,0,0,0,0.95715,-0.10405,0.19025,-0.42,-0.54,-0.120833333333333,0.022,-0.921933333333333,-0.231866666666667,0.0645333333333333,5.061,-2.012,-3.963,401.151,1,1,1,0
24-May-2018 14:09:11,51.9,0.95455,0.11215,-0.0456,-1.34,1.4325,1.1285,385.242,0,0,0,0,0,0,0,0.95715,-0.10405,0.19025,-0.42,-0.54,-0.120833333333333,0.022,-0.921933333333333,-0.231866666666667,0.0645333333333333,5.061,-2.012,-3.963,401.151,1,1,1,0
24-May-2018 14:09:11,51.9,0.95455,0.11215,-0.0456,-1.34,1.4325,1.1285,385.242,0,0,0,0,0,0,0,0.95715,-0.10405,0.19025,-0.42,-0.54,0,0.022,-0.921933333333333,-0.231866666666667,0.0645333333333333,5.061,-2.012,-3.963,401.151,1,1,1,0
24-May-2018 14:09:12,51.7,0.95408,0.11018,-0.04962,2.2926,-0.1332,0.1104,388.581,0,0,0,0,0,0,0,0.95568,-0.10754,0.19338,-1.10925,-0.5,-0.05925,0.022,-0.92275,-0.235075,0.077525,-0.45725,1.4635,0.39625,402.531,1,1,1,0
24-May-2018 14:09:12,51.7,0.95408,0.11018,-0.04962,2.2926,-0.1332,0.1104,388.581,0,0,0,0,0,0,0,0.95568,-0.10754,0.19338,-1.10925,-0.5,-0.05925,0.022,-0.92275,-0.235075,0.077525,-0.45725,1.4635,0.39625,402.531,1,1,1,0
24-May-2018 14:09:12,51.7,0.95408,0.11018,-0.04962,2.2926,-0.1332,0.1104,388.581,0,0,0,0,0,0,0,0.95568,-0.10754,0.19338,-1.10925,-0.5,-0.05925,0.022,-0.92275,-0.235075,0.077525,-0.45725,1.4635,0.39625,402.531,1,1,1,0
24-May-2018 14:09:12,51.7,0.95408,0.11018,-0.04962,2.2926,-0.1332,0.1104,388.581,0,0,0,0,0,0,0,0.95568,-0.10754,0.19338,-1.10925,-0.5,-0.05925,0.022,-0.92275,-0.235075,0.077525,-0.45725,1.4635,0.39625,402.531,1,1,1,0
24-May-2018 14:09:13,51.6666666666667,0.955157142857143,0.105614285714286,-0.0390571428571429,1.90771428571429,-0.291142857142857,0.619285714285714,387.168,0,0,0,0,0,0,0,0.955957142857143,-0.106157142857143,0.196814285714286,-0.9,-0.87,-0.676666666666667,0.022,-0.919933333333333,-0.24045,0.0737666666666667,0.8005,1.524375,1.188875,402.041,1,1,1,0
24-May-2018 14:09:13,51.6666666666667,0.955157142857143,0.105614285714286,-0.0390571428571429,1.90771428571429,-0.291142857142857,0.619285714285714,387.168,0,0,0,0,0,0,0,0.955957142857143,-0.106157142857143,0.196814285714286,-0.9,-0.87,-0.676666666666667,0.022,-0.919933333333333,-0.24045,0.0737666666666667,0.8005,1.524375,1.188875,402.041,1,1,1,0
24-May-2018 14:09:13,51.6666666666667,0.955157142857143,0.105614285714286,-0.0390571428571429,1.90771428571429,-0.291142857142857,0.619285714285714,387.168,0,0,0,0,0,0,0,0.955957142857143,-0.106157142857143,0.196814285714286,-0.9,-0.87,-0.676666666666667,0.022,-0.919933333333333,-0.24045,0.0737666666666667,0.8005,1.524375,1.188875,402.041,1,1,1,0
24-May-2018 14:09:13,51.6666666666667,0.955157142857143,0.105614285714286,-0.0390571428571429,1.90771428571429,-0.291142857142857,0.619285714285714,387.168,0,0,0,0,0,0,0,0.955957142857143,-0.106157142857143,0.196814285714286,-0.9,-0.87,-0.676666666666667,0.022,-0.919933333333333,-0.24045,0.0737666666666667,0.8005,1.524375,1.188875,402.041,1,1,1,0
24-May-2018 14:09:14,51.8333333333333,0.954085714285714,0.105242857142857,-0.0567428571428571,0.398125,0.26825,0.191875,382.306,0,0,0,0,0,0,0,0.9561,-0.0983333333333333,0.19005,-0.5135,-1.1075,-0.255,0.022,-0.918733333333333,-0.233066666666667,0.0615666666666667,-1.6828,-0.134,-0.0488000000000002,399.9588,1,1,1,0
24-May-2018 14:09:14,51.8333333333333,0.954085714285714,0.105242857142857,-0.0567428571428571,0.398125,0.26825,0.191875,382.306,0,0,0,0,0,0,0,0.9561,-0.0983333333333333,0.19005,-0.5135,-1.1075,-0.255,0.022,-0.918733333333333,-0.233066666666667,0.0615666666666667,-1.6828,-0.134,-0.0488000000000002,399.9588,1,1,1,0
24-May-2018 14:09:14,51.8333333333333,0.954085714285714,0.105242857142857,-0.0567428571428571,0.398125,0.26825,0.191875,382.306,0,0,0,0,0,0,0,0.9561,-0.0983333333333333,0.19005,-0.5135,-1.1075,-0.255,0.022,-0.918733333333333,-0.233066666666667,0.0615666666666667,-1.6828,-0.134,-0.0488000000000002,399.9588,1,1,1,0
24-May-2018 14:09:14,51.8333333333333,0.954085714285714,0.105242857142857,-0.0567428571428571,0.398125,0.26825,0.191875,382.306,0,0,0,0,0,0,0,0.9561,-0.0983333333333333,0.19005,-0.5135,-1.1075,-0.255,0.022,-0.918733333333333,-0.233066666666667,0.0615666666666667,-1.6828,-0.134,-0.0488000000000002,399.9588,1,1,1,0
24-May-2018 14:09:15,51.8,0.9545,0.101025,-0.049725,1.585875,0.15375,0.41975,382.306,0,0,0,0,0,0,0,0.956366666666667,-0.104216666666667,0.194083333333333,-0.484,-0.31,-0.019,0.022,-0.924283333333333,-0.232533333333333,0.0749166666666667,1.11485714285714,0.0435714285714286,-0.313571428571429,399.921,1,1,1,0
24-May-2018 14:09:15,51.8,0.9545,0.101025,-0.049725,1.585875,0.15375,0.41975,382.306,0,0,0,0,0,0,0,0.956366666666667,-0.104216666666667,0.194083333333333,-0.484,-0.31,-0.019,0.022,-0.924283333333333,-0.232533333333333,0.0749166666666667,1.11485714285714,0.0435714285714286,-0.313571428571429,399.921,1,1,1,0
24-May-2018 14:09:15,51.8,0.9545,0.101025,-0.049725,1.585875,0.15375,0.41975,382.306,0,0,0,0,0,0,0,0.956366666666667,-0.104216666666667,0.194083333333333,-0.484,-0.31,-0.019,0.022,-0.924283333333333,-0.232533333333333,0.0749166666666667,1.11485714285714,0.0435714285714286,-0.313571428571429,399.921,1,1,1,0
24-May-2018 14:09:15,51.8,0.9545,0.101025,-0.049725,1.585875,0.15375,0.41975,382.306,0,0,0,0,0,0,0,0.956366666666667,-0.104216666666667,0.194083333333333,-0.484,-0.31,-0.019,0.022,-0.924283333333333,-0.232533333333333,0.0749166666666667,1.11485714285714,0.0435714285714286,-0.313571428571429,399.921,1,1,1,0
24-May-2018 14:09:16,51.875,0.954933333333333,0.108955555555556,-0.0486333333333333,1.8191,0.2563,0.3119,382.306,0,0,0,0,0,0,0,0.9556,-0.10492,0.2012,-0.781428571428571,-0.735714285714286,-0.308571428571429,0.022,-0.9239,-0.229675,0.064225,0.2196,0.7316,-0.4268,396.352,1,1,1,0
24-May-2018 14:09:16,51.875,0.954933333333333,0.108955555555556,-0.0486333333333333,1.8191,0.2563,0.3119,382.306,0,0,0,0,0,0,0,0.9556,-0.10492,0.2012,-0.781428571428571,-0.735714285714286,-0.308571428571429,0.022,-0.9239,-0.229675,0.064225,0.2196,0.7316,-0.4268,396.352,1,1,1,0
24-May-2018 14:09:16,51.875,0.954933333333333,0.108955555555556,-0.0486333333333333,1.8191,0.2563,0.3119,0,0,0,0,0,0,0,0,0.9556,-0.10492,0.2012,-0.781428571428571,-0.735714285714286,-0.308571428571429,0.022,-0.9239,-0.229675,0.064225,0.2196,0.7316,-0.4268,396.352,1,1,1,0
24-May-2018 14:09:16,51.875,0.954933333333333,0.108955555555556,-0.0486333333333333,1.8191,0.2563,0.3119,0,0,0,0,0,0,0,0,0.9556,-0.10492,0.2012,-0.781428571428571,-0.735714285714286,-0.308571428571429,0.022,-0.9239,-0.229675,0.064225,0.2196,0.7316,-0.4268,396.352,1,1,1,0
24-May-2018 14:09:17,52,0.954783333333333,0.101216666666667,-0.04665,0.684,-0.2528,0.4028,381.219,0,0,0,0,0,0,0,0.956383333333333,-0.104733333333333,0.19725,-0.401625,-1.215,-0.2325,0.022,-0.923771428571429,-0.236457142857143,0.0668428571428571,1.52428571428571,0.392,-0.287428571428571,395.548666666667,1,1,1,0
24-May-2018 14:09:17,52,0.954783333333333,0.101216666666667,-0.04665,0.684,-0.2528,0.4028,381.219,0,0,0,0,0,0,0,0.956383333333333,-0.104733333333333,0.19725,-0.401625,-1.215,-0.2325,0.022,-0.923771428571429,-0.236457142857143,0.0668428571428571,1.52428571428571,0.392,-0.287428571428571,395.548666666667,1,1,1,0
24-May-2018 14:09:17,52,0.954783333333333,0.101216666666667,-0.04665,0.684,-0.2528,0.4028,381.219,0,0,0,0,0,0,0,0.956383333333333,-0.104733333333333,0.19725,-0.401625,-1.215,-0.2325,0.022,-0.923771428571429,-0.236457142857143,0.0668428571428571,1.52428571428571,0.392,-0.287428571428571,395.548666666667,1,1,1,0
24-May-2018 14:09:17,52,0.954783333333333,0.101216666666667,-0.04665,0.684,-0.2528,0.4028,381.219,0,0,0,0,0,0,0,0.956383333333333,-0.104733333333333,0.19725,-0.401625,-1.215,-0.2325,0.022,-0.923771428571429,-0.236457142857143,0.0668428571428571,1.52428571428571,0.392,-0.287428571428571,395.548666666667,1,1,1,0
24-May-2018 14:09:18,52,0.9547,0.103616666666667,-0.0579,0.3174,0.00320000000000002,0.5002,377.095,0,0,0,0,0,0,0,0.95612,-0.10548,0.19556,-0.94,-0.76,-0.165,0.022,-0.9225,-0.23416,0.06892,0.5002,0.5124,-0.0488,398.04625,1,1,1,0
24-May-2018 14:09:18,52,0.9547,0.103616666666667,-0.0579,0.3174,0.00320000000000002,0.5002,377.095,0,0,0,0,0,0,0,0.95612,-0.10548,0.19556,-0.94,-0.76,-0.165,0.022,-0.9225,-0.23416,0.06892,0.5002,0.5124,-0.0488,398.04625,1,1,1,0
24-May-2018 14:09:18,52,0.9547,0.103616666666667,-0.0579,0.3174,0.00320000000000002,0.5002,377.095,0,0,0,0,0,0,0,0.95612,-0.10548,0.19556,-0.94,-0.76,-0.165,0.022,-0.9225,-0.23416,0.06892,0.5002,0.5124,-0.0488,398.04625,1,1,1,0
24-May-2018 14:09:18,52,0.9547,0.103616666666667,-0.0579,0.3174,0.00320000000000002,0.5002,377.095,0,0,0,0,0,0,0,0.95612,-0.10548,0.19556,-0.94,-0.76,-0.165,0.022,-0.9225,-0.23416,0.06892,0.5002,0.5124,-0.0488,398.04625,1,1,1,0
24-May-2018 14:09:19,52,0.954914285714286,0.100428571428571,-0.0506428571428571,0.103333333333333,0.660833333333333,0.325333333333333,376.4075,0,0,0,0,0,0,0,0.95734,-0.10246,0.18854,-0.461375,-1.44375,-0.374875,0.022,-0.922733333333333,-0.231966666666667,0.0640333333333333,0.5895,0.792833333333333,-0.0101666666666666,396.021,1,1,1,0
24-May-2018 14:09:19,52,0.954914285714286,0.100428571428571,-0.0506428571428571,0.103333333333333,0.660833333333333,0.325333333333333,376.4075,0,0,0,0,0,0,0,0.95734,-0.10246,0.18854,-0.461375,-1.44375,-0.374875,0.022,-0.922733333333333,-0.231966666666667,0.0640333333333333,0.5895,0.792833333333333,-0.0101666666666666,396.021,1,1,1,0
24-May-2018 14:09:19,52,0.954914285714286,0.100428571428571,-0.0506428571428571,0.103333333333333,0.660833333333333,0.325333333333333,376.4075,0,0,0,0,0,0,0,0.95734,-0.10246,0.18854,-0.461375,-1.44375,-0.374875,0.022,-0.922733333333333,-0.231966666666667,0.0640333333333333,0.5895,0.792833333333333,-0.0101666666666666,396.021,1,1,1,0
24-May-2018 14:09:19,52,0.954914285714286,0.100428571428571,-0.0506428571428571,0.103333333333333,0.660833333333333,0.325333333333333,376.4075,0,0,0,0,0,0,0,0.95734,-0.10246,0.18854,-0.461375,-1.44375,-0.374875,0.022,-0.922733333333333,-0.231966666666667,0.0640333333333333,0.5895,0.792833333333333,-0.0101666666666666,396.021,1,1,1,0
24-May-2018 14:09:20,52,0.9554,0.101733333333333,-0.0447666666666667,0.2562,0.0254,0.4514,379.443,0,0,0,0,0,0,0,0.956025,-0.1067,0.186,-0.678,-0.563333333333333,-0.07,0.022,-0.924314285714286,-0.229114285714286,0.0597857142857143,0.9512,0.1098,-0.0854,393.413333333333,1,1,1,0
24-May-2018 14:09:20,52,0.9554,0.101733333333333,-0.0447666666666667,0.2562,0.0254,0.4514,379.443,0,0,0,0,0,0,0,0.956025,-0.1067,0.186,-0.678,-0.563333333333333,-0.07,0.022,-0.924314285714286,-0.229114285714286,0.0597857142857143,0.9512,0.1098,-0.0854,393.413333333333,1,1,1,0
24-May-2018 14:09:20,52,0.9554,0.101733333333333,-0.0447666666666667,0.2562,0.0254,0.4514,379.443,0,0,0,0,0,0,0,0.956025,-0.1067,0.186,-0.678,-0.563333333333333,-0.07,0.022,-0.924314285714286,-0.229114285714286,0.0597857142857143,0.9512,0.1098,-0.0854,393.413333333333,1,1,1,0
24-May-2018 14:09:20,52,0.9554,0.101733333333333,-0.0447666666666667,0.2562,0.0254,0.4514,379.443,0,0,0,0,0,0,0,0.956025,-0.1067,0.186,-0.678,-0.563333333333333,-0.07,0.022,-0.924314285714286,-0.229114285714286,0.0597857142857143,0.9512,0.1098,-0.0854,393.413333333333,1,1,1,0
24-May-2018 14:09:21,52,0.954442857142857,0.102971428571429,-0.0541571428571429,1.01085714285714,-0.648571428571429,0.148142857142857,380.394,0,0,0,0,0,0,0,0.9562,-0.106785714285714,0.192114285714286,-0.514833333333333,-0.96,-0.435,0.022,-0.92314,-0.23434,0.06516,1.60825,0.457375,-0.05325,394.66425,1,1,1,0
24-May-2018 14:09:21,52,0.954442857142857,0.102971428571429,-0.0541571428571429,1.01085714285714,-0.648571428571429,0.148142857142857,380.394,0,0,0,0,0,0,0,0.9562,-0.106785714285714,0.192114285714286,-0.514833333333333,-0.96,-0.435,0.022,-0.92314,-0.23434,0.06516,1.60825,0.457375,-0.05325,394.66425,1,1,1,0
24-May-2018 14:09:21,52,0.954442857142857,0.102971428571429,-0.0541571428571429,1.01085714285714,-0.648571428571429,0.148142857142857,380.394,0,0,0,0,0,0,0,0.9562,-0.106785714285714,0.192114285714286,-0.514833333333333,-0.96,-0.435,0.022,-0.92314,-0.23434,0.06516,1.60825,0.457375,-0.05325,394.66425,1,1,1,0
24-May-2018 14:09:21,52,0.954442857142857,0.102971428571429,-0.0541571428571429,1.01085714285714,-0.648571428571429,0.148142857142857,380.394,0,0,0,0,0,0,0,0.9562,-0.106785714285714,0.192114285714286,-0.514833333333333,-0.96,-0.435,0.022,-0.92314,-0.23434,0.06516,1.60825,0.457375,-0.05325,394.66425,1,1,1,0
24-May-2018 14:09:22,52,0.954016666666667,0.103083333333333,-0.0624166666666667,0.77775,0.245,0.366,374.03825,0,0,0,0,0,0,0,0.9572,-0.0996285714285714,0.185428571428571,-0.554714285714286,-1.02285714285714,-0.458571428571429,0.022,-0.923316666666667,-0.228066666666667,0.0629666666666667,-0.1952,0.6464,-0.2806,396.57275,1,1,1,0
24-May-2018 14:09:22,52,0.954016666666667,0.103083333333333,-0.0624166666666667,0.77775,0.245,0.366,374.03825,0,0,0,0,0,0,0,0.9572,-0.0996285714285714,0.185428571428571,-0.554714285714286,-1.02285714285714,-0.458571428571429,0.022,-0.923316666666667,-0.228066666666667,0.0629666666666667,-0.1952,0.6464,-0.2806,396.57275,1,1,1,0
24-May-2018 14:09:22,52,0.954016666666667,0.103083333333333,-0.0624166666666667,0.77775,0.245,0.366,374.03825,0,0,0,0,0,0,0,0.9572,-0.0996285714285714,0.185428571428571,-0.554714285714286,-1.02285714285714,-0.458571428571429,0.022,-0.923316666666667,-0.228066666666667,0.0629666666666667,-0.1952,0.6464,-0.2806,396.57275,1,1,1,0
24-May-2018 14:09:22,52,0.954016666666667,0.103083333333333,-0.0624166666666667,0.77775,0.245,0.366,374.03825,0,0,0,0,0,0,0,0.9572,-0.0996285714285714,0.185428571428571,-0.554714285714286,-1.02285714285714,-0.458571428571429,0.022,-0.923316666666667,-0.228066666666667,0.0629666666666667,-0.1952,0.6464,-0.2806,396.57275,1,1,1,0
24-May-2018 14:09:23,52,0.9547875,0.10355,-0.0556875,0.374714285714286,0.123,0.252714285714286,375.09925,0,0,0,0,0,0,0,0.957675,-0.098075,0.183,-0.805625,-0.74125,-0.2625,0.022,-0.923616666666667,-0.232783333333333,0.0643,0.88425,0.144875,-0.244,394.8356,1,1,1,0
24-May-2018 14:09:23,52,0.9547875,0.10355,-0.0556875,0.374714285714286,0.123,0.252714285714286,375.09925,0,0,0,0,0,0,0,0.957675,-0.098075,0.183,-0.805625,-0.74125,-0.2625,0.022,-0.923616666666667,-0.232783333333333,0.0643,0.88425,0.144875,-0.244,394.8356,1,1,1,0
24-May-2018 14:09:23,52,0.9547875,0.10355,-0.0556875,0.374714285714286,0.123,0.252714285714286,375.09925,0,0,0,0,0,0,0,0.957675,-0.098075,0.183,-0.805625,-0.74125,-0.2625,0.022,-0.923616666666667,-0.232783333333333,0.0643,0.88425,0.144875,-0.244,394.8356,1,1,1,0
24-May-2018 14:09:23,52,0.9547875,0.10355,-0.0556875,0.374714285714286,0.123,0.252714285714286,375.09925,0,0,0,0,0,0,0,0.957675,-0.098075,0.183,-0.805625,-0.74125,-0.2625,0.022,-0.923616666666667,-0.232783333333333,0.0643,0.88425,0.144875,-0.244,394.8356,1,1,1,0
24-May-2018 14:09:24,52.1,0.95425,0.104483333333333,-0.0580833333333333,0.575,0.209857142857143,0.296285714285714,375.42,0,0,0,0,0,0,0,0.95625,-0.101766666666667,0.191533333333333,-0.431666666666667,-0.596666666666667,-0.17,0.022,-0.925075,-0.233975,0.06475,0.461571428571429,0.601142857142857,-0.113285714285714,395.71625,1,1,1,0
24-May-2018 14:09:24,52.1,0.95425,0.104483333333333,-0.0580833333333333,0.575,0.209857142857143,0.296285714285714,375.42,0,0,0,0,0,0,0,0.95625,-0.101766666666667,0.191533333333333,-0.431666666666667,-0.596666666666667,-0.17,0.022,-0.925075,-0.233975,0.06475,0.461571428571429,0.601142857142857,-0.113285714285714,395.71625,1,1,1,0
24-May-2018 14:09:24,52.1,0.95425,0.104483333333333,-0.0580833333333333,0.575,0.209857142857143,0.296285714285714,375.42,0,0,0,0,0,0,0,0.95625,-0.101766666666667,0.191533333333333,-0.431666666666667,-0.596666666666667,-0.17,0.022,-0.925075,-0.233975,0.06475,0.461571428571429,0.601142857142857,-0.113285714285714,395.71625,1,1,1,0
24-May-2018 14:09:24,52.1,0.95425,0.104483333333333,-0.0580833333333333,0.575,0.209857142857143,0.296285714285714,375.42,0,0,0,0,0,0,0,0.95625,-0.101766666666667,0.191533333333333,-0.431666666666667,-0.596666666666667,-0.17,0.022,-0.925075,-0.233975,0.06475,0.461571428571429,0.601142857142857,-0.113285714285714,395.71625,1,1,1,0
24-May-2018 14:09:25,52,0.954811111111111,0.104577777777778,-0.0500333333333333,0.244125,0.290125,0.50325,375.42,0,0,0,0,0,0,0,0.955957142857143,-0.1028,0.195985714285714,0.166142857142857,-1.09428571428571,-0.0251428571428572,0.022,-0.922933333333333,-0.23185,0.0677833333333333,0.226285714285714,0.479142857142857,-0.244,396.925666666667,1,1,1,0
24-May-2018 14:09:25,52,0.954811111111111,0.104577777777778,-0.0500333333333333,0.244125,0.290125,0.50325,375.42,0,0,0,0,0,0,0,0.955957142857143,-0.1028,0.195985714285714,0.166142857142857,-1.09428571428571,-0.0251428571428572,0.022,-0.922933333333333,-0.23185,0.0677833333333333,0.226285714285714,0.479142857142857,-0.244,396.925666666667,1,1,1,0
24-May-2018 14:09:25,52,0.954811111111111,0.104577777777778,-0.0500333333333333,0.244125,0.290125,0.50325,375.42,0,0,0,0,0,0,0,0.955957142857143,-0.1028,0.195985714285714,0.166142857142857,-1.09428571428571,-0.0251428571428572,0.022,-0.922933333333333,-0.23185,0.0677833333333333,0.226285714285714,0.479142857142857,-0.244,396.925666666667,1,1,1,0
24-May-2018 14:09:25,52,0.954811111111111,0.104577777777778,-0.0500333333333333,0.244125,0.290125,0.50325,375.42,0,0,0,0,0,0,0,0.955957142857143,-0.1028,0.195985714285714,0.166142857142857,-1.09428571428571,-0.0251428571428572,0.022,-0.922933333333333,-0.23185,0.0677833333333333,0.226285714285714,0.479142857142857,-0.244,396.925666666667,1,1,1,0
24-May-2018 14:09:26,52.2,0.955,0.10395,-0.0559875,0.799666666666667,-0.192555555555556,0.271111111111111,375.42,0,0,0,0,0,0,0,0.955485714285714,-0.102585714285714,0.199571428571429,0.509,-1.631,-0.628,0.022,-0.92205,-0.23735,0.0671,0.477666666666667,0.640333333333333,-0.305,396.527333333333,1,1,1,0
24-May-2018 14:09:26,52.2,0.955,0.10395,-0.0559875,0.799666666666667,-0.192555555555556,0.271111111111111,375.42,0,0,0,0,0,0,0,0.955485714285714,-0.102585714285714,0.199571428571429,0.509,-1.631,-0.628,0.022,-0.92205,-0.23735,0.0671,0.477666666666667,0.640333333333333,-0.305,396.527333333333,1,1,1,0
24-May-2018 14:09:26,52.2,0.955,0.10395,-0.0559875,0.799666666666667,-0.192555555555556,0.271111111111111,0,0,0,0,0,0,0,0,0.955485714285714,-0.102585714285714,0.199571428571429,0.509,-1.631,-0.628,0.022,-0.92205,-0.23735,0.0671,0.477666666666667,0.640333333333333,-0.305,396.527333333333,1,1,1,0
24-May-2018 14:09:26,52.2,0.955,0.10395,-0.0559875,0.799666666666667,-0.192555555555556,0.271111111111111,0,0,0,0,0,0,0,0,0.955485714285714,-0.102585714285714,0.199571428571429,0.509,-1.631,-0.628,0.022,-0.92205,-0.23735,0.0671,0.477666666666667,0.640333333333333,-0.305,396.527333333333,1,1,1,0
24-May-2018 14:09:27,52.3333333333333,0.954633333333333,0.10465,-0.0542,0.487833333333333,0.599833333333333,0.467666666666667,374.503,0,0,0,0,0,0,0,0.959183333333333,-0.0912833333333333,0.176683333333333,0.453,-2.204,-0.822,0.022,-0.922042857142857,-0.2339,0.0628285714285714,0.752166666666667,0.772666666666667,-0.0406666666666666,395.795,1,1,1,0
24-May-2018 14:09:27,52.3333333333333,0.954633333333333,0.10465,-0.0542,0.487833333333333,0.599833333333333,0.467666666666667,374.503,0,0,0,0,0,0,0,0.959183333333333,-0.0912833333333333,0.176683333333333,0.453,-2.204,-0.822,0.022,-0.922042857142857,-0.2339,0.0628285714285714,0.752166666666667,0.772666666666667,-0.0406666666666666,395.795,1,1,1,0
24-May-2018 14:09:27,52.3333333333333,0.954633333333333,0.10465,-0.0542,0.487833333333333,0.599833333333333,0.467666666666667,374.503,0,0,0,0,0,0,0,0.959183333333333,-0.0912833333333333,0.176683333333333,0.453,-2.204,-0.822,0.022,-0.922042857142857,-0.2339,0.0628285714285714,0.752166666666667,0.772666666666667,-0.0406666666666666,395.795,1,1,1,0
24-May-2018 14:09:27,52.3333333333333,0.954633333333333,0.10465,-0.0542,0.487833333333333,0.599833333333333,0.467666666666667,374.503,0,0,0,0,0,0,0,0.959183333333333,-0.0912833333333333,0.176683333333333,0.453,-2.204,-0.822,0.022,-0.922042857142857,-0.2339,0.0628285714285714,0.752166666666667,0.772666666666667,-0.0406666666666666,395.795,1,1,1,0
24-May-2018 14:09:28,52.1,0.95476,0.10336,-0.04692,0.5008,0.3172,0.427,379.246,0,0,0,0,0,0,0,0.960614285714286,-0.0806714285714286,0.162471428571429,-0.2904,-0.52,0.002,0.022,-0.922842857142857,-0.231985714285714,0.0594857142857143,0.035,0.435571428571429,0.165428571428571,394.288666666667,1,1,1,0
24-May-2018 14:09:28,52.1,0.95476,0.10336,-0.04692,0.5008,0.3172,0.427,379.246,0,0,0,0,0,0,0,0.960614285714286,-0.0806714285714286,0.162471428571429,-0.2904,-0.52,0.002,0.022,-0.922842857142857,-0.231985714285714,0.0594857142857143,0.035,0.435571428571429,0.165428571428571,394.288666666667,1,1,1,0
24-May-2018 14:09:28,52.1,0.95476,0.10336,-0.04692,0.5008,0.3172,0.427,379.246,0,0,0,0,0,0,0,0.960614285714286,-0.0806714285714286,0.162471428571429,-0.2904,-0.52,0.002,0.022,-0.922842857142857,-0.231985714285714,0.0594857142857143,0.035,0.435571428571429,0.165428571428571,394.288666666667,1,1,1,0
24-May-2018 14:09:28,52.1,0.95476,0.10336,-0.04692,0.5008,0.3172,0.427,379.246,0,0,0,0,0,0,0,0.960614285714286,-0.0806714285714286,0.162471428571429,-0.2904,-0.52,0.002,0.022,-0.922842857142857,-0.231985714285714,0.0594857142857143,0.035,0.435571428571429,0.165428571428571,394.288666666667,1,1,1,0
24-May-2018 14:09:29,52,0.954633333333333,0.103066666666667,-0.0509666666666667,1.1098,-0.336,0.4026,380.613,0,0,0,0,0,0,0,0.958883333333333,-0.0935,0.17405,-1.18616666666667,-0.321666666666667,-0.312833333333333,0.022,-0.9222,-0.23015,0.060425,-1.05175,-0.503,-0.83825,396.918,1,1,1,0
24-May-2018 14:09:29,52,0.954633333333333,0.103066666666667,-0.0509666666666667,1.1098,-0.336,0.4026,380.613,0,0,0,0,0,0,0,0.958883333333333,-0.0935,0.17405,-1.18616666666667,-0.321666666666667,-0.312833333333333,0.022,-0.9222,-0.23015,0.060425,-1.05175,-0.503,-0.83825,396.918,1,1,1,0
24-May-2018 14:09:29,52,0.954633333333333,0.103066666666667,-0.0509666666666667,1.1098,-0.336,0.4026,380.613,0,0,0,0,0,0,0,0.958883333333333,-0.0935,0.17405,-1.18616666666667,-0.321666666666667,-0.312833333333333,0.022,-0.9222,-0.23015,0.060425,-1.05175,-0.503,-0.83825,396.918,1,1,1,0
24-May-2018 14:09:29,52,0.954633333333333,0.103066666666667,-0.0509666666666667,1.1098,-0.336,0.4026,380.613,0,0,0,0,0,0,0,0.958883333333333,-0.0935,0.17405,-1.18616666666667,-0.321666666666667,-0.312833333333333,0.022,-0.9222,-0.23015,0.060425,-1.05175,-0.503,-0.83825,396.918,1,1,1,0
24-May-2018 14:09:30,31.6,0.95402,0.102,-0.05688,1.15871428571429,-0.258571428571429,0.0874285714285714,376.9754,0,0,0,0,0,0,0,0.9594,-0.089325,0.170225,0.132833333333333,-1.86666666666667,-0.0688333333333333,0.022,-0.9241,-0.239966666666667,0.0761166666666667,-1.6005,-2.82025,-0.442,396.105,1,1,1,0
24-May-2018 14:09:30,31.6,0.95402,0.102,-0.05688,1.15871428571429,-0.258571428571429,0.0874285714285714,376.9754,0,0,0,0,0,0,0,0.9594,-0.089325,0.170225,0.132833333333333,-1.86666666666667,-0.0688333333333333,0.022,-0.9241,-0.239966666666667,0.0761166666666667,-1.6005,-2.82025,-0.442,396.105,1,1,1,0
24-May-2018 14:09:30,31.6,0.95402,0.102,-0.05688,1.15871428571429,-0.258571428571429,0.0874285714285714,376.9754,0,0,0,0,0,0,0,0.9594,-0.089325,0.170225,0.132833333333333,-1.86666666666667,-0.0688333333333333,0.022,-0.9241,-0.239966666666667,0.0761166666666667,-1.6005,-2.82025,-0.442,396.105,1,1,1,0
24-May-2018 14:09:30,31.6,0.95402,0.102,-0.05688,1.15871428571429,-0.258571428571429,0.0874285714285714,376.9754,0,0,0,0,0,0,0,0.9594,-0.089325,0.170225,0.132833333333333,-1.86666666666667,-0.0688333333333333,0.022,-0.9241,-0.239966666666667,0.0761166666666667,-1.6005,-2.82025,-0.442,396.105,1,1,1,0
24-May-2018 14:09:31,18,0.954428571428571,0.106942857142857,-0.0633428571428571,1.9146,-0.1074,-0.1084,370.349,0,0,0,0,0,0,0,0.959025,-0.09825,0.155825,-0.2664,0.6718,0.123,0.022,-0.9179,-0.2279,0.10182,0.7682,1.2196,0.683,414.2782,1,1,1,0
24-May-2018 14:09:31,18,0.954428571428571,0.106942857142857,-0.0633428571428571,1.9146,-0.1074,-0.1084,370.349,0,0,0,0,0,0,0,0.959025,-0.09825,0.155825,-0.2664,0.6718,0.123,0.022,-0.9179,-0.2279,0.10182,0.7682,1.2196,0.683,414.2782,1,1,1,0
24-May-2018 14:09:31,18,0.954428571428571,0.106942857142857,-0.0633428571428571,1.9146,-0.1074,-0.1084,370.349,0,0,0,0,0,0,0,0.959025,-0.09825,0.155825,-0.2664,0.6718,0.123,0.022,-0.9179,-0.2279,0.10182,0.7682,1.2196,0.683,414.2782,1,1,1,0
24-May-2018 14:09:31,18,0.954428571428571,0.106942857142857,-0.0633428571428571,1.9146,-0.1074,-0.1084,370.349,0,0,0,0,0,0,0,0.959025,-0.09825,0.155825,-0.2664,0.6718,0.123,0.022,-0.9179,-0.2279,0.10182,0.7682,1.2196,0.683,414.2782,1,1,1,0
24-May-2018 14:09:32,18,0.954283333333333,0.101633333333333,-0.04925,2.51033333333333,1.87,0.8335,372.952333333333,0,0,0,0,0,0,0,0.9564125,-0.0942375,0.2049,2.369,0.296833333333333,-0.4045,0.022,-0.919857142857143,-0.221985714285714,0.0833857142857143,-0.278571428571429,2.72657142857143,0.244,416.751666666667,1,1,1,0
24-May-2018 14:09:32,18,0.954283333333333,0.101633333333333,-0.04925,2.51033333333333,1.87,0.8335,372.952333333333,0,0,0,0,0,0,0,0.9564125,-0.0942375,0.2049,2.369,0.296833333333333,-0.4045,0.022,-0.919857142857143,-0.221985714285714,0.0833857142857143,-0.278571428571429,2.72657142857143,0.244,416.751666666667,1,1,1,0
24-May-2018 14:09:32,18,0.954283333333333,0.101633333333333,-0.04925,2.51033333333333,1.87,0.8335,372.952333333333,0,0,0,0,0,0,0,0.9564125,-0.0942375,0.2049,2.369,0.296833333333333,-0.4045,0.022,-0.919857142857143,-0.221985714285714,0.0833857142857143,-0.278571428571429,2.72657142857143,0.244,416.751666666667,1,1,1,0
24-May-2018 14:09:32,18,0.954283333333333,0.101633333333333,-0.04925,2.51033333333333,1.87,0.8335,372.952333333333,0,0,0,0,0,0,0,0.9564125,-0.0942375,0.2049,2.369,0.296833333333333,-0.4045,0.022,-0.919857142857143,-0.221985714285714,0.0833857142857143,-0.278571428571429,2.72657142857143,0.244,416.751666666667,1,1,1,0
24-May-2018 14:09:33,804.777777777778,0.9573625,0.09385,-0.0270875,0.636571428571429,0.880142857142857,0.705857142857143,378.942,0,0,0,0,0,0,0,0.95965,-0.08405,0.1812,-2.61666666666667,-2.29166666666667,-0.453166666666667,0.022,-0.92794,-0.22276,0.07842,1.84657142857143,0.427,0.217857142857143,399.5122,1,1,1,0
24-May-2018 14:09:33,804.777777777778,0.9573625,0.09385,-0.0270875,0.636571428571429,0.880142857142857,0.705857142857143,378.942,0,0,0,0,0,0,0,0.95965,-0.08405,0.1812,-2.61666666666667,-2.29166666666667,-0.453166666666667,0.022,-0.92794,-0.22276,0.07842,1.84657142857143,0.427,0.217857142857143,399.5122,1,1,1,0
24-May-2018 14:09:33,804.777777777778,0.9573625,0.09385,-0.0270875,0.636571428571429,0.880142857142857,0.705857142857143,378.942,0,0,0,0,0,0,0,0.95965,-0.08405,0.1812,-2.61666666666667,-2.29166666666667,-0.453166666666667,0.022,-0.92794,-0.22276,0.07842,1.84657142857143,0.427,0.217857142857143,399.5122,1,1,1,0
24-May-2018 14:09:33,804.777777777778,0.9573625,0.09385,-0.0270875,0.636571428571429,0.880142857142857,0.705857142857143,378.942,0,0,0,0,0,0,0,0.95965,-0.08405,0.1812,-2.61666666666667,-2.29166666666667,-0.453166666666667,0.022,-0.92794,-0.22276,0.07842,1.84657142857143,0.427,0.217857142857143,399.5122,1,1,1,0
24-May-2018 14:09:34,671.4,0.95775,0.0929333333333334,-0.0292666666666667,2.21314285714286,-0.356428571428571,0.201428571428571,383.795666666667,0,0,0,0,0,0,0,0.958928571428571,-0.0917571428571429,0.172057142857143,-0.1312,-1.13,0.0016,0.022,-0.922366666666667,-0.208466666666667,0.0847666666666667,-0.899375,1.08225,0.556375,409.424,1,1,1,0
24-May-2018 14:09:34,671.4,0.95775,0.0929333333333334,-0.0292666666666667,2.21314285714286,-0.356428571428571,0.201428571428571,383.795666666667,0,0,0,0,0,0,0,0.958928571428571,-0.0917571428571429,0.172057142857143,-0.1312,-1.13,0.0016,0.022,-0.922366666666667,-0.208466666666667,0.0847666666666667,-0.899375,1.08225,0.556375,409.424,1,1,1,0
24-May-2018 14:09:34,671.4,0.95775,0.0929333333333334,-0.0292666666666667,2.21314285714286,-0.356428571428571,0.201428571428571,383.795666666667,0,0,0,0,0,0,0,0.958928571428571,-0.0917571428571429,0.172057142857143,-0.1312,-1.13,0.0016,0.022,-0.922366666666667,-0.208466666666667,0.0847666666666667,-0.899375,1.08225,0.556375,409.424,1,1,1,0
24-May-2018 14:09:34,671.4,0.95775,0.0929333333333334,-0.0292666666666667,2.21314285714286,-0.356428571428571,0.201428571428571,383.795666666667,0,0,0,0,0,0,0,0.958928571428571,-0.0917571428571429,0.172057142857143,-0.1312,-1.13,0.0016,0.022,-0.922366666666667,-0.208466666666667,0.0847666666666667,-0.899375,1.08225,0.556375,409.424,1,1,1,0
24-May-2018 14:09:35,601.5,0.956442857142857,0.092,-0.0398428571428571,0.542,-0.23375,0.366875,380.671,0,0,0,0,0,0,0,0.9581,-0.0948,0.176666666666667,-0.64375,-0.72,-0.49875,0.022,-0.92292,-0.23466,0.07122,-4.22766666666667,-1.27033333333333,-0.183166666666667,399.2495,1,1,1,0
24-May-2018 14:09:35,601.5,0.956442857142857,0.092,-0.0398428571428571,0.542,-0.23375,0.366875,380.671,0,0,0,0,0,0,0,0.9581,-0.0948,0.176666666666667,-0.64375,-0.72,-0.49875,0.022,-0.92292,-0.23466,0.07122,-4.22766666666667,-1.27033333333333,-0.183166666666667,399.2495,1,1,1,0
24-May-2018 14:09:35,601.5,0.956442857142857,0.092,-0.0398428571428571,0.542,-0.23375,0.366875,380.671,0,0,0,0,0,0,0,0.9581,-0.0948,0.176666666666667,-0.64375,-0.72,-0.49875,0.022,-0.92292,-0.23466,0.07122,-4.22766666666667,-1.27033333333333,-0.183166666666667,399.2495,1,1,1,0
24-May-2018 14:09:35,601.5,0.956442857142857,0.092,-0.0398428571428571,0.542,-0.23375,0.366875,380.671,0,0,0,0,0,0,0,0.9581,-0.0948,0.176666666666667,-0.64375,-0.72,-0.49875,0.022,-0.92292,-0.23466,0.07122,-4.22766666666667,-1.27033333333333,-0.183166666666667,399.2495,1,1,1,0
24-May-2018 14:09:36,556,0.95689,0.08961,-0.03527,0.499,0.305142857142857,0.244714285714286,380.671,0,0,0,0,0,0,0,0.958166666666667,-0.08785,0.17805,-1.255,-0.78875,-0.4825,0.022,-0.924342857142857,-0.224285714285714,0.0760714285714286,1.935875,1.547375,0.76975,402.818333333333,1,1,1,0
24-May-2018 14:09:36,556,0.95689,0.08961,-0.03527,0.499,0.305142857142857,0.244714285714286,380.671,0,0,0,0,0,0,0,0.958166666666667,-0.08785,0.17805,-1.255,-0.78875,-0.4825,0.022,-0.924342857142857,-0.224285714285714,0.0760714285714286,1.935875,1.547375,0.76975,402.818333333333,1,1,1,0
24-May-2018 14:09:36,556,0.95689,0.08961,-0.03527,0.499,0.305142857142857,0.244714285714286,380.671,0,0,0,0,0,0,0,0.958166666666667,-0.08785,0.17805,-1.255,-0.78875,-0.4825,0.022,-0.924342857142857,-0.224285714285714,0.0760714285714286,1.935875,1.547375,0.76975,402.818333333333,1,1,1,0
24-May-2018 14:09:36,556,0.95689,0.08961,-0.03527,0.499,0.305142857142857,0.244714285714286,0,0,0,0,0,0,0,0,0.958166666666667,-0.08785,0.17805,-1.255,-0.78875,-0.4825,0.022,-0.924342857142857,-0.224285714285714,0.0760714285714286,1.935875,1.547375,0.76975,402.818333333333,1,1,1,0
24-May-2018 14:09:37,382.1,0.955585714285714,0.0856428571428571,-0.0494,2.48688888888889,-1.21555555555556,0.969,366.899,0,0,0,0,0,0,0,0.959142857142857,-0.0857571428571429,0.176028571428571,-0.597857142857143,-0.944285714285714,-0.222857142857143,0.022,-0.926157142857143,-0.221871428571429,0.0736714285714286,0.679285714285714,0.635857142857143,-0.575,399.59525,1,1,1,0
24-May-2018 14:09:37,382.1,0.955585714285714,0.0856428571428571,-0.0494,2.48688888888889,-1.21555555555556,0.969,366.899,0,0,0,0,0,0,0,0.959142857142857,-0.0857571428571429,0.176028571428571,-0.597857142857143,-0.944285714285714,-0.222857142857143,0.022,-0.926157142857143,-0.221871428571429,0.0736714285714286,0.679285714285714,0.635857142857143,-0.575,399.59525,1,1,1,0
24-May-2018 14:09:37,382.1,0.955585714285714,0.0856428571428571,-0.0494,2.48688888888889,-1.21555555555556,0.969,366.899,0,0,0,0,0,0,0,0.959142857142857,-0.0857571428571429,0.176028571428571,-0.597857142857143,-0.944285714285714,-0.222857142857143,0.022,-0.926157142857143,-0.221871428571429,0.0736714285714286,0.679285714285714,0.635857142857143,-0.575,399.59525,1,1,1,0
24-May-2018 14:09:37,382.1,0.955585714285714,0.0856428571428571,-0.0494,2.48688888888889,-1.21555555555556,0.969,366.899,0,0,0,0,0,0,0,0.959142857142857,-0.0857571428571429,0.176028571428571,-0.597857142857143,-0.944285714285714,-0.222857142857143,0.022,-0.926157142857143,-0.221871428571429,0.0736714285714286,0.679285714285714,0.635857142857143,-0.575,399.59525,1,1,1,0
24-May-2018 14:09:38,311,0.955433333333333,0.0773666666666667,-0.0668666666666667,-0.1192,0.7684,0.2082,355.446666666667,0,0,0,0,0,0,0,0.95966,-0.08678,0.1796,-0.252166666666667,-0.88,-0.23,0.022,-0.924433333333333,-0.227433333333333,0.06785,0.548714285714286,0.435714285714286,-0.313714285714286,398.888666666667,1,1,1,1
24-May-2018 14:09:38,311,0.955433333333333,0.0773666666666667,-0.0668666666666667,-0.1192,0.7684,0.2082,355.446666666667,0,0,0,0,0,0,0,0.95966,-0.08678,0.1796,-0.252166666666667,-0.88,-0.23,0.022,-0.924433333333333,-0.227433333333333,0.06785,0.548714285714286,0.435714285714286,-0.313714285714286,398.888666666667,1,1,1,1
24-May-2018 14:09:38,311,0.955433333333333,0.0773666666666667,-0.0668666666666667,-0.1192,0.7684,0.2082,355.446666666667,0,0,0,0,0,0,0,0.95966,-0.08678,0.1796,-0.252166666666667,-0.88,-0.23,0.022,-0.924433333333333,-0.227433333333333,0.06785,0.548714285714286,0.435714285714286,-0.313714285714286,398.888666666667,1,1,1,1
24-May-2018 14:09:38,311,0.955433333333333,0.0773666666666667,-0.0668666666666667,-0.1192,0.7684,0.2082,355.446666666667,0,0,0,0,0,0,0,0.95966,-0.08678,0.1796,-0.252166666666667,-0.88,-0.23,0.022,-0.924433333333333,-0.227433333333333,0.06785,0.548714285714286,0.435714285714286,-0.313714285714286,398.888666666667,1,1,1,1
24-May-2018 14:09:39,314.444444444444,0.95566,0.08214,-0.0458,-0.0476,0.3556,0.1596,363.992125,0,0,0,0,0,0,0,0.959171428571429,-0.0867428571428571,0.182528571428571,-0.388428571428571,-0.615714285714286,-0.188428571428571,0.022,-0.9246,-0.226566666666667,0.0707666666666667,0.671,0.061,-0.366,399.16325,1,1,1,1
24-May-2018 14:09:39,314.444444444444,0.95566,0.08214,-0.0458,-0.0476,0.3556,0.1596,363.992125,0,0,0,0,0,0,0,0.959171428571429,-0.0867428571428571,0.182528571428571,-0.388428571428571,-0.615714285714286,-0.188428571428571,0.022,-0.9246,-0.226566666666667,0.0707666666666667,0.671,0.061,-0.366,399.16325,1,1,1,1
24-May-2018 14:09:39,314.444444444444,0.95566,0.08214,-0.0458,-0.0476,0.3556,0.1596,363.992125,0,0,0,0,0,0,0,0.959171428571429,-0.0867428571428571,0.182528571428571,-0.388428571428571,-0.615714285714286,-0.188428571428571,0.022,-0.9246,-0.226566666666667,0.0707666666666667,0.671,0.061,-0.366,399.16325,1,1,1,1
24-May-2018 14:09:39,314.444444444444,0.95566,0.08214,-0.0458,-0.0476,0.3556,0.1596,363.992125,0,0,0,0,0,0,0,0.959171428571429,-0.0867428571428571,0.182528571428571,-0.388428571428571,-0.615714285714286,-0.188428571428571,0.022,-0.9246,-0.226566666666667,0.0707666666666667,0.671,0.061,-0.366,399.16325,1,1,1,1
24-May-2018 14:09:40,226.4,0.956485714285714,0.0852428571428572,-0.0544714285714286,0.598,-0.326,0.3294,366.112,0,0,0,0,0,0,0,0.958583333333333,-0.0866833333333333,0.186516666666667,-1.70285714285714,-1.07571428571429,-0.447142857142857,0.022,-0.923157142857143,-0.228385714285714,0.0740285714285714,1.32428571428571,0.679714285714286,-0.148142857142857,400.4125,1,1,1,1
24-May-2018 14:09:40,226.4,0.956485714285714,0.0852428571428572,-0.0544714285714286,0.598,-0.326,0.3294,366.112,0,0,0,0,0,0,0,0.958583333333333,-0.0866833333333333,0.186516666666667,-1.70285714285714,-1.07571428571429,-0.447142857142857,0.022,-0.923157142857143,-0.228385714285714,0.0740285714285714,1.32428571428571,0.679714285714286,-0.148142857142857,400.4125,1,1,1,1
24-May-2018 14:09:40,226.4,0.956485714285714,0.0852428571428572,-0.0544714285714286,0.598,-0.326,0.3294,366.112,0,0,0,0,0,0,0,0.958583333333333,-0.0866833333333333,0.186516666666667,-1.70285714285714,-1.07571428571429,-0.447142857142857,0.022,-0.923157142857143,-0.228385714285714,0.0740285714285714,1.32428571428571,0.679714285714286,-0.148142857142857,400.4125,1,1,1,1
24-May-2018 14:09:40,226.4,0.956485714285714,0.0852428571428572,-0.0544714285714286,0.598,-0.326,0.3294,366.112,0,0,0,0,0,0,0,0.958583333333333,-0.0866833333333333,0.186516666666667,-1.70285714285714,-1.07571428571429,-0.447142857142857,0.022,-0.923157142857143,-0.228385714285714,0.0740285714285714,1.32428571428571,0.679714285714286,-0.148142857142857,400.4125,1,1,1,1
24-May-2018 14:09:41,217,0.955866666666667,0.0811333333333333,-0.0527833333333333,0.640375,0.28975,0.5185,364.676333333333,0,0,0,0,0,0,0,0.9594,-0.0832,0.164216666666667,0.6115,-1.815,0.0721666666666667,0.022,-0.92306,-0.21984,0.07602,1.30083333333333,0.5795,0.101666666666667,402.7615,1,1,1,1
24-May-2018 14:09:41,217,0.955866666666667,0.0811333333333333,-0.0527833333333333,0.640375,0.28975,0.5185,364.676333333333,0,0,0,0,0,0,0,0.9594,-0.0832,0.164216666666667,0.6115,-1.815,0.0721666666666667,0.022,-0.92306,-0.21984,0.07602,1.30083333333333,0.5795,0.101666666666667,402.7615,1,1,1,1
24-May-2018 14:09:41,217,0.955866666666667,0.0811333333333333,-0.0527833333333333,0.640375,0.28975,0.5185,364.676333333333,0,0,0,0,0,0,0,0.9594,-0.0832,0.164216666666667,0.6115,-1.815,0.0721666666666667,0.022,-0.92306,-0.21984,0.07602,1.30083333333333,0.5795,0.101666666666667,402.7615,1,1,1,1
24-May-2018 14:09:41,217,0.955866666666667,0.0811333333333333,-0.0527833333333333,0.640375,0.28975,0.5185,364.676333333333,0,0,0,0,0,0,0,0.9594,-0.0832,0.164216666666667,0.6115,-1.815,0.0721666666666667,0.022,-0.92306,-0.21984,0.07602,1.30083333333333,0.5795,0.101666666666667,402.7615,1,1,1,1
24-May-2018 14:09:42,260.222222222222,0.956533333333333,0.0801,-0.0505666666666667,0.2074,0.2806,0.2806,367.048,0,0,0,0,0,0,0,0.960057142857143,-0.0828,0.168185714285714,-0.181857142857143,-0.198714285714286,-0.285857142857143,0.022,-0.9242,-0.2217875,0.0751625,0.0474444444444444,0.413444444444444,-0.284666666666667,401.593,1,1,1,1
24-May-2018 14:09:42,260.222222222222,0.956533333333333,0.0801,-0.0505666666666667,0.2074,0.2806,0.2806,367.048,0,0,0,0,0,0,0,0.960057142857143,-0.0828,0.168185714285714,-0.181857142857143,-0.198714285714286,-0.285857142857143,0.022,-0.9242,-0.2217875,0.0751625,0.0474444444444444,0.413444444444444,-0.284666666666667,401.593,1,1,1,1
24-May-2018 14:09:42,260.222222222222,0.956533333333333,0.0801,-0.0505666666666667,0.2074,0.2806,0.2806,367.048,0,0,0,0,0,0,0,0.960057142857143,-0.0828,0.168185714285714,-0.181857142857143,-0.198714285714286,-0.285857142857143,0.022,-0.9242,-0.2217875,0.0751625,0.0474444444444444,0.413444444444444,-0.284666666666667,401.593,1,1,1,1
24-May-2018 14:09:42,260.222222222222,0.956533333333333,0.0801,-0.0505666666666667,0.2074,0.2806,0.2806,367.048,0,0,0,0,0,0,0,0.960057142857143,-0.0828,0.168185714285714,-0.181857142857143,-0.198714285714286,-0.285857142857143,0.022,-0.9242,-0.2217875,0.0751625,0.0474444444444444,0.413444444444444,-0.284666666666667,401.593,1,1,1,1
24-May-2018 14:09:43,314.7,0.956,0.0822625,-0.0483625,0.601285714285714,0.0964285714285714,0.357285714285714,367.931,0,0,0,0,0,0,0,0.960266666666667,-0.0822333333333333,0.182233333333333,1.274625,-0.886125,-0.61375,0.022,-0.925116666666667,-0.222233333333333,0.0751333333333333,0.427,0.122,-0.264333333333333,400.5378,1,0,1,1
24-May-2018 14:09:43,314.7,0.956,0.0822625,-0.0483625,0.601285714285714,0.0964285714285714,0.357285714285714,367.931,0,0,0,0,0,0,0,0.960266666666667,-0.0822333333333333,0.182233333333333,1.274625,-0.886125,-0.61375,0.022,-0.925116666666667,-0.222233333333333,0.0751333333333333,0.427,0.122,-0.264333333333333,400.5378,1,0,1,1
24-May-2018 14:09:43,314.7,0.956,0.0822625,-0.0483625,0.601285714285714,0.0964285714285714,0.357285714285714,367.931,0,0,0,0,0,0,0,0.960266666666667,-0.0822333333333333,0.182233333333333,1.274625,-0.886125,-0.61375,0.022,-0.925116666666667,-0.222233333333333,0.0751333333333333,0.427,0.122,-0.264333333333333,400.5378,1,0,1,1
24-May-2018 14:09:43,314.7,0.956,0.0822625,-0.0483625,0.601285714285714,0.0964285714285714,0.357285714285714,367.931,0,0,0,0,0,0,0,0.960266666666667,-0.0822333333333333,0.182233333333333,1.274625,-0.886125,-0.61375,0.022,-0.925116666666667,-0.222233333333333,0.0751333333333333,0.427,0.122,-0.264333333333333,400.5378,1,0,1,1
24-May-2018 14:09:44,322.888888888889,0.95646,0.08164,-0.0514,0.627428571428571,0.00114285714285714,0.418285714285714,366.879666666667,0,0,0,0,0,0,0,0.959857142857143,-0.0761142857142857,0.174614285714286,7.07333333333333,-2.22333333333333,-0.1705,0.022,-0.92435,-0.2416,0.080175,-0.0711666666666669,0.0710000000000001,-1.54483333333333,400.5378,1,0,1,1
24-May-2018 14:09:44,322.888888888889,0.95646,0.08164,-0.0514,0.627428571428571,0.00114285714285714,0.418285714285714,366.879666666667,0,0,0,0,0,0,0,0.959857142857143,-0.0761142857142857,0.174614285714286,7.07333333333333,-2.22333333333333,-0.1705,0.022,-0.92435,-0.2416,0.080175,-0.0711666666666669,0.0710000000000001,-1.54483333333333,400.5378,1,0,1,1
24-May-2018 14:09:44,322.888888888889,0.95646,0.08164,-0.0514,0.627428571428571,0.00114285714285714,0.418285714285714,366.879666666667,0,0,0,0,0,0,0,0.959857142857143,-0.0761142857142857,0.174614285714286,7.07333333333333,-2.22333333333333,-0.1705,0.022,-0.92435,-0.2416,0.080175,-0.0711666666666669,0.0710000000000001,-1.54483333333333,400.5378,1,0,1,1
24-May-2018 14:09:44,322.888888888889,0.95646,0.08164,-0.0514,0.627428571428571,0.00114285714285714,0.418285714285714,366.879666666667,0,0,0,0,0,0,0,0.959857142857143,-0.0761142857142857,0.174614285714286,7.07333333333333,-2.22333333333333,-0.1705,0.022,-0.92435,-0.2416,0.080175,-0.0711666666666669,0.0710000000000001,-1.54483333333333,0,1,0,1,1
24-May-2018 14:09:45,84.3,0.956228571428571,0.0811,-0.0560714285714286,0.89975,0.108,0.404125,366.1095,0,0,0,0,0,0,0,0.9656,-0.0851,0.1668,-1.58,-2.37,-0.0885,0.022,-0.9256,-0.2178,0.08242,4.4268,-0.3658,2.3782,407.071,1,1,1,1
24-May-2018 14:09:45,84.3,0.956228571428571,0.0811,-0.0560714285714286,0.89975,0.108,0.404125,366.1095,0,0,0,0,0,0,0,0.9656,-0.0851,0.1668,-1.58,-2.37,-0.0885,0.022,-0.9256,-0.2178,0.08242,4.4268,-0.3658,2.3782,407.071,1,1,1,1
24-May-2018 14:09:45,84.3,0.956228571428571,0.0811,-0.0560714285714286,0.89975,0.108,0.404125,366.1095,0,0,0,0,0,0,0,0.9656,-0.0851,0.1668,-1.58,-2.37,-0.0885,0.022,-0.9256,-0.2178,0.08242,4.4268,-0.3658,2.3782,407.071,1,1,1,1
24-May-2018 14:09:45,84.3,0.956228571428571,0.0811,-0.0560714285714286,0.89975,0.108,0.404125,366.1095,0,0,0,0,0,0,0,0.9656,-0.0851,0.1668,-1.58,-2.37,-0.0885,0.022,-0.9256,-0.2178,0.08242,4.4268,-0.3658,2.3782,407.071,1,1,1,1
24-May-2018 14:09:46,-39.2222222222222,0.956757142857143,0.0868285714285714,-0.0567571428571429,-1.6296,0.5126,-0.618,366.1095,0,0,0,0,0,0,0,0.9656,-0.0851,0.1668,-1.58,-2.37,-0.0885,0.022,-0.9266,-0.2001,0.1129,-3.252,-1.80866666666667,-0.548666666666667,412.032,1,1,1,1
24-May-2018 14:09:46,-39.2222222222222,0.956757142857143,0.0868285714285714,-0.0567571428571429,-1.6296,0.5126,-0.618,366.1095,0,0,0,0,0,0,0,0.9656,-0.0851,0.1668,-1.58,-2.37,-0.0885,0.022,-0.9266,-0.2001,0.1129,-3.252,-1.80866666666667,-0.548666666666667,412.032,1,1,1,1
24-May-2018 14:09:46,-39.2222222222222,0.956757142857143,0.0868285714285714,-0.0567571428571429,-1.6296,0.5126,-0.618,366.1095,0,0,0,0,0,0,0,0.9656,-0.0851,0.1668,-1.58,-2.37,-0.0885,0.022,-0.9266,-0.2001,0.1129,-3.252,-1.80866666666667,-0.548666666666667,412.032,1,1,1,1
24-May-2018 14:09:46,-39.2222222222222,0.956757142857143,0.0868285714285714,-0.0567571428571429,-1.6296,0.5126,-0.618,366.1095,0,0,0,0,0,0,0,0,0,0,-1.58,-2.37,-0.0885,0.022,-0.9266,-0.2001,0.1129,-3.252,-1.80866666666667,-0.548666666666667,412.032,1,1,1,1
24-May-2018 14:09:47,11.5555555555556,0.95615,0.0903,-0.04685,-1.52,0.8235,0.4575,366.1095,0,0,0,0,0,0,0,0.96,-0.0897,0.1772,-1.58,-2.37,-0.0885,0.022,-0.925,-0.19268,0.11868,3.4045,-0.701,0.304833333333333,429.096,1,1,1,1
24-May-2018 14:09:47,11.5555555555556,0.95615,0.0903,-0.04685,-1.52,0.8235,0.4575,366.1095,0,0,0,0,0,0,0,0.96,-0.0897,0.1772,-1.58,-2.37,-0.0885,0.022,-0.925,-0.19268,0.11868,3.4045,-0.701,0.304833333333333,429.096,1,1,1,1
24-May-2018 14:09:47,11.5555555555556,0.95615,0.0903,-0.04685,-1.52,0.8235,0.4575,366.1095,0,0,0,0,0,0,0,0.96,-0.0897,0.1772,-1.58,-2.37,-0.0885,0.022,-0.925,-0.19268,0.11868,3.4045,-0.701,0.304833333333333,429.096,1,1,1,1
24-May-2018 14:09:47,11.5555555555556,0.95615,0.0903,-0.04685,-1.52,0.8235,0.4575,366.1095,0,0,0,0,0,0,0,0.96,-0.0897,0.1772,-1.58,-2.37,-0.0885,0.022,-0.925,-0.19268,0.11868,3.4045,-0.701,0.304833333333333,429.096,1,1,1,1
24-May-2018 14:09:48,35.4,0.95482,0.09306,-0.04096,1.2926,0.1098,0.549,366.1095,0,0,0,0,0,0,0,0.96,-0.0897,0.1772,-1.58,-2.37,-0.0885,0.022,-0.9299,-0.1809,0.131675,-0.325166666666667,1.433,0.315166666666667,439.036,1,1,1,1
24-May-2018 14:09:48,35.4,0.95482,0.09306,-0.04096,1.2926,0.1098,0.549,366.1095,0,0,0,0,0,0,0,0.96,-0.0897,0.1772,-1.58,-2.37,-0.0885,0.022,-0.9299,-0.1809,0.131675,-0.325166666666667,1.433,0.315166666666667,439.036,1,1,1,1
24-May-2018 14:09:48,35.4,0.95482,0.09306,-0.04096,1.2926,0.1098,0.549,366.1095,0,0,0,0,0,0,0,0.96,-0.0897,0.1772,-1.58,-2.37,-0.0885,0.022,-0.9299,-0.1809,0.131675,-0.325166666666667,1.433,0.315166666666667,439.036,1,1,1,1
24-May-2018 14:09:48,35.4,0.95482,0.09306,-0.04096,1.2926,0.1098,0.549,366.1095,0,0,0,0,0,0,0,0,0,0,-1.58,-2.37,-0.0885,0.022,-0.9299,-0.1809,0.131675,-0.325166666666667,1.433,0.315166666666667,439.036,1,1,1,1
24-May-2018 14:09:49,1.77777777777778,0.95586,0.09208,-0.04488,2.04266666666667,-0.303166666666667,0.4375,367.973,0,0,0,0,0,0,0,0.962185714285714,-0.0921428571428572,0.132428571428571,-10.5,-3.67142857142857,0.262,0.022,-0.9192,-0.1771,0.0868,-3.552,4.07025,2.7135,429.81,1,1,1,1
24-May-2018 14:09:49,1.77777777777778,0.95586,0.09208,-0.04488,2.04266666666667,-0.303166666666667,0.4375,367.973,0,0,0,0,0,0,0,0.962185714285714,-0.0921428571428572,0.132428571428571,-10.5,-3.67142857142857,0.262,0.022,-0.9192,-0.1771,0.0868,-3.552,4.07025,2.7135,429.81,1,1,1,1
24-May-2018 14:09:49,1.77777777777778,0.95586,0.09208,-0.04488,2.04266666666667,-0.303166666666667,0.4375,367.973,0,0,0,0,0,0,0,0.962185714285714,-0.0921428571428572,0.132428571428571,-10.5,-3.67142857142857,0.262,0.022,-0.9192,-0.1771,0.0868,-3.552,4.07025,2.7135,429.81,1,1,1,1
24-May-2018 14:09:49,1.77777777777778,0.95586,0.09208,-0.04488,2.04266666666667,-0.303166666666667,0.4375,367.973,0,0,0,0,0,0,0,0.962185714285714,-0.0921428571428572,0.132428571428571,-10.5,-3.67142857142857,0.262,0.022,-0.9192,-0.1771,0.0868,-3.552,4.07025,2.7135,429.81,1,1,1,1
24-May-2018 14:09:50,-38.8,0.95606,0.08586,-0.062,1.4402,-0.1196,0.6222,361.70875,0,0,0,0,0,0,0,0.962033333333333,-0.0953833333333333,0.0968666666666667,-6.5205,1.60633333333333,0.6505,0.022,-0.940175,-0.191675,0.0798125,-16.600625,-0.66325,-0.335375,417.613,1,1,1,1
24-May-2018 14:09:50,-38.8,0.95606,0.08586,-0.062,1.4402,-0.1196,0.6222,361.70875,0,0,0,0,0,0,0,0.962033333333333,-0.0953833333333333,0.0968666666666667,-6.5205,1.60633333333333,0.6505,0.022,-0.940175,-0.191675,0.0798125,-16.600625,-0.66325,-0.335375,417.613,1,1,1,1
24-May-2018 14:09:50,-38.8,0.95606,0.08586,-0.062,1.4402,-0.1196,0.6222,361.70875,0,0,0,0,0,0,0,0.962033333333333,-0.0953833333333333,0.0968666666666667,-6.5205,1.60633333333333,0.6505,0.022,-0.940175,-0.191675,0.0798125,-16.600625,-0.66325,-0.335375,417.613,1,1,1,1
24-May-2018 14:09:50,-38.8,0.95606,0.08586,-0.062,1.4402,-0.1196,0.6222,361.70875,0,0,0,0,0,0,0,0.962033333333333,-0.0953833333333333,0.0968666666666667,-6.5205,1.60633333333333,0.6505,0.022,-0.940175,-0.191675,0.0798125,-16.600625,-0.66325,-0.335375,417.613,1,1,1,1
24-May-2018 14:09:51,-70,0.95776,0.07526,-0.05606,4.7816,0.538,0.4636,352.173142857143,0,0,0,0,0,0,0,0.961342857142857,-0.0999142857142857,0.1389,1.96316666666667,0.123833333333333,-0.98,0.022,-0.929166666666667,-0.216216666666667,0.05755,19.2276666666667,3.943,0.0711666666666667,404.2995,1,1,1,1
24-May-2018 14:09:51,-70,0.95776,0.07526,-0.05606,4.7816,0.538,0.4636,352.173142857143,0,0,0,0,0,0,0,0.961342857142857,-0.0999142857142857,0.1389,1.96316666666667,0.123833333333333,-0.98,0.022,-0.929166666666667,-0.216216666666667,0.05755,19.2276666666667,3.943,0.0711666666666667,404.2995,1,1,1,1
24-May-2018 14:09:51,-70,0.95776,0.07526,-0.05606,4.7816,0.538,0.4636,352.173142857143,0,0,0,0,0,0,0,0.961342857142857,-0.0999142857142857,0.1389,1.96316666666667,0.123833333333333,-0.98,0.022,-0.929166666666667,-0.216216666666667,0.05755,19.2276666666667,3.943,0.0711666666666667,404.2995,1,1,1,1
24-May-2018 14:09:51,-70,0.95776,0.07526,-0.05606,4.7816,0.538,0.4636,352.173142857143,0,0,0,0,0,0,0,0.961342857142857,-0.0999142857142857,0.1389,1.96316666666667,0.123833333333333,-0.98,0.022,-0.929166666666667,-0.216216666666667,0.05755,19.2276666666667,3.943,0.0711666666666667,404.2995,1,1,1,1
24-May-2018 14:09:52,-52.75,0.957233333333333,0.0727833333333333,-0.06245,2.98783333333333,0.703166666666667,-0.148666666666667,347.4166,0,0,0,0,0,0,0,0.960157142857143,-0.0947714285714286,0.1526,4.5,-1.336,-0.193,0.022,-0.930542857142857,-0.198542857142857,0.0563142857142857,15.518375,-0.083875,-0.72425,396.011,1,1,1,1
24-May-2018 14:09:52,-52.75,0.957233333333333,0.0727833333333333,-0.06245,2.98783333333333,0.703166666666667,-0.148666666666667,347.4166,0,0,0,0,0,0,0,0.960157142857143,-0.0947714285714286,0.1526,4.5,-1.336,-0.193,0.022,-0.930542857142857,-0.198542857142857,0.0563142857142857,15.518375,-0.083875,-0.72425,396.011,1,1,1,1
24-May-2018 14:09:52,-52.75,0.957233333333333,0.0727833333333333,-0.06245,2.98783333333333,0.703166666666667,-0.148666666666667,347.4166,0,0,0,0,0,0,0,0.960157142857143,-0.0947714285714286,0.1526,4.5,-1.336,-0.193,0.022,-0.930542857142857,-0.198542857142857,0.0563142857142857,15.518375,-0.083875,-0.72425,396.011,1,1,1,1
24-May-2018 14:09:52,-52.75,0.957233333333333,0.0727833333333333,-0.06245,2.98783333333333,0.703166666666667,-0.148666666666667,347.4166,0,0,0,0,0,0,0,0.960157142857143,-0.0947714285714286,0.1526,4.5,-1.336,-0.193,0.022,-0.930542857142857,-0.198542857142857,0.0563142857142857,15.518375,-0.083875,-0.72425,396.011,1,1,1,1
24-May-2018 14:09:53,-12.1,0.9555,0.0922166666666667,-0.0407333333333333,-17.7183333333333,0.8245,0.388,356.249,0,0,0,0,0,0,0,0.960442857142857,-0.0958285714285714,0.143571428571429,-0.0245714285714285,-1.25142857142857,-0.232,0.022,-0.92612,-0.19648,0.0895,1.626,1.58533333333333,-1.72766666666667,420.3324,1,1,1,1
24-May-2018 14:09:53,-12.1,0.9555,0.0922166666666667,-0.0407333333333333,-17.7183333333333,0.8245,0.388,356.249,0,0,0,0,0,0,0,0.960442857142857,-0.0958285714285714,0.143571428571429,-0.0245714285714285,-1.25142857142857,-0.232,0.022,-0.92612,-0.19648,0.0895,1.626,1.58533333333333,-1.72766666666667,420.3324,1,1,1,1
24-May-2018 14:09:53,-12.1,0.9555,0.0922166666666667,-0.0407333333333333,-17.7183333333333,0.8245,0.388,356.249,0,0,0,0,0,0,0,0.960442857142857,-0.0958285714285714,0.143571428571429,-0.0245714285714285,-1.25142857142857,-0.232,0.022,-0.92612,-0.19648,0.0895,1.626,1.58533333333333,-1.72766666666667,420.3324,1,1,1,1
24-May-2018 14:09:53,-12.1,0.9555,0.0922166666666667,-0.0407333333333333,-17.7183333333333,0.8245,0.388,356.249,0,0,0,0,0,0,0,0.960442857142857,-0.0958285714285714,0.143571428571429,-0.0245714285714285,-1.25142857142857,-0.232,0.022,-0.92612,-0.19648,0.0895,1.626,1.58533333333333,-1.72766666666667,420.3324,1,1,1,1
24-May-2018 14:09:54,-128.1,0.9552625,0.106,-0.0160875,-3.75616666666667,-1.15283333333333,-0.445166666666667,410.165333333333,0,0,0,0,0,0,0,0.960866666666667,-0.0921,0.140666666666667,1.5732,-0.0722,0.0636,0.022,-0.931157142857143,-0.190571428571429,0.0836857142857143,-8.452875,-0.434375,0.64775,412.131,1,1,1,1
24-May-2018 14:09:54,-128.1,0.9552625,0.106,-0.0160875,-3.75616666666667,-1.15283333333333,-0.445166666666667,410.165333333333,0,0,0,0,0,0,0,0.960866666666667,-0.0921,0.140666666666667,1.5732,-0.0722,0.0636,0.022,-0.931157142857143,-0.190571428571429,0.0836857142857143,-8.452875,-0.434375,0.64775,412.131,1,1,1,1
24-May-2018 14:09:54,-128.1,0.9552625,0.106,-0.0160875,-3.75616666666667,-1.15283333333333,-0.445166666666667,410.165333333333,0,0,0,0,0,0,0,0.960866666666667,-0.0921,0.140666666666667,1.5732,-0.0722,0.0636,0.022,-0.931157142857143,-0.190571428571429,0.0836857142857143,-8.452875,-0.434375,0.64775,412.131,1,1,1,1
24-May-2018 14:09:54,-128.1,0.9552625,0.106,-0.0160875,-3.75616666666667,-1.15283333333333,-0.445166666666667,410.165333333333,0,0,0,0,0,0,0,0.960866666666667,-0.0921,0.140666666666667,1.5732,-0.0722,0.0636,0.022,-0.931157142857143,-0.190571428571429,0.0836857142857143,-8.452875,-0.434375,0.64775,412.131,1,1,1,1
24-May-2018 14:09:55,-101.7,0.956333333333333,0.108416666666667,-0.0384666666666667,1.37028571428571,0.0984285714285714,0.445857142857143,413.83875,0,0,0,0,0,0,0,0.958916666666667,-0.0968,0.164416666666667,-2.35671428571429,-1.28585714285714,-0.398571428571429,0.022,-0.92804,-0.19324,0.08154,1.555,0.142333333333333,-0.619833333333333,411.176,1,1,1,1
24-May-2018 14:09:55,-101.7,0.956333333333333,0.108416666666667,-0.0384666666666667,1.37028571428571,0.0984285714285714,0.445857142857143,413.83875,0,0,0,0,0,0,0,0.958916666666667,-0.0968,0.164416666666667,-2.35671428571429,-1.28585714285714,-0.398571428571429,0.022,-0.92804,-0.19324,0.08154,1.555,0.142333333333333,-0.619833333333333,411.176,1,1,1,1
24-May-2018 14:09:55,-101.7,0.956333333333333,0.108416666666667,-0.0384666666666667,1.37028571428571,0.0984285714285714,0.445857142857143,413.83875,0,0,0,0,0,0,0,0.958916666666667,-0.0968,0.164416666666667,-2.35671428571429,-1.28585714285714,-0.398571428571429,0.022,-0.92804,-0.19324,0.08154,1.555,0.142333333333333,-0.619833333333333,411.176,1,1,1,1
24-May-2018 14:09:55,-101.7,0.956333333333333,0.108416666666667,-0.0384666666666667,1.37028571428571,0.0984285714285714,0.445857142857143,413.83875,0,0,0,0,0,0,0,0.958916666666667,-0.0968,0.164416666666667,-2.35671428571429,-1.28585714285714,-0.398571428571429,0.022,-0.92804,-0.19324,0.08154,1.555,0.142333333333333,-0.619833333333333,411.176,1,1,1,1
24-May-2018 14:09:56,-31.2,0.956816666666667,0.1059,-0.0348166666666667,9.497,0.7806,0.3904,404.833333333333,0,0,0,0,0,0,0,0.9596,-0.0966333333333333,0.149166666666667,1.0762,-1.264,-0.119,0.022,-0.92764,-0.19866,0.0833,-0.752,0.274166666666667,-0.4675,414.293,1,1,1,1
24-May-2018 14:09:56,-31.2,0.956816666666667,0.1059,-0.0348166666666667,9.497,0.7806,0.3904,404.833333333333,0,0,0,0,0,0,0,0.9596,-0.0966333333333333,0.149166666666667,1.0762,-1.264,-0.119,0.022,-0.92764,-0.19866,0.0833,-0.752,0.274166666666667,-0.4675,414.293,1,1,1,1
24-May-2018 14:09:56,-31.2,0.956816666666667,0.1059,-0.0348166666666667,9.497,0.7806,0.3904,404.833333333333,0,0,0,0,0,0,0,0.9596,-0.0966333333333333,0.149166666666667,1.0762,-1.264,-0.119,0.022,-0.92764,-0.19866,0.0833,-0.752,0.274166666666667,-0.4675,414.293,1,1,1,1
24-May-2018 14:09:56,-31.2,0.956816666666667,0.1059,-0.0348166666666667,9.497,0.7806,0.3904,404.833333333333,0,0,0,0,0,0,0,0.9596,-0.0966333333333333,0.149166666666667,1.0762,-1.264,-0.119,0.022,-0.92764,-0.19866,0.0833,-0.752,0.274166666666667,-0.4675,414.293,1,1,1,1
24-May-2018 14:09:57,62.5714285714286,0.956385714285714,0.101628571428571,-0.0336857142857143,2.005125,0.145875,0.343125,394.288,0,0,0,0,0,0,0,0.960333333333333,-0.100866666666667,0.1526,-0.0501666666666666,-0.354333333333333,-0.0995,0.022,-0.93045,-0.200866666666667,0.0844333333333333,0.566142857142857,0.792571428571429,0.174285714285714,408.079,1,1,1,1
24-May-2018 14:09:57,62.5714285714286,0.956385714285714,0.101628571428571,-0.0336857142857143,2.005125,0.145875,0.343125,394.288,0,0,0,0,0,0,0,0.960333333333333,-0.100866666666667,0.1526,-0.0501666666666666,-0.354333333333333,-0.0995,0.022,-0.93045,-0.200866666666667,0.0844333333333333,0.566142857142857,0.792571428571429,0.174285714285714,408.079,1,1,1,1
24-May-2018 14:09:57,62.5714285714286,0.956385714285714,0.101628571428571,-0.0336857142857143,2.005125,0.145875,0.343125,394.288,0,0,0,0,0,0,0,0.960333333333333,-0.100866666666667,0.1526,-0.0501666666666666,-0.354333333333333,-0.0995,0.022,-0.93045,-0.200866666666667,0.0844333333333333,0.566142857142857,0.792571428571429,0.174285714285714,408.079,1,1,1,1
24-May-2018 14:09:57,62.5714285714286,0.956385714285714,0.101628571428571,-0.0336857142857143,2.005125,0.145875,0.343125,394.288,0,0,0,0,0,0,0,0.960333333333333,-0.100866666666667,0.1526,-0.0501666666666666,-0.354333333333333,-0.0995,0.022,-0.93045,-0.200866666666667,0.0844333333333333,0.566142857142857,0.792571428571429,0.174285714285714,408.079,1,1,1,1
24-May-2018 14:09:58,74.1111111111111,0.956411111111111,0.0960666666666666,-0.0314777777777778,3.37477777777778,-0.0585555555555556,0.298555555555556,394.288,0,0,0,0,0,0,0,0.960183333333333,-0.0969,0.154183333333333,-1.38214285714286,-1.15271428571429,-0.518571428571429,0.022,-0.929042857142857,-0.1988,0.0802285714285714,-1.0595,0.16775,-0.26675,403.29,1,1,1,1
24-May-2018 14:09:58,74.1111111111111,0.956411111111111,0.0960666666666666,-0.0314777777777778,3.37477777777778,-0.0585555555555556,0.298555555555556,394.288,0,0,0,0,0,0,0,0.960183333333333,-0.0969,0.154183333333333,-1.38214285714286,-1.15271428571429,-0.518571428571429,0.022,-0.929042857142857,-0.1988,0.0802285714285714,-1.0595,0.16775,-0.26675,403.29,1,1,1,1
24-May-2018 14:09:58,74.1111111111111,0.956411111111111,0.0960666666666666,-0.0314777777777778,3.37477777777778,-0.0585555555555556,0.298555555555556,394.288,0,0,0,0,0,0,0,0.960183333333333,-0.0969,0.154183333333333,-1.38214285714286,-1.15271428571429,-0.518571428571429,0.022,-0.929042857142857,-0.1988,0.0802285714285714,-1.0595,0.16775,-0.26675,403.29,1,1,1,1
24-May-2018 14:09:58,74.1111111111111,0.956411111111111,0.0960666666666666,-0.0314777777777778,3.37477777777778,-0.0585555555555556,0.298555555555556,394.288,0,0,0,0,0,0,0,0.960183333333333,-0.0969,0.154183333333333,-1.38214285714286,-1.15271428571429,-0.518571428571429,0.022,-0.929042857142857,-0.1988,0.0802285714285714,-1.0595,0.16775,-0.26675,403.29,1,1,1,1
24-May-2018 14:09:59,60,0.9549625,0.1041125,-0.0566625,-1.657375,-0.34725,0.062875,394.288,0,0,0,0,0,0,0,0.960571428571429,-0.0979,0.1537,-1.456,-0.4612,-0.0116,0.022,-0.928966666666667,-0.2052,0.0769166666666667,0.618428571428572,0.113,0.374714285714286,405.681,1,0,1,1
24-May-2018 14:09:59,60,0.9549625,0.1041125,-0.0566625,-1.657375,-0.34725,0.062875,394.288,0,0,0,0,0,0,0,0.960571428571429,-0.0979,0.1537,-1.456,-0.4612,-0.0116,0.022,-0.928966666666667,-0.2052,0.0769166666666667,0.618428571428572,0.113,0.374714285714286,405.681,1,0,1,1
24-May-2018 14:09:59,60,0.9549625,0.1041125,-0.0566625,-1.657375,-0.34725,0.062875,0,0,0,0,0,0,0,0,0.960571428571429,-0.0979,0.1537,-1.456,-0.4612,-0.0116,0.022,-0.928966666666667,-0.2052,0.0769166666666667,0.618428571428572,0.113,0.374714285714286,405.681,1,0,1,1
24-May-2018 14:09:59,60,0.9549625,0.1041125,-0.0566625,-1.657375,-0.34725,0.062875,0,0,0,0,0,0,0,0,0.960571428571429,-0.0979,0.1537,-1.456,-0.4612,-0.0116,0.022,-0.928966666666667,-0.2052,0.0769166666666667,0.618428571428572,0.113,0.374714285714286,405.681,1,0,1,1
24-May-2018 14:10:00,73.6666666666667,0.95614,0.10162,-0.0372,1.9532,1.0852,0.7684,383.218,0,0,0,0,0,0,0,0.9594,-0.0958333333333333,0.1622,-0.49925,0.709375,-0.46,0.022,-0.930075,-0.1944,0.0812125,0.6505,0.884166666666667,0.264333333333333,407.18,1,0,1,1
24-May-2018 14:10:00,73.6666666666667,0.95614,0.10162,-0.0372,1.9532,1.0852,0.7684,383.218,0,0,0,0,0,0,0,0.9594,-0.0958333333333333,0.1622,-0.49925,0.709375,-0.46,0.022,-0.930075,-0.1944,0.0812125,0.6505,0.884166666666667,0.264333333333333,407.18,1,0,1,1
24-May-2018 14:10:00,73.6666666666667,0.95614,0.10162,-0.0372,1.9532,1.0852,0.7684,383.218,0,0,0,0,0,0,0,0.9594,-0.0958333333333333,0.1622,-0.49925,0.709375,-0.46,0.022,-0.930075,-0.1944,0.0812125,0.6505,0.884166666666667,0.264333333333333,407.18,1,0,1,1
24-May-2018 14:10:00,73.6666666666667,0.95614,0.10162,-0.0372,1.9532,1.0852,0.7684,383.218,0,0,0,0,0,0,0,0.9594,-0.0958333333333333,0.1622,-0.49925,0.709375,-0.46,0.022,-0.930075,-0.1944,0.0812125,0.6505,0.884166666666667,0.264333333333333,407.18,1,0,1,1
