TIME,HELMET_RAW,BELT_ACC_X,BELT_ACC_Y,BELT_ACC_Z,BELT_ANG_X,BELT_ANG_Y,BELT_ANG_Z,BELT_LUMINOSITY,NECK_ACC_X,NECK_ACC_Y,NECK_ACC_Z,NECK_ANG_X,NECK_ANG_Y,NECK_ANG_Z,NECK_LUMINOSITY,PCKT_ACC_X,PCKT_ACC_Y,PCKT_ACC_Z,PCKT_ANG_X,PCKT_ANG_Y,PCKT_ANG_Z,PCKT_LUMINOSITY,WRST_ACC_X,WRST_ACC_Y,WRST_ACC_Z,WRST_ANG_X,WRST_ANG_Y,WRST_ANG_Z,WRST_LUMINOSITY,IR_1,IR_2,IR_3,IR_4
24-May-2018 14:07:58,51.1,0.952828571428571,0.117557142857143,-0.0239428571428571,27.1106666666667,1.74255555555556,-1.23622222222222,337.815,0,0,0,0,0,0,0,0.949828571428571,-0.125414285714286,0.160257142857143,-11.7985714285714,4.38328571428571,-1.01571428571429,0.0293333333333333,-0.902685714285714,-0.277471428571429,0.0862,0.8535,-2.21533333333333,-0.132166666666667,455.23,1,1,1,0
24-May-2018 14:07:58,51.1,0.952828571428571,0.117557142857143,-0.0239428571428571,27.1106666666667,1.74255555555556,-1.23622222222222,337.815,0,0,0,0,0,0,0,0.949828571428571,-0.125414285714286,0.160257142857143,-11.7985714285714,4.38328571428571,-1.01571428571429,0.0293333333333333,-0.902685714285714,-0.277471428571429,0.0862,0.8535,-2.21533333333333,-0.132166666666667,455.23,1,1,1,0
24-May-2018 14:07:58,51.1,0.952828571428571,0.117557142857143,-0.0239428571428571,27.1106666666667,1.74255555555556,-1.23622222222222,337.815,0,0,0,0,0,0,0,0.949828571428571,-0.125414285714286,0.160257142857143,-11.7985714285714,4.38328571428571,-1.01571428571429,0.0293333333333333,-0.902685714285714,-0.277471428571429,0.0862,0.8535,-2.21533333333333,-0.132166666666667,455.23,1,1,1,0
24-May-2018 14:07:58,51.1,0.952828571428571,0.117557142857143,-0.0239428571428571,27.1106666666667,1.74255555555556,-1.23622222222222,337.815,0,0,0,0,0,0,0,0.949828571428571,-0.125414285714286,0.160257142857143,-11.7985714285714,4.38328571428571,-1.01571428571429,0.0293333333333333,-0.902685714285714,-0.277471428571429,0.0862,0.8535,-2.21533333333333,-0.132166666666667,455.23,1,1,1,0
24-May-2018 14:07:59,51.3,0.95646,0.10484,-0.03506,-2.51825,0.79375,1.09775,385.7544,0,0,0,0,0,0,0,0.958428571428571,-0.0921,0.174957142857143,0.421142857142857,-0.944285714285714,-0.702714285714286,0.0293333333333333,-0.90975,-0.26015,0.09,-1.57516666666667,-0.152333333333333,0.304833333333333,414.261,1,1,1,0
24-May-2018 14:07:59,51.3,0.95646,0.10484,-0.03506,-2.51825,0.79375,1.09775,385.7544,0,0,0,0,0,0,0,0.958428571428571,-0.0921,0.174957142857143,0.421142857142857,-0.944285714285714,-0.702714285714286,0.0293333333333333,-0.90975,-0.26015,0.09,-1.57516666666667,-0.152333333333333,0.304833333333333,414.261,1,1,1,0
24-May-2018 14:07:59,51.3,0.95646,0.10484,-0.03506,-2.51825,0.79375,1.09775,385.7544,0,0,0,0,0,0,0,0.958428571428571,-0.0921,0.174957142857143,0.421142857142857,-0.944285714285714,-0.702714285714286,0.0293333333333333,-0.90975,-0.26015,0.09,-1.57516666666667,-0.152333333333333,0.304833333333333,414.261,1,1,1,0
24-May-2018 14:07:59,51.3,0.95646,0.10484,-0.03506,-2.51825,0.79375,1.09775,385.7544,0,0,0,0,0,0,0,0.958428571428571,-0.0921,0.174957142857143,0.421142857142857,-0.944285714285714,-0.702714285714286,0.0293333333333333,-0.90975,-0.26015,0.09,-1.57516666666667,-0.152333333333333,0.304833333333333,414.261,1,1,1,0
24-May-2018 14:08:00,51.4444444444444,0.956566666666667,0.0923333333333333,-0.0271333333333333,1.26066666666667,0.102666666666667,0.996,393.1368,0,0,0,0,0,0,0,0.95904,-0.08668,0.1832,0.3775,0.0325,0.235333333333333,0.0293333333333333,-0.91232,-0.26824,0.0889,-2.30683333333333,0.366,-0.599666666666667,410.258,1,1,1,0
24-May-2018 14:08:00,51.4444444444444,0.956566666666667,0.0923333333333333,-0.0271333333333333,1.26066666666667,0.102666666666667,0.996,393.1368,0,0,0,0,0,0,0,0.95904,-0.08668,0.1832,0.3775,0.0325,0.235333333333333,0.0293333333333333,-0.91232,-0.26824,0.0889,-2.30683333333333,0.366,-0.599666666666667,410.258,1,1,1,0
24-May-2018 14:08:00,51.4444444444444,0.956566666666667,0.0923333333333333,-0.0271333333333333,1.26066666666667,0.102666666666667,0.996,393.1368,0,0,0,0,0,0,0,0.95904,-0.08668,0.1832,0.3775,0.0325,0.235333333333333,0.0293333333333333,-0.91232,-0.26824,0.0889,-2.30683333333333,0.366,-0.599666666666667,410.258,1,1,1,0
24-May-2018 14:08:00,51.4444444444444,0.956566666666667,0.0923333333333333,-0.0271333333333333,1.26066666666667,0.102666666666667,0.996,393.1368,0,0,0,0,0,0,0,0.95904,-0.08668,0.1832,0.3775,0.0325,0.235333333333333,0.0293333333333333,-0.91232,-0.26824,0.0889,-2.30683333333333,0.366,-0.599666666666667,410.258,1,1,1,0
24-May-2018 14:08:01,51.1,0.957166666666667,0.0947666666666667,-0.031,3.02833333333333,-0.222666666666667,0.203333333333333,389.534,0,0,0,0,0,0,0,0.9561,-0.09595,0.19995,-0.76,-0.91,-0.3625,0.0293333333333333,-0.909,-0.279233333333333,0.0871333333333333,4.54275,-0.16775,-0.381,405.426,1,1,1,0
24-May-2018 14:08:01,51.1,0.957166666666667,0.0947666666666667,-0.031,3.02833333333333,-0.222666666666667,0.203333333333333,389.534,0,0,0,0,0,0,0,0.9561,-0.09595,0.19995,-0.76,-0.91,-0.3625,0.0293333333333333,-0.909,-0.279233333333333,0.0871333333333333,4.54275,-0.16775,-0.381,405.426,1,1,1,0
24-May-2018 14:08:01,51.1,0.957166666666667,0.0947666666666667,-0.031,3.02833333333333,-0.222666666666667,0.203333333333333,389.534,0,0,0,0,0,0,0,0.9561,-0.09595,0.19995,-0.76,-0.91,-0.3625,0.0293333333333333,-0.909,-0.279233333333333,0.0871333333333333,4.54275,-0.16775,-0.381,405.426,1,1,1,0
24-May-2018 14:08:01,51.1,0.957166666666667,0.0947666666666667,-0.031,3.02833333333333,-0.222666666666667,0.203333333333333,389.534,0,0,0,0,0,0,0,0.9561,-0.09595,0.19995,-0.76,-0.91,-0.3625,0.0293333333333333,-0.909,-0.279233333333333,0.0871333333333333,4.54275,-0.16775,-0.381,405.426,1,1,1,0
24-May-2018 14:08:02,51.25,0.9576,0.088,-0.0247857142857143,0.6464,1.4634,0.6724,387.676666666667,0,0,0,0,0,0,0,0.958475,-0.089025,0.177075,-0.821166666666667,-3.72666666666667,-0.555,0.0293333333333333,-0.909966666666667,-0.271883333333333,0.0791666666666667,5.59228571428571,3.02257142857143,-0.0522857142857143,401.0794,1,1,1,0
24-May-2018 14:08:02,51.25,0.9576,0.088,-0.0247857142857143,0.6464,1.4634,0.6724,387.676666666667,0,0,0,0,0,0,0,0.958475,-0.089025,0.177075,-0.821166666666667,-3.72666666666667,-0.555,0.0293333333333333,-0.909966666666667,-0.271883333333333,0.0791666666666667,5.59228571428571,3.02257142857143,-0.0522857142857143,401.0794,1,1,1,0
24-May-2018 14:08:02,51.25,0.9576,0.088,-0.0247857142857143,0.6464,1.4634,0.6724,387.676666666667,0,0,0,0,0,0,0,0.958475,-0.089025,0.177075,-0.821166666666667,-3.72666666666667,-0.555,0.0293333333333333,-0.909966666666667,-0.271883333333333,0.0791666666666667,5.59228571428571,3.02257142857143,-0.0522857142857143,401.0794,1,1,1,0
24-May-2018 14:08:02,51.25,0.9576,0.088,-0.0247857142857143,0.6464,1.4634,0.6724,387.676666666667,0,0,0,0,0,0,0,0.958475,-0.089025,0.177075,-0.821166666666667,-3.72666666666667,-0.555,0.0293333333333333,-0.909966666666667,-0.271883333333333,0.0791666666666667,5.59228571428571,3.02257142857143,-0.0522857142857143,401.0794,1,1,1,0
24-May-2018 14:08:03,51,0.959185714285714,0.0937285714285714,0.0029,-3.34325,-0.333625,-0.486625,403.454333333333,0,0,0,0,0,0,0,0.9611,-0.0943571428571428,0.127842857142857,-1.538625,-0.42375,0.77075,0.0293333333333333,-0.9163,-0.259242857142857,0.0801714285714286,-2.98785714285714,1.03657142857143,0.679428571428571,402.868,1,1,1,0
24-May-2018 14:08:03,51,0.959185714285714,0.0937285714285714,0.0029,-3.34325,-0.333625,-0.486625,403.454333333333,0,0,0,0,0,0,0,0.9611,-0.0943571428571428,0.127842857142857,-1.538625,-0.42375,0.77075,0.0293333333333333,-0.9163,-0.259242857142857,0.0801714285714286,-2.98785714285714,1.03657142857143,0.679428571428571,402.868,1,1,1,0
24-May-2018 14:08:03,51,0.959185714285714,0.0937285714285714,0.0029,-3.34325,-0.333625,-0.486625,403.454333333333,0,0,0,0,0,0,0,0.9611,-0.0943571428571428,0.127842857142857,-1.538625,-0.42375,0.77075,0.0293333333333333,-0.9163,-0.259242857142857,0.0801714285714286,-2.98785714285714,1.03657142857143,0.679428571428571,402.868,1,1,1,0
24-May-2018 14:08:03,51,0.959185714285714,0.0937285714285714,0.0029,-3.34325,-0.333625,-0.486625,403.454333333333,0,0,0,0,0,0,0,0.9611,-0.0943571428571428,0.127842857142857,-1.538625,-0.42375,0.77075,0.0293333333333333,-0.9163,-0.259242857142857,0.0801714285714286,-2.98785714285714,1.03657142857143,0.679428571428571,402.868,1,1,1,0
24-May-2018 14:08:04,51,0.9582,0.10462,1.20758,-1.142,0.83825,1.40225,410.092,0,0,0,0,0,0,0,0.96042,-0.09352,0.15962,1.01766666666667,-0.383166666666667,-0.3325,0.0293333333333333,-0.91628,-0.25748,0.06966,1.11,-0.049,0.1706,397.34675,1,1,1,0
24-May-2018 14:08:04,51,0.9582,0.10462,1.20758,-1.142,0.83825,1.40225,410.092,0,0,0,0,0,0,0,0.96042,-0.09352,0.15962,1.01766666666667,-0.383166666666667,-0.3325,0.0293333333333333,-0.91628,-0.25748,0.06966,1.11,-0.049,0.1706,397.34675,1,1,1,0
24-May-2018 14:08:04,51,0.9582,0.10462,1.20758,-1.142,0.83825,1.40225,410.092,0,0,0,0,0,0,0,0.96042,-0.09352,0.15962,1.01766666666667,-0.383166666666667,-0.3325,0.0293333333333333,-0.91628,-0.25748,0.06966,1.11,-0.049,0.1706,397.34675,1,1,1,0
24-May-2018 14:08:04,51,0.9582,0.10462,1.20758,-1.142,0.83825,1.40225,410.092,0,0,0,0,0,0,0,0.96042,-0.09352,0.15962,1.01766666666667,-0.383166666666667,-0.3325,0.0293333333333333,-0.91628,-0.25748,0.06966,1.11,-0.049,0.1706,397.34675,1,1,1,0
24-May-2018 14:08:05,51.2,0.957225,0.0964,-0.01865,4.878,-0.2908,0.245,409.809,0,0,0,0,0,0,0,0.959577777777778,-0.0983222222222222,0.157933333333333,-0.252666666666667,-1.08333333333333,0.0716666666666667,0.0293333333333333,-0.91634,-0.25742,0.0728,1.272875,0.206,0.17525,394.192,1,1,1,0
24-May-2018 14:08:05,51.2,0.957225,0.0964,-0.01865,4.878,-0.2908,0.245,409.809,0,0,0,0,0,0,0,0.959577777777778,-0.0983222222222222,0.157933333333333,-0.252666666666667,-1.08333333333333,0.0716666666666667,0.0293333333333333,-0.91634,-0.25742,0.0728,1.272875,0.206,0.17525,394.192,1,1,1,0
24-May-2018 14:08:05,51.2,0.957225,0.0964,-0.01865,4.878,-0.2908,0.245,409.809,0,0,0,0,0,0,0,0.959577777777778,-0.0983222222222222,0.157933333333333,-0.252666666666667,-1.08333333333333,0.0716666666666667,0.0293333333333333,-0.91634,-0.25742,0.0728,1.272875,0.206,0.17525,394.192,1,1,1,0
24-May-2018 14:08:05,51.2,0.957225,0.0964,-0.01865,4.878,-0.2908,0.245,409.809,0,0,0,0,0,0,0,0.959577777777778,-0.0983222222222222,0.157933333333333,-0.252666666666667,-1.08333333333333,0.0716666666666667,0.0293333333333333,-0.91634,-0.25742,0.0728,1.272875,0.206,0.17525,394.192,1,1,1,0
24-May-2018 14:08:06,51,0.95826,0.09816,-0.02446,0.2235,0.175666666666667,0.274666666666667,398.706666666667,0,0,0,0,0,0,0,0.95962,-0.09916,0.15592,0.1246,-0.618,-0.288,0.0293333333333333,-0.917214285714286,-0.258514285714286,0.0741571428571428,0.6505,0.5895,-0.223666666666667,396.0195,1,1,1,0
24-May-2018 14:08:06,51,0.95826,0.09816,-0.02446,0.2235,0.175666666666667,0.274666666666667,398.706666666667,0,0,0,0,0,0,0,0.95962,-0.09916,0.15592,0.1246,-0.618,-0.288,0.0293333333333333,-0.917214285714286,-0.258514285714286,0.0741571428571428,0.6505,0.5895,-0.223666666666667,396.0195,1,1,1,0
24-May-2018 14:08:06,51,0.95826,0.09816,-0.02446,0.2235,0.175666666666667,0.274666666666667,398.706666666667,0,0,0,0,0,0,0,0.95962,-0.09916,0.15592,0.1246,-0.618,-0.288,0.0293333333333333,-0.917214285714286,-0.258514285714286,0.0741571428571428,0.6505,0.5895,-0.223666666666667,396.0195,1,1,1,0
24-May-2018 14:08:06,51,0.95826,0.09816,-0.02446,0.2235,0.175666666666667,0.274666666666667,398.706666666667,0,0,0,0,0,0,0,0.95962,-0.09916,0.15592,0.1246,-0.618,-0.288,0.0293333333333333,-0.917214285714286,-0.258514285714286,0.0741571428571428,0.6505,0.5895,-0.223666666666667,396.0195,1,1,1,0
24-May-2018 14:08:07,51,0.9560875,0.1019375,-0.022125,1.73783333333333,0.2355,0.376333333333333,397.247333333333,0,0,0,0,0,0,0,0.9594375,-0.097225,0.1527875,-0.824142857142857,-1.31,-0.421428571428571,0.0293333333333333,-0.913225,-0.2637,0.0755,-0.444285714285714,0.365857142857143,-0.244,395.74525,1,1,1,0
24-May-2018 14:08:07,51,0.9560875,0.1019375,-0.022125,1.73783333333333,0.2355,0.376333333333333,397.247333333333,0,0,0,0,0,0,0,0.9594375,-0.097225,0.1527875,-0.824142857142857,-1.31,-0.421428571428571,0.0293333333333333,-0.913225,-0.2637,0.0755,-0.444285714285714,0.365857142857143,-0.244,395.74525,1,1,1,0
24-May-2018 14:08:07,51,0.9560875,0.1019375,-0.022125,1.73783333333333,0.2355,0.376333333333333,397.247333333333,0,0,0,0,0,0,0,0.9594375,-0.097225,0.1527875,-0.824142857142857,-1.31,-0.421428571428571,0.0293333333333333,-0.913225,-0.2637,0.0755,-0.444285714285714,0.365857142857143,-0.244,395.74525,1,1,1,0
24-May-2018 14:08:07,51,0.9560875,0.1019375,-0.022125,1.73783333333333,0.2355,0.376333333333333,397.247333333333,0,0,0,0,0,0,0,0.9594375,-0.097225,0.1527875,-0.824142857142857,-1.31,-0.421428571428571,0.0293333333333333,-0.913225,-0.2637,0.0755,-0.444285714285714,0.365857142857143,-0.244,395.74525,1,1,1,0
24-May-2018 14:08:08,51,0.9569125,0.100025,-0.0229375,0.616666666666667,0.237222222222222,0.366,394.212,0,0,0,0,0,0,0,0.9592,-0.0945,0.15488,0.323428571428571,-0.284571428571429,-0.0144285714285714,0.0293333333333333,-0.915214285714286,-0.2625,0.0726571428571429,2.08316666666667,0.813,-0.101666666666667,393.75975,1,1,1,0
24-May-2018 14:08:08,51,0.9569125,0.100025,-0.0229375,0.616666666666667,0.237222222222222,0.366,394.212,0,0,0,0,0,0,0,0.9592,-0.0945,0.15488,0.323428571428571,-0.284571428571429,-0.0144285714285714,0.0293333333333333,-0.915214285714286,-0.2625,0.0726571428571429,2.08316666666667,0.813,-0.101666666666667,393.75975,1,1,1,0
24-May-2018 14:08:08,51,0.9569125,0.100025,-0.0229375,0.616666666666667,0.237222222222222,0.366,394.212,0,0,0,0,0,0,0,0.9592,-0.0945,0.15488,0.323428571428571,-0.284571428571429,-0.0144285714285714,0.0293333333333333,-0.915214285714286,-0.2625,0.0726571428571429,2.08316666666667,0.813,-0.101666666666667,393.75975,1,1,1,0
24-May-2018 14:08:08,51,0.9569125,0.100025,-0.0229375,0.616666666666667,0.237222222222222,0.366,394.212,0,0,0,0,0,0,0,0.9592,-0.0945,0.15488,0.323428571428571,-0.284571428571429,-0.0144285714285714,0.0293333333333333,-0.915214285714286,-0.2625,0.0726571428571429,2.08316666666667,0.813,-0.101666666666667,393.75975,1,1,1,0
24-May-2018 14:08:09,51,0.9568125,0.098175,-0.0165625,0.799777777777778,0.022,0.379888888888889,394.212,0,0,0,0,0,0,0,0.95992,-0.09952,0.16876,-0.441142857142857,-0.467285714285714,-0.335571428571429,0.0293333333333333,-0.9175,-0.257257142857143,0.0725428571428571,0.802666666666667,0.0506666666666666,-0.294833333333333,398.81525,1,1,1,0
24-May-2018 14:08:09,51,0.9568125,0.098175,-0.0165625,0.799777777777778,0.022,0.379888888888889,394.212,0,0,0,0,0,0,0,0.95992,-0.09952,0.16876,-0.441142857142857,-0.467285714285714,-0.335571428571429,0.0293333333333333,-0.9175,-0.257257142857143,0.0725428571428571,0.802666666666667,0.0506666666666666,-0.294833333333333,398.81525,1,1,1,0
24-May-2018 14:08:09,51,0.9568125,0.098175,-0.0165625,0.799777777777778,0.022,0.379888888888889,394.212,0,0,0,0,0,0,0,0.95992,-0.09952,0.16876,-0.441142857142857,-0.467285714285714,-0.335571428571429,0.0293333333333333,-0.9175,-0.257257142857143,0.0725428571428571,0.802666666666667,0.0506666666666666,-0.294833333333333,398.81525,1,1,1,0
24-May-2018 14:08:09,51,0.9568125,0.098175,-0.0165625,0.799777777777778,0.022,0.379888888888889,394.212,0,0,0,0,0,0,0,0.95992,-0.09952,0.16876,-0.441142857142857,-0.467285714285714,-0.335571428571429,0.0293333333333333,-0.9175,-0.257257142857143,0.0725428571428571,0.802666666666667,0.0506666666666666,-0.294833333333333,398.81525,1,1,1,0
24-May-2018 14:08:10,51,0.957266666666667,0.0984666666666667,-0.02895,1.202,-0.703428571428572,0.0457142857142857,394.212,0,0,0,0,0,0,0,0.9594,-0.0939375,0.165,-0.0786666666666666,-1.145,-0.343166666666667,0.0293333333333333,-0.917785714285714,-0.257128571428571,0.0699,0.549,0.640166666666667,-0.2845,397.534666666667,1,1,1,0
24-May-2018 14:08:10,51,0.957266666666667,0.0984666666666667,-0.02895,1.202,-0.703428571428572,0.0457142857142857,394.212,0,0,0,0,0,0,0,0.9594,-0.0939375,0.165,-0.0786666666666666,-1.145,-0.343166666666667,0.0293333333333333,-0.917785714285714,-0.257128571428571,0.0699,0.549,0.640166666666667,-0.2845,397.534666666667,1,1,1,0
24-May-2018 14:08:10,51,0.957266666666667,0.0984666666666667,-0.02895,1.202,-0.703428571428572,0.0457142857142857,0,0,0,0,0,0,0,0,0.9594,-0.0939375,0.165,-0.0786666666666666,-1.145,-0.343166666666667,0.0293333333333333,-0.917785714285714,-0.257128571428571,0.0699,0.549,0.640166666666667,-0.2845,397.534666666667,1,1,1,0
24-May-2018 14:08:10,51,0.957266666666667,0.0984666666666667,-0.02895,1.202,-0.703428571428572,0.0457142857142857,0,0,0,0,0,0,0,0,0.9594,-0.0939375,0.165,-0.0786666666666666,-1.145,-0.343166666666667,0.0293333333333333,-0.917785714285714,-0.257128571428571,0.0699,0.549,0.640166666666667,-0.2845,397.534666666667,1,1,1,0
24-May-2018 14:08:11,51,0.95574,0.102,-0.0343,0.5508,0.2934,0.3176,390.607333333333,0,0,0,0,0,0,0,0.9598,-0.0970166666666667,0.166216666666667,-0.88,-1.215,-0.139666666666667,0.0293333333333333,-0.907033333333333,-0.2735,0.0750666666666667,-3.2562,-1.3658,-0.3172,395.206,1,1,1,0
24-May-2018 14:08:11,51,0.95574,0.102,-0.0343,0.5508,0.2934,0.3176,390.607333333333,0,0,0,0,0,0,0,0.9598,-0.0970166666666667,0.166216666666667,-0.88,-1.215,-0.139666666666667,0.0293333333333333,-0.907033333333333,-0.2735,0.0750666666666667,-3.2562,-1.3658,-0.3172,395.206,1,1,1,0
24-May-2018 14:08:11,51,0.95574,0.102,-0.0343,0.5508,0.2934,0.3176,390.607333333333,0,0,0,0,0,0,0,0.9598,-0.0970166666666667,0.166216666666667,-0.88,-1.215,-0.139666666666667,0.0293333333333333,-0.907033333333333,-0.2735,0.0750666666666667,-3.2562,-1.3658,-0.3172,395.206,1,1,1,0
24-May-2018 14:08:11,51,0.95574,0.102,-0.0343,0.5508,0.2934,0.3176,390.607333333333,0,0,0,0,0,0,0,0.9598,-0.0970166666666667,0.166216666666667,-0.88,-1.215,-0.139666666666667,0.0293333333333333,-0.907033333333333,-0.2735,0.0750666666666667,-3.2562,-1.3658,-0.3172,395.206,1,1,1,0
24-May-2018 14:08:12,51,0.9582,0.099475,-0.029575,1.69,0.307,0.549,392.6165,0,0,0,0,0,0,0,0.9593875,-0.0937125,0.15765,-0.424833333333333,-1.095,-0.271,0.0293333333333333,-0.909257142857143,-0.270771428571429,0.0922857142857143,-3.64985714285714,-0.923428571428571,0.0348571428571429,402.479,1,1,1,0
24-May-2018 14:08:12,51,0.9582,0.099475,-0.029575,1.69,0.307,0.549,392.6165,0,0,0,0,0,0,0,0.9593875,-0.0937125,0.15765,-0.424833333333333,-1.095,-0.271,0.0293333333333333,-0.909257142857143,-0.270771428571429,0.0922857142857143,-3.64985714285714,-0.923428571428571,0.0348571428571429,402.479,1,1,1,0
24-May-2018 14:08:12,51,0.9582,0.099475,-0.029575,1.69,0.307,0.549,392.6165,0,0,0,0,0,0,0,0.9593875,-0.0937125,0.15765,-0.424833333333333,-1.095,-0.271,0.0293333333333333,-0.909257142857143,-0.270771428571429,0.0922857142857143,-3.64985714285714,-0.923428571428571,0.0348571428571429,402.479,1,1,1,0
24-May-2018 14:08:12,51,0.9582,0.099475,-0.029575,1.69,0.307,0.549,392.6165,0,0,0,0,0,0,0,0.9593875,-0.0937125,0.15765,-0.424833333333333,-1.095,-0.271,0.0293333333333333,-0.909257142857143,-0.270771428571429,0.0922857142857143,-3.64985714285714,-0.923428571428571,0.0348571428571429,402.479,1,1,1,0
24-May-2018 14:08:13,51,0.95726,0.099,-0.03214,0.93,0.1845,0.33575,391.681125,0,0,0,0,0,0,0,0.959616666666667,-0.09455,0.160933333333333,-0.1434,-0.874,-0.446,0.0293333333333333,-0.912833333333333,-0.270633333333333,0.08065,4.67757142857143,3.554,1.66385714285714,405.8522,1,1,1,0
24-May-2018 14:08:13,51,0.95726,0.099,-0.03214,0.93,0.1845,0.33575,391.681125,0,0,0,0,0,0,0,0.959616666666667,-0.09455,0.160933333333333,-0.1434,-0.874,-0.446,0.0293333333333333,-0.912833333333333,-0.270633333333333,0.08065,4.67757142857143,3.554,1.66385714285714,405.8522,1,1,1,0
24-May-2018 14:08:13,51,0.95726,0.099,-0.03214,0.93,0.1845,0.33575,391.681125,0,0,0,0,0,0,0,0.959616666666667,-0.09455,0.160933333333333,-0.1434,-0.874,-0.446,0.0293333333333333,-0.912833333333333,-0.270633333333333,0.08065,4.67757142857143,3.554,1.66385714285714,405.8522,1,1,1,0
24-May-2018 14:08:13,51,0.95726,0.099,-0.03214,0.93,0.1845,0.33575,391.681125,0,0,0,0,0,0,0,0.959616666666667,-0.09455,0.160933333333333,-0.1434,-0.874,-0.446,0.0293333333333333,-0.912833333333333,-0.270633333333333,0.08065,4.67757142857143,3.554,1.66385714285714,405.8522,1,1,1,0
24-May-2018 14:08:14,51.3333333333333,0.956542857142857,0.100371428571429,-0.0269714285714286,1.22025,0.237,0.229625,390.907666666667,0,0,0,0,0,0,0,0.959683333333333,-0.0919166666666667,0.160216666666667,-0.439625,-0.92,-0.081,0.0293333333333333,-0.921271428571429,-0.256785714285714,0.0728714285714286,0.514142857142857,-0.461571428571429,0.287428571428571,401.201,1,1,1,0
24-May-2018 14:08:14,51.3333333333333,0.956542857142857,0.100371428571429,-0.0269714285714286,1.22025,0.237,0.229625,390.907666666667,0,0,0,0,0,0,0,0.959683333333333,-0.0919166666666667,0.160216666666667,-0.439625,-0.92,-0.081,0.0293333333333333,-0.921271428571429,-0.256785714285714,0.0728714285714286,0.514142857142857,-0.461571428571429,0.287428571428571,401.201,1,1,1,0
24-May-2018 14:08:14,51.3333333333333,0.956542857142857,0.100371428571429,-0.0269714285714286,1.22025,0.237,0.229625,390.907666666667,0,0,0,0,0,0,0,0.959683333333333,-0.0919166666666667,0.160216666666667,-0.439625,-0.92,-0.081,0.0293333333333333,-0.921271428571429,-0.256785714285714,0.0728714285714286,0.514142857142857,-0.461571428571429,0.287428571428571,401.201,1,1,1,0
24-May-2018 14:08:14,51.3333333333333,0.956542857142857,0.100371428571429,-0.0269714285714286,1.22025,0.237,0.229625,390.907666666667,0,0,0,0,0,0,0,0.959683333333333,-0.0919166666666667,0.160216666666667,-0.439625,-0.92,-0.081,0.0293333333333333,-0.921271428571429,-0.256785714285714,0.0728714285714286,0.514142857142857,-0.461571428571429,0.287428571428571,401.201,1,1,1,0
24-May-2018 14:08:15,51,0.956075,0.1004625,-0.0301375,1.59542857142857,0.297857142857143,0.435714285714286,385.3225,0,0,0,0,0,0,0,0.958971428571429,-0.0993428571428571,0.170828571428571,-0.782,-0.826428571428571,-0.232,0.0293333333333333,-0.9231,-0.261975,0.086325,0.9636,0.0243999999999999,0.3658,402.38,1,1,1,0
24-May-2018 14:08:15,51,0.956075,0.1004625,-0.0301375,1.59542857142857,0.297857142857143,0.435714285714286,385.3225,0,0,0,0,0,0,0,0.958971428571429,-0.0993428571428571,0.170828571428571,-0.782,-0.826428571428571,-0.232,0.0293333333333333,-0.9231,-0.261975,0.086325,0.9636,0.0243999999999999,0.3658,402.38,1,1,1,0
24-May-2018 14:08:15,51,0.956075,0.1004625,-0.0301375,1.59542857142857,0.297857142857143,0.435714285714286,385.3225,0,0,0,0,0,0,0,0.958971428571429,-0.0993428571428571,0.170828571428571,-0.782,-0.826428571428571,-0.232,0.0293333333333333,-0.9231,-0.261975,0.086325,0.9636,0.0243999999999999,0.3658,402.38,1,1,1,0
24-May-2018 14:08:15,51,0.956075,0.1004625,-0.0301375,1.59542857142857,0.297857142857143,0.435714285714286,385.3225,0,0,0,0,0,0,0,0.958971428571429,-0.0993428571428571,0.170828571428571,-0.782,-0.826428571428571,-0.232,0.0293333333333333,-0.9231,-0.261975,0.086325,0.9636,0.0243999999999999,0.3658,402.38,1,1,1,0
24-May-2018 14:08:16,51.1111111111111,0.9556,0.0999857142857143,-0.0290428571428571,0.264285714285714,-0.372714285714286,0.366571428571429,386.496,0,0,0,0,0,0,0,0.960528571428571,-0.0889571428571428,0.163414285714286,1.352,-1.60375,0.139875,0.0293333333333333,-0.9133,-0.239816666666667,0.09825,-18.048625,-5.464875,1.532,418.331,1,1,1,0
24-May-2018 14:08:16,51.1111111111111,0.9556,0.0999857142857143,-0.0290428571428571,0.264285714285714,-0.372714285714286,0.366571428571429,386.496,0,0,0,0,0,0,0,0.960528571428571,-0.0889571428571428,0.163414285714286,1.352,-1.60375,0.139875,0.0293333333333333,-0.9133,-0.239816666666667,0.09825,-18.048625,-5.464875,1.532,418.331,1,1,1,0
24-May-2018 14:08:16,51.1111111111111,0.9556,0.0999857142857143,-0.0290428571428571,0.264285714285714,-0.372714285714286,0.366571428571429,386.496,0,0,0,0,0,0,0,0.960528571428571,-0.0889571428571428,0.163414285714286,1.352,-1.60375,0.139875,0.0293333333333333,-0.9133,-0.239816666666667,0.09825,-18.048625,-5.464875,1.532,418.331,1,1,1,0
24-May-2018 14:08:16,51.1111111111111,0.9556,0.0999857142857143,-0.0290428571428571,0.264285714285714,-0.372714285714286,0.366571428571429,386.496,0,0,0,0,0,0,0,0.960528571428571,-0.0889571428571428,0.163414285714286,1.352,-1.60375,0.139875,0.0293333333333333,-0.9133,-0.239816666666667,0.09825,-18.048625,-5.464875,1.532,418.331,1,1,1,0
24-May-2018 14:08:17,51.2857142857143,0.956757142857143,0.0979571428571429,-0.043,-0.598,-0.029,0.214,384.387333333333,0,0,0,0,0,0,0,0.9608,-0.0848833333333333,0.172466666666667,5.41814285714286,-0.0247142857142857,0.159428571428571,0.0293333333333333,-0.91192,-0.2593,0.09794,5.62475,3.14025,-0.625,432.4015,1,1,1,0
24-May-2018 14:08:17,51.2857142857143,0.956757142857143,0.0979571428571429,-0.043,-0.598,-0.029,0.214,384.387333333333,0,0,0,0,0,0,0,0.9608,-0.0848833333333333,0.172466666666667,5.41814285714286,-0.0247142857142857,0.159428571428571,0.0293333333333333,-0.91192,-0.2593,0.09794,5.62475,3.14025,-0.625,432.4015,1,1,1,0
24-May-2018 14:08:17,51.2857142857143,0.956757142857143,0.0979571428571429,-0.043,-0.598,-0.029,0.214,384.387333333333,0,0,0,0,0,0,0,0.9608,-0.0848833333333333,0.172466666666667,5.41814285714286,-0.0247142857142857,0.159428571428571,0.0293333333333333,-0.91192,-0.2593,0.09794,5.62475,3.14025,-0.625,432.4015,1,1,1,0
24-May-2018 14:08:17,51.2857142857143,0.956757142857143,0.0979571428571429,-0.043,-0.598,-0.029,0.214,384.387333333333,0,0,0,0,0,0,0,0.9608,-0.0848833333333333,0.172466666666667,5.41814285714286,-0.0247142857142857,0.159428571428571,0.0293333333333333,-0.91192,-0.2593,0.09794,5.62475,3.14025,-0.625,432.4015,1,1,1,0
24-May-2018 14:08:18,51.2,0.9571,0.09118,-0.03266,4.61366666666667,0.285666666666667,0.183333333333333,386.523666666667,0,0,0,0,0,0,0,0.95862,-0.09916,0.1855,-10.3391666666667,-1.53216666666667,-1.56033333333333,0.0293333333333333,-0.924366666666666,-0.242416666666667,0.0791,26.9208333333333,8.41466666666667,-2.51016666666667,410.8605,1,1,1,0
24-May-2018 14:08:18,51.2,0.9571,0.09118,-0.03266,4.61366666666667,0.285666666666667,0.183333333333333,386.523666666667,0,0,0,0,0,0,0,0.95862,-0.09916,0.1855,-10.3391666666667,-1.53216666666667,-1.56033333333333,0.0293333333333333,-0.924366666666666,-0.242416666666667,0.0791,26.9208333333333,8.41466666666667,-2.51016666666667,410.8605,1,1,1,0
24-May-2018 14:08:18,51.2,0.9571,0.09118,-0.03266,4.61366666666667,0.285666666666667,0.183333333333333,386.523666666667,0,0,0,0,0,0,0,0.95862,-0.09916,0.1855,-10.3391666666667,-1.53216666666667,-1.56033333333333,0.0293333333333333,-0.924366666666666,-0.242416666666667,0.0791,26.9208333333333,8.41466666666667,-2.51016666666667,410.8605,1,1,1,0
24-May-2018 14:08:18,51.2,0.9571,0.09118,-0.03266,4.61366666666667,0.285666666666667,0.183333333333333,386.523666666667,0,0,0,0,0,0,0,0.95862,-0.09916,0.1855,-10.3391666666667,-1.53216666666667,-1.56033333333333,0.0293333333333333,-0.924366666666666,-0.242416666666667,0.0791,26.9208333333333,8.41466666666667,-2.51016666666667,410.8605,1,1,1,0
24-May-2018 14:08:19,51.1111111111111,0.958375,0.0859,-0.0371125,9.22655555555555,0.367222222222222,0.307666666666667,386.523666666667,0,0,0,0,0,0,0,0.95938,-0.09804,0.14738,2.12483333333333,-1.21783333333333,-0.130166666666667,0.0293333333333333,-0.918028571428571,-0.231642857142857,0.0582857142857143,-1.15833333333333,-1.3415,-0.3555,403.6515,1,1,1,0
24-May-2018 14:08:19,51.1111111111111,0.958375,0.0859,-0.0371125,9.22655555555555,0.367222222222222,0.307666666666667,386.523666666667,0,0,0,0,0,0,0,0.95938,-0.09804,0.14738,2.12483333333333,-1.21783333333333,-0.130166666666667,0.0293333333333333,-0.918028571428571,-0.231642857142857,0.0582857142857143,-1.15833333333333,-1.3415,-0.3555,403.6515,1,1,1,0
24-May-2018 14:08:19,51.1111111111111,0.958375,0.0859,-0.0371125,9.22655555555555,0.367222222222222,0.307666666666667,386.523666666667,0,0,0,0,0,0,0,0.95938,-0.09804,0.14738,2.12483333333333,-1.21783333333333,-0.130166666666667,0.0293333333333333,-0.918028571428571,-0.231642857142857,0.0582857142857143,-1.15833333333333,-1.3415,-0.3555,403.6515,1,1,1,0
24-May-2018 14:08:19,51.1111111111111,0.958375,0.0859,-0.0371125,9.22655555555555,0.367222222222222,0.307666666666667,386.523666666667,0,0,0,0,0,0,0,0.95938,-0.09804,0.14738,2.12483333333333,-1.21783333333333,-0.130166666666667,0.0293333333333333,-0.918028571428571,-0.231642857142857,0.0582857142857143,-1.15833333333333,-1.3415,-0.3555,403.6515,1,1,1,0
24-May-2018 14:08:20,51.3,0.955675,0.0924375,-0.0441375,-9.25528571428572,-0.146428571428571,0.758,386.523666666667,0,0,0,0,0,0,0,0.958516666666667,-0.0899833333333333,0.174683333333333,1.5618,0.8304,0.063,0.0293333333333333,-0.922566666666667,-0.251916666666667,0.0649666666666667,-1.95157142857143,-1.3415,0.209285714285714,397.1615,1,1,1,0
24-May-2018 14:08:20,51.3,0.955675,0.0924375,-0.0441375,-9.25528571428572,-0.146428571428571,0.758,386.523666666667,0,0,0,0,0,0,0,0.958516666666667,-0.0899833333333333,0.174683333333333,1.5618,0.8304,0.063,0.0293333333333333,-0.922566666666667,-0.251916666666667,0.0649666666666667,-1.95157142857143,-1.3415,0.209285714285714,397.1615,1,1,1,0
24-May-2018 14:08:20,51.3,0.955675,0.0924375,-0.0441375,-9.25528571428572,-0.146428571428571,0.758,386.523666666667,0,0,0,0,0,0,0,0.958516666666667,-0.0899833333333333,0.174683333333333,1.5618,0.8304,0.063,0.0293333333333333,-0.922566666666667,-0.251916666666667,0.0649666666666667,-1.95157142857143,-1.3415,0.209285714285714,397.1615,1,1,1,0
24-May-2018 14:08:20,51.3,0.955675,0.0924375,-0.0441375,-9.25528571428572,-0.146428571428571,0.758,386.523666666667,0,0,0,0,0,0,0,0.958516666666667,-0.0899833333333333,0.174683333333333,1.5618,0.8304,0.063,0.0293333333333333,-0.922566666666667,-0.251916666666667,0.0649666666666667,-1.95157142857143,0,0.209285714285714,397.1615,1,1,1,0
24-May-2018 14:08:21,51.1111111111111,0.9546,0.0908857142857143,-0.0156142857142857,-5.71957142857143,0.846428571428571,-0.197714285714286,386.523666666667,0,0,0,0,0,0,0,0.9598,-0.08408,0.17888,-0.110142857142857,-2.14714285714286,-0.0765714285714286,0.0293333333333333,-0.91906,-0.25166,0.07692,-4.0122,-1.0242,0.8904,399.369666666667,1,1,1,0
24-May-2018 14:08:21,51.1111111111111,0.9546,0.0908857142857143,-0.0156142857142857,-5.71957142857143,0.846428571428571,-0.197714285714286,386.523666666667,0,0,0,0,0,0,0,0.9598,-0.08408,0.17888,-0.110142857142857,-2.14714285714286,-0.0765714285714286,0.0293333333333333,-0.91906,-0.25166,0.07692,-4.0122,-1.0242,0.8904,399.369666666667,1,1,1,0
24-May-2018 14:08:21,51.1111111111111,0.9546,0.0908857142857143,-0.0156142857142857,-5.71957142857143,0.846428571428571,-0.197714285714286,386.523666666667,0,0,0,0,0,0,0,0.9598,-0.08408,0.17888,-0.110142857142857,-2.14714285714286,-0.0765714285714286,0.0293333333333333,-0.91906,-0.25166,0.07692,-4.0122,-1.0242,0.8904,399.369666666667,1,1,1,0
24-May-2018 14:08:21,51.1111111111111,0.9546,0.0908857142857143,-0.0156142857142857,-5.71957142857143,0.846428571428571,-0.197714285714286,386.523666666667,0,0,0,0,0,0,0,0.9598,-0.08408,0.17888,-0.110142857142857,-2.14714285714286,-0.0765714285714286,0.0293333333333333,-0.91906,-0.25166,0.07692,-4.0122,-1.0242,0.8904,399.369666666667,1,1,1,0
24-May-2018 14:08:22,51.1111111111111,0.95636,0.095,-0.02614,5.0854,-0.4,0.2332,400.6906,0,0,0,0,0,0,0,0.9593,-0.100466666666667,0.162733333333333,-0.182,-0.953333333333333,0.874,0.0293333333333333,-0.91668,-0.25166,0.07888,4.19871428571429,0.513857142857143,-0.914571428571428,402.633,1,1,1,0
24-May-2018 14:08:22,51.1111111111111,0.95636,0.095,-0.02614,5.0854,-0.4,0.2332,400.6906,0,0,0,0,0,0,0,0.9593,-0.100466666666667,0.162733333333333,-0.182,-0.953333333333333,0.874,0.0293333333333333,-0.91668,-0.25166,0.07888,4.19871428571429,0.513857142857143,-0.914571428571428,402.633,1,1,1,0
24-May-2018 14:08:22,51.1111111111111,0.95636,0.095,-0.02614,5.0854,-0.4,0.2332,400.6906,0,0,0,0,0,0,0,0.9593,-0.100466666666667,0.162733333333333,-0.182,-0.953333333333333,0.874,0.0293333333333333,-0.91668,-0.25166,0.07888,4.19871428571429,0.513857142857143,-0.914571428571428,402.633,1,1,1,0
24-May-2018 14:08:22,51.1111111111111,0.95636,0.095,-0.02614,5.0854,-0.4,0.2332,400.6906,0,0,0,0,0,0,0,0.9593,-0.100466666666667,0.162733333333333,-0.182,-0.953333333333333,0.874,0.0293333333333333,-0.91668,-0.25166,0.07888,4.19871428571429,0.513857142857143,-0.914571428571428,402.633,1,1,1,0
24-May-2018 14:08:23,51.0909090909091,0.956675,0.096475,-0.0424,1.023,0.5655,0.412,389.572166666667,0,0,0,0,0,0,0,0.9588,-0.0978166666666667,0.16925,0.0702499999999999,-0.18825,-0.49125,0.0293333333333333,-0.9188,-0.239157142857143,0.0827142857142857,-7.17771428571429,-1.12371428571429,3.82414285714286,408.768333333333,1,1,1,0
24-May-2018 14:08:23,51.0909090909091,0.956675,0.096475,-0.0424,1.023,0.5655,0.412,389.572166666667,0,0,0,0,0,0,0,0.9588,-0.0978166666666667,0.16925,0.0702499999999999,-0.18825,-0.49125,0.0293333333333333,-0.9188,-0.239157142857143,0.0827142857142857,-7.17771428571429,-1.12371428571429,3.82414285714286,408.768333333333,1,1,1,0
24-May-2018 14:08:23,51.0909090909091,0.956675,0.096475,-0.0424,1.023,0.5655,0.412,389.572166666667,0,0,0,0,0,0,0,0.9588,-0.0978166666666667,0.16925,0.0702499999999999,-0.18825,-0.49125,0.0293333333333333,-0.9188,-0.239157142857143,0.0827142857142857,-7.17771428571429,-1.12371428571429,3.82414285714286,408.768333333333,1,1,1,0
24-May-2018 14:08:23,51.0909090909091,0.956675,0.096475,-0.0424,1.023,0.5655,0.412,389.572166666667,0,0,0,0,0,0,0,0.9588,-0.0978166666666667,0.16925,0.0702499999999999,-0.18825,-0.49125,0.0293333333333333,-0.9188,-0.239157142857143,0.0827142857142857,-7.17771428571429,-1.12371428571429,3.82414285714286,408.768333333333,1,1,1,0
24-May-2018 14:08:24,51,0.956825,0.09905,-0.027425,2.3176,0.6466,0.1842,389.181428571429,0,0,0,0,0,0,0,0.958133333333333,-0.0973666666666667,0.180466666666667,0.0128333333333334,-1.28833333333333,-0.41,0.0293333333333333,-0.920175,-0.2375,0.0723,7.279,4.009125,1.9665,415.549,1,1,1,0
24-May-2018 14:08:24,51,0.956825,0.09905,-0.027425,2.3176,0.6466,0.1842,389.181428571429,0,0,0,0,0,0,0,0.958133333333333,-0.0973666666666667,0.180466666666667,0.0128333333333334,-1.28833333333333,-0.41,0.0293333333333333,-0.920175,-0.2375,0.0723,7.279,4.009125,1.9665,415.549,1,1,1,0
24-May-2018 14:08:24,51,0.956825,0.09905,-0.027425,2.3176,0.6466,0.1842,389.181428571429,0,0,0,0,0,0,0,0.958133333333333,-0.0973666666666667,0.180466666666667,0.0128333333333334,-1.28833333333333,-0.41,0.0293333333333333,-0.920175,-0.2375,0.0723,7.279,4.009125,1.9665,415.549,1,1,1,0
24-May-2018 14:08:24,51,0.956825,0.09905,-0.027425,2.3176,0.6466,0.1842,389.181428571429,0,0,0,0,0,0,0,0.958133333333333,-0.0973666666666667,0.180466666666667,0.0128333333333334,-1.28833333333333,-0.41,0.0293333333333333,-0.920175,-0.2375,0.0723,7.279,4.009125,1.9665,415.549,1,1,1,0
24-May-2018 14:08:25,51.4545454545455,0.955833333333333,0.101783333333333,-0.0372833333333333,-1.82571428571429,-0.641428571428571,0.636142857142857,388.012333333333,0,0,0,0,0,0,0,0.958977777777778,-0.0945777777777778,0.1742,-1.303,-0.92,-0.171,0.0293333333333333,-0.912885714285714,-0.212385714285714,0.156071428571429,-0.533374999999999,0.449625,2.17225,422.068333333333,1,1,1,1
24-May-2018 14:08:25,51.4545454545455,0.955833333333333,0.101783333333333,-0.0372833333333333,-1.82571428571429,-0.641428571428571,0.636142857142857,388.012333333333,0,0,0,0,0,0,0,0.958977777777778,-0.0945777777777778,0.1742,-1.303,-0.92,-0.171,0.0293333333333333,-0.912885714285714,-0.212385714285714,0.156071428571429,-0.533374999999999,0.449625,2.17225,422.068333333333,1,1,1,1
24-May-2018 14:08:25,51.4545454545455,0.955833333333333,0.101783333333333,-0.0372833333333333,-1.82571428571429,-0.641428571428571,0.636142857142857,388.012333333333,0,0,0,0,0,0,0,0.958977777777778,-0.0945777777777778,0.1742,-1.303,-0.92,-0.171,0.0293333333333333,-0.912885714285714,-0.212385714285714,0.156071428571429,-0.533374999999999,0.449625,2.17225,422.068333333333,1,1,1,1
24-May-2018 14:08:25,51.4545454545455,0.955833333333333,0.101783333333333,-0.0372833333333333,-1.82571428571429,-0.641428571428571,0.636142857142857,388.012333333333,0,0,0,0,0,0,0,0.958977777777778,-0.0945777777777778,0.1742,-1.303,-0.92,-0.171,0.0293333333333333,-0.912885714285714,-0.212385714285714,0.156071428571429,-0.533374999999999,0.449625,2.17225,422.068333333333,1,1,1,1
24-May-2018 14:08:26,51,0.955566666666667,0.0888666666666667,-0.0448166666666667,3.78,0.265833333333333,0.549,380.389,0,0,0,0,0,0,0,0.95842,-0.10024,0.1748,0.214666666666667,-0.89,0.174333333333333,0.0293333333333333,-0.9237,-0.2181,0.0846,1.814,1.08225,-3.613,419.689,1,1,1,0
24-May-2018 14:08:26,51,0.955566666666667,0.0888666666666667,-0.0448166666666667,3.78,0.265833333333333,0.549,380.389,0,0,0,0,0,0,0,0.95842,-0.10024,0.1748,0.214666666666667,-0.89,0.174333333333333,0.0293333333333333,-0.9237,-0.2181,0.0846,1.814,1.08225,-3.613,419.689,1,1,1,0
24-May-2018 14:08:26,51,0.955566666666667,0.0888666666666667,-0.0448166666666667,3.78,0.265833333333333,0.549,380.389,0,0,0,0,0,0,0,0.95842,-0.10024,0.1748,0.214666666666667,-0.89,0.174333333333333,0.0293333333333333,-0.9237,-0.2181,0.0846,1.814,1.08225,-3.613,419.689,1,1,1,0
24-May-2018 14:08:26,51,0.955566666666667,0.0888666666666667,-0.0448166666666667,3.78,0.265833333333333,0.549,380.389,0,0,0,0,0,0,0,0.95842,-0.10024,0.1748,0.214666666666667,-0.89,0.174333333333333,0.0293333333333333,-0.9237,-0.2181,0.0846,1.814,1.08225,-3.613,419.689,1,1,1,0
24-May-2018 14:08:27,51,0.95594,0.08874,-0.03912,0.0423333333333334,0.3365,0.406666666666667,368.955333333333,0,0,0,0,0,0,0,0.958711111111111,-0.0999333333333333,0.172311111111111,-2.1515,-1.10333333333333,-0.373166666666667,0.0293333333333333,-0.92754,-0.22416,0.07956,3.993875,1.227,0.099,405.5215,1,1,1,0
24-May-2018 14:08:27,51,0.95594,0.08874,-0.03912,0.0423333333333334,0.3365,0.406666666666667,368.955333333333,0,0,0,0,0,0,0,0.958711111111111,-0.0999333333333333,0.172311111111111,-2.1515,-1.10333333333333,-0.373166666666667,0.0293333333333333,-0.92754,-0.22416,0.07956,3.993875,1.227,0.099,405.5215,1,1,1,0
24-May-2018 14:08:27,51,0.95594,0.08874,-0.03912,0.0423333333333334,0.3365,0.406666666666667,368.955333333333,0,0,0,0,0,0,0,0.958711111111111,-0.0999333333333333,0.172311111111111,-2.1515,-1.10333333333333,-0.373166666666667,0.0293333333333333,-0.92754,-0.22416,0.07956,3.993875,1.227,0.099,405.5215,1,1,1,0
24-May-2018 14:08:27,51,0.95594,0.08874,-0.03912,0.0423333333333334,0.3365,0.406666666666667,368.955333333333,0,0,0,0,0,0,0,0.958711111111111,-0.0999333333333333,0.172311111111111,-2.1515,-1.10333333333333,-0.373166666666667,0.0293333333333333,-0.92754,-0.22416,0.07956,3.993875,1.227,0.099,405.5215,1,1,1,0
24-May-2018 14:08:28,51,0.9548,0.0905428571428571,-0.0452,0.218714285714286,0.019,0.375571428571429,371.603,0,0,0,0,0,0,0,0.9583,-0.101083333333333,0.172416666666667,-0.516666666666667,-0.808333333333333,-0.17,0.0293333333333333,-0.924683333333333,-0.22675,0.0734666666666667,1.89016666666667,0.8335,-0.366,404.76,1,1,1,0
24-May-2018 14:08:28,51,0.9548,0.0905428571428571,-0.0452,0.218714285714286,0.019,0.375571428571429,371.603,0,0,0,0,0,0,0,0.9583,-0.101083333333333,0.172416666666667,-0.516666666666667,-0.808333333333333,-0.17,0.0293333333333333,-0.924683333333333,-0.22675,0.0734666666666667,1.89016666666667,0.8335,-0.366,404.76,1,1,1,0
24-May-2018 14:08:28,51,0.9548,0.0905428571428571,-0.0452,0.218714285714286,0.019,0.375571428571429,371.603,0,0,0,0,0,0,0,0.9583,-0.101083333333333,0.172416666666667,-0.516666666666667,-0.808333333333333,-0.17,0.0293333333333333,-0.924683333333333,-0.22675,0.0734666666666667,1.89016666666667,0.8335,-0.366,404.76,1,1,1,0
24-May-2018 14:08:28,51,0.9548,0.0905428571428571,-0.0452,0.218714285714286,0.019,0.375571428571429,371.603,0,0,0,0,0,0,0,0.9583,-0.101083333333333,0.172416666666667,-0.516666666666667,-0.808333333333333,-0.17,0.0293333333333333,-0.924683333333333,-0.22675,0.0734666666666667,1.89016666666667,0.8335,-0.366,404.76,1,1,1,0
24-May-2018 14:08:29,51.0909090909091,0.95706,0.09806,-0.04518,-0.614166666666666,0.174,0.203333333333333,367.766,0,0,0,0,0,0,0,0.9587125,-0.1039375,0.1707375,0.202285714285714,-0.790285714285714,-0.554285714285714,0.0293333333333333,-0.92378,-0.22812,0.06984,0.284666666666667,0.538666666666667,0.142333333333333,399.6215,1,1,1,0
24-May-2018 14:08:29,51.0909090909091,0.95706,0.09806,-0.04518,-0.614166666666666,0.174,0.203333333333333,367.766,0,0,0,0,0,0,0,0.9587125,-0.1039375,0.1707375,0.202285714285714,-0.790285714285714,-0.554285714285714,0.0293333333333333,-0.92378,-0.22812,0.06984,0.284666666666667,0.538666666666667,0.142333333333333,399.6215,1,1,1,0
24-May-2018 14:08:29,51.0909090909091,0.95706,0.09806,-0.04518,-0.614166666666666,0.174,0.203333333333333,367.766,0,0,0,0,0,0,0,0.9587125,-0.1039375,0.1707375,0.202285714285714,-0.790285714285714,-0.554285714285714,0,-0.92378,-0.22812,0.06984,0.284666666666667,0.538666666666667,0.142333333333333,399.6215,1,1,1,0
24-May-2018 14:08:29,51.0909090909091,0.95706,0.09806,-0.04518,-0.614166666666666,0.174,0.203333333333333,367.766,0,0,0,0,0,0,0,0.9587125,-0.1039375,0.1707375,0.202285714285714,-0.790285714285714,-0.554285714285714,0,-0.92378,-0.22812,0.06984,0.284666666666667,0.538666666666667,0.142333333333333,399.6215,1,1,1,0
24-May-2018 14:08:30,51.3,0.9567625,0.093775,-0.0393375,1.57685714285714,0.322428571428571,0.383428571428571,374.417666666667,0,0,0,0,0,0,0,0.956216666666667,-0.09425,0.190966666666667,-6.3725,1.2305,-2.27333333333333,0.0176,-0.926983333333333,-0.228716666666667,0.0830833333333333,7.88616666666667,0.1525,0.264,399.499,1,1,1,0
24-May-2018 14:08:30,51.3,0.9567625,0.093775,-0.0393375,1.57685714285714,0.322428571428571,0.383428571428571,374.417666666667,0,0,0,0,0,0,0,0.956216666666667,-0.09425,0.190966666666667,-6.3725,1.2305,-2.27333333333333,0.0176,-0.926983333333333,-0.228716666666667,0.0830833333333333,7.88616666666667,0.1525,0.264,399.499,1,1,1,0
24-May-2018 14:08:30,51.3,0.9567625,0.093775,-0.0393375,1.57685714285714,0.322428571428571,0.383428571428571,374.417666666667,0,0,0,0,0,0,0,0.956216666666667,-0.09425,0.190966666666667,-6.3725,1.2305,-2.27333333333333,0.0176,-0.926983333333333,-0.228716666666667,0.0830833333333333,7.88616666666667,0.1525,0.264,399.499,1,1,1,0
24-May-2018 14:08:30,51.3,0.9567625,0.093775,-0.0393375,1.57685714285714,0.322428571428571,0.383428571428571,374.417666666667,0,0,0,0,0,0,0,0.956216666666667,-0.09425,0.190966666666667,-6.3725,1.2305,-2.27333333333333,0.0176,-0.926983333333333,-0.228716666666667,0.0830833333333333,7.88616666666667,0.1525,0.264,399.499,1,1,1,0
24-May-2018 14:08:31,51,0.9561,0.09508,-0.03914,0.3302,0.1712,0.2686,374.417666666667,0,0,0,0,0,0,0,0.95736,-0.06468,0.19682,-3.79783333333333,-1.52,-3.685,0.022,-0.922442857142857,-0.180828571428571,0.106942857142857,12.32475,-0.0916249999999998,-0.503125,471.311,1,1,1,0
24-May-2018 14:08:31,51,0.9561,0.09508,-0.03914,0.3302,0.1712,0.2686,374.417666666667,0,0,0,0,0,0,0,0.95736,-0.06468,0.19682,-3.79783333333333,-1.52,-3.685,0.022,-0.922442857142857,-0.180828571428571,0.106942857142857,12.32475,-0.0916249999999998,-0.503125,471.311,1,1,1,0
24-May-2018 14:08:31,51,0.9561,0.09508,-0.03914,0.3302,0.1712,0.2686,374.417666666667,0,0,0,0,0,0,0,0.95736,-0.06468,0.19682,-3.79783333333333,-1.52,-3.685,0.022,-0.922442857142857,-0.180828571428571,0.106942857142857,12.32475,-0.0916249999999998,-0.503125,471.311,1,1,1,0
24-May-2018 14:08:31,51,0.9561,0.09508,-0.03914,0.3302,0.1712,0.2686,374.417666666667,0,0,0,0,0,0,0,0.95736,-0.06468,0.19682,-3.79783333333333,-1.52,-3.685,0.022,-0.922442857142857,-0.180828571428571,0.106942857142857,12.32475,-0.0916249999999998,-0.503125,471.311,1,1,1,0
24-May-2018 14:08:32,51,0.956788888888889,0.0972777777777778,-0.0380888888888889,0.833888888888889,0.156666666666667,0.548888888888889,374.417666666667,0,0,0,0,0,0,0,0.960533333333333,-0.03785,0.1947,2.8505,-1.2625,-1.36725,0.022,-0.923375,-0.186925,0.140225,-1.5976,-2.0608,-0.3538,476.193,1,1,1,0
24-May-2018 14:08:32,51,0.956788888888889,0.0972777777777778,-0.0380888888888889,0.833888888888889,0.156666666666667,0.548888888888889,374.417666666667,0,0,0,0,0,0,0,0.960533333333333,-0.03785,0.1947,2.8505,-1.2625,-1.36725,0.022,-0.923375,-0.186925,0.140225,-1.5976,-2.0608,-0.3538,476.193,1,1,1,0
24-May-2018 14:08:32,51,0.956788888888889,0.0972777777777778,-0.0380888888888889,0.833888888888889,0.156666666666667,0.548888888888889,0,0,0,0,0,0,0,0,0.960533333333333,-0.03785,0.1947,2.8505,-1.2625,-1.36725,0.022,-0.923375,-0.186925,0.140225,-1.5976,-2.0608,-0.3538,476.193,1,1,1,0
24-May-2018 14:08:32,51,0.956788888888889,0.0972777777777778,-0.0380888888888889,0.833888888888889,0.156666666666667,0.548888888888889,0,0,0,0,0,0,0,0,0.960533333333333,-0.03785,0.1947,2.8505,-1.2625,-1.36725,0.022,-0.923375,-0.186925,0.140225,-1.5976,-2.0608,-0.3538,476.193,1,1,1,0
24-May-2018 14:08:33,51,0.95626,0.09664,-0.03856,0.74875,0.06225,0.808,377.753,0,0,0,0,0,0,0,0.959914285714286,-0.0265,0.201571428571429,1.99528571428571,-0.0592857142857143,1.13242857142857,0.022,-0.925671428571429,-0.160814285714286,0.154285714285714,1.748,5.03033333333333,1.83966666666667,480.126,1,1,1,0
24-May-2018 14:08:33,51,0.95626,0.09664,-0.03856,0.74875,0.06225,0.808,377.753,0,0,0,0,0,0,0,0.959914285714286,-0.0265,0.201571428571429,1.99528571428571,-0.0592857142857143,1.13242857142857,0.022,-0.925671428571429,-0.160814285714286,0.154285714285714,1.748,5.03033333333333,1.83966666666667,480.126,1,1,1,0
24-May-2018 14:08:33,51,0.95626,0.09664,-0.03856,0.74875,0.06225,0.808,377.753,0,0,0,0,0,0,0,0.959914285714286,-0.0265,0.201571428571429,1.99528571428571,-0.0592857142857143,1.13242857142857,0.022,-0.925671428571429,-0.160814285714286,0.154285714285714,1.748,5.03033333333333,1.83966666666667,480.126,1,1,1,0
24-May-2018 14:08:33,51,0.95626,0.09664,-0.03856,0.74875,0.06225,0.808,377.753,0,0,0,0,0,0,0,0.959914285714286,-0.0265,0.201571428571429,1.99528571428571,-0.0592857142857143,1.13242857142857,0.022,-0.925671428571429,-0.160814285714286,0.154285714285714,1.748,5.03033333333333,1.83966666666667,480.126,1,1,1,0
24-May-2018 14:08:34,51,0.9556,0.10398,-0.04058,-17.8275,-0.5775,1.58575,382.9082,0,0,0,0,0,0,0,0.95686,-0.05234,0.2199,0.0348888888888888,-0.715888888888889,0.529555555555556,0.022,-0.9292,-0.177771428571429,0.102028571428571,0.0694285714285713,2.00342857142857,-2.45657142857143,459.49925,1,1,1,0
24-May-2018 14:08:34,51,0.9556,0.10398,-0.04058,-17.8275,-0.5775,1.58575,382.9082,0,0,0,0,0,0,0,0.95686,-0.05234,0.2199,0.0348888888888888,-0.715888888888889,0.529555555555556,0.022,-0.9292,-0.177771428571429,0.102028571428571,0.0694285714285713,2.00342857142857,-2.45657142857143,459.49925,1,1,1,0
24-May-2018 14:08:34,51,0.9556,0.10398,-0.04058,-17.8275,-0.5775,1.58575,382.9082,0,0,0,0,0,0,0,0.95686,-0.05234,0.2199,0.0348888888888888,-0.715888888888889,0.529555555555556,0.022,-0.9292,-0.177771428571429,0.102028571428571,0.0694285714285713,2.00342857142857,-2.45657142857143,459.49925,1,1,1,0
24-May-2018 14:08:34,51,0.9556,0.10398,-0.04058,-17.8275,-0.5775,1.58575,382.9082,0,0,0,0,0,0,0,0.95686,-0.05234,0.2199,0.0348888888888888,-0.715888888888889,0.529555555555556,0.022,-0.9292,-0.177771428571429,0.102028571428571,0.0694285714285713,2.00342857142857,-2.45657142857143,459.49925,1,1,1,0
24-May-2018 14:08:35,51,0.957533333333333,0.0724166666666667,-0.0124166666666667,-1.81883333333333,-0.516166666666667,0.692166666666667,420.429,0,0,0,0,0,0,0,0.9551875,-0.090675,0.204975,0.763,-1.38,2.02333333333333,0.022,-0.92714,-0.1937,0.08038,-5.67957142857143,0.244,1.10628571428571,435.053,1,1,1,0
24-May-2018 14:08:35,51,0.957533333333333,0.0724166666666667,-0.0124166666666667,-1.81883333333333,-0.516166666666667,0.692166666666667,420.429,0,0,0,0,0,0,0,0.9551875,-0.090675,0.204975,0.763,-1.38,2.02333333333333,0.022,-0.92714,-0.1937,0.08038,-5.67957142857143,0.244,1.10628571428571,435.053,1,1,1,0
24-May-2018 14:08:35,51,0.957533333333333,0.0724166666666667,-0.0124166666666667,-1.81883333333333,-0.516166666666667,0.692166666666667,420.429,0,0,0,0,0,0,0,0.9551875,-0.090675,0.204975,0.763,-1.38,2.02333333333333,0.022,-0.92714,-0.1937,0.08038,-5.67957142857143,0.244,1.10628571428571,435.053,1,1,1,0
24-May-2018 14:08:35,51,0.957533333333333,0.0724166666666667,-0.0124166666666667,-1.81883333333333,-0.516166666666667,0.692166666666667,420.429,0,0,0,0,0,0,0,0.9551875,-0.090675,0.204975,0.763,-1.38,2.02333333333333,0.022,-0.92714,-0.1937,0.08038,-5.67957142857143,0.244,1.10628571428571,435.053,1,1,1,0
24-May-2018 14:08:36,50.9,0.95925,0.0811333333333333,-0.0248166666666667,-1.4716,0.063,0.2446,421.0318,0,0,0,0,0,0,0,0.95366,-0.09176,0.22344,3.33657142857143,-0.301714285714286,0.418857142857143,0.022,-0.92226,-0.20092,0.07728,-8.7928,-2.9632,-1.3292,425.731,1,1,1,0
24-May-2018 14:08:36,50.9,0.95925,0.0811333333333333,-0.0248166666666667,-1.4716,0.063,0.2446,421.0318,0,0,0,0,0,0,0,0.95366,-0.09176,0.22344,3.33657142857143,-0.301714285714286,0.418857142857143,0.022,-0.92226,-0.20092,0.07728,-8.7928,-2.9632,-1.3292,425.731,1,1,1,0
24-May-2018 14:08:36,50.9,0.95925,0.0811333333333333,-0.0248166666666667,-1.4716,0.063,0.2446,421.0318,0,0,0,0,0,0,0,0.95366,-0.09176,0.22344,3.33657142857143,-0.301714285714286,0.418857142857143,0.022,-0.92226,-0.20092,0.07728,-8.7928,-2.9632,-1.3292,425.731,1,1,1,0
24-May-2018 14:08:36,50.9,0.95925,0.0811333333333333,-0.0248166666666667,-1.4716,0.063,0.2446,421.0318,0,0,0,0,0,0,0,0.95366,-0.09176,0.22344,3.33657142857143,-0.301714285714286,0.418857142857143,0.022,-0.92226,-0.20092,0.07728,-8.7928,-2.9632,-1.3292,425.731,1,1,1,0
24-May-2018 14:08:37,51,0.9573,0.09756,-0.03782,3.41475,-1.217,-1.11,428.971,0,0,0,0,0,0,0,0.952385714285714,-0.0948428571428571,0.2365,-2.06225,-1.3,-0.339125,0.022,-0.92446,-0.20382,0.10198,-10.6708333333333,-1.199,4.0245,419.60225,1,1,1,0
24-May-2018 14:08:37,51,0.9573,0.09756,-0.03782,3.41475,-1.217,-1.11,428.971,0,0,0,0,0,0,0,0.952385714285714,-0.0948428571428571,0.2365,-2.06225,-1.3,-0.339125,0.022,-0.92446,-0.20382,0.10198,-10.6708333333333,-1.199,4.0245,419.60225,1,1,1,0
24-May-2018 14:08:37,51,0.9573,0.09756,-0.03782,3.41475,-1.217,-1.11,428.971,0,0,0,0,0,0,0,0.952385714285714,-0.0948428571428571,0.2365,-2.06225,-1.3,-0.339125,0.022,-0.92446,-0.20382,0.10198,-10.6708333333333,-1.199,4.0245,419.60225,1,1,1,0
24-May-2018 14:08:37,51,0.9573,0.09756,-0.03782,3.41475,-1.217,-1.11,428.971,0,0,0,0,0,0,0,0.952385714285714,-0.0948428571428571,0.2365,-2.06225,-1.3,-0.339125,0.022,-0.92446,-0.20382,0.10198,-10.6708333333333,-1.199,4.0245,419.60225,1,1,1,0
24-May-2018 14:08:38,51,0.957242857142857,0.0997142857142857,-0.0494857142857143,2.926875,0.405125,0.124125,409.331,0,0,0,0,0,0,0,0.95315,-0.0900166666666667,0.220133333333333,-1.1684,-1.032,-0.278,0.022,-0.9318,-0.20896,0.13668,-2.583875,0.144625,-2.057875,436.0685,1,1,1,0
24-May-2018 14:08:38,51,0.957242857142857,0.0997142857142857,-0.0494857142857143,2.926875,0.405125,0.124125,409.331,0,0,0,0,0,0,0,0.95315,-0.0900166666666667,0.220133333333333,-1.1684,-1.032,-0.278,0.022,-0.9318,-0.20896,0.13668,-2.583875,0.144625,-2.057875,436.0685,1,1,1,0
24-May-2018 14:08:38,51,0.957242857142857,0.0997142857142857,-0.0494857142857143,2.926875,0.405125,0.124125,409.331,0,0,0,0,0,0,0,0.95315,-0.0900166666666667,0.220133333333333,-1.1684,-1.032,-0.278,0.022,-0.9318,-0.20896,0.13668,-2.583875,0.144625,-2.057875,436.0685,1,1,1,0
24-May-2018 14:08:38,51,0.957242857142857,0.0997142857142857,-0.0494857142857143,2.926875,0.405125,0.124125,409.331,0,0,0,0,0,0,0,0.95315,-0.0900166666666667,0.220133333333333,-1.1684,-1.032,-0.278,0.022,-0.9318,-0.20896,0.13668,-2.583875,0.144625,-2.057875,436.0685,1,1,1,0
24-May-2018 14:08:39,51,0.950128571428571,0.1059,-0.0686,9.516875,-1.170125,-1.317625,390.778,0,0,0,0,0,0,0,0.953716666666667,-0.0916833333333333,0.223683333333333,-0.781125,-0.62875,-0.33,0.022,-0.9221,-0.191985714285714,0.143214285714286,2.95285714285714,-0.914714285714286,0.0434285714285714,441.788,1,1,1,0
24-May-2018 14:08:39,51,0.950128571428571,0.1059,-0.0686,9.516875,-1.170125,-1.317625,390.778,0,0,0,0,0,0,0,0.953716666666667,-0.0916833333333333,0.223683333333333,-0.781125,-0.62875,-0.33,0.022,-0.9221,-0.191985714285714,0.143214285714286,2.95285714285714,-0.914714285714286,0.0434285714285714,441.788,1,1,1,0
24-May-2018 14:08:39,51,0.950128571428571,0.1059,-0.0686,9.516875,-1.170125,-1.317625,390.778,0,0,0,0,0,0,0,0.953716666666667,-0.0916833333333333,0.223683333333333,-0.781125,-0.62875,-0.33,0.022,-0.9221,-0.191985714285714,0.143214285714286,2.95285714285714,-0.914714285714286,0.0434285714285714,441.788,1,1,1,0
24-May-2018 14:08:39,51,0.950128571428571,0.1059,-0.0686,9.516875,-1.170125,-1.317625,390.778,0,0,0,0,0,0,0,0.953716666666667,-0.0916833333333333,0.223683333333333,-0.781125,-0.62875,-0.33,0.022,-0.9221,-0.191985714285714,0.143214285714286,2.95285714285714,-0.914714285714286,0.0434285714285714,441.788,1,1,1,0
24-May-2018 14:08:40,51.1111111111111,0.949928571428571,0.102642857142857,-0.0786571428571429,7.62028571428571,0.419571428571429,0.288571428571429,362.50025,0,0,0,0,0,0,0,0.953425,-0.0923,0.225725,-0.0985,-0.91,-0.28,0.022,-0.918966666666667,-0.217833333333333,0.1431,-4.73566666666667,0.772333333333334,1.79866666666667,448.178,1,1,1,1
24-May-2018 14:08:40,51.1111111111111,0.949928571428571,0.102642857142857,-0.0786571428571429,7.62028571428571,0.419571428571429,0.288571428571429,362.50025,0,0,0,0,0,0,0,0.953425,-0.0923,0.225725,-0.0985,-0.91,-0.28,0.022,-0.918966666666667,-0.217833333333333,0.1431,-4.73566666666667,0.772333333333334,1.79866666666667,448.178,1,1,1,1
24-May-2018 14:08:40,51.1111111111111,0.949928571428571,0.102642857142857,-0.0786571428571429,7.62028571428571,0.419571428571429,0.288571428571429,362.50025,0,0,0,0,0,0,0,0.953425,-0.0923,0.225725,-0.0985,-0.91,-0.28,0.022,-0.918966666666667,-0.217833333333333,0.1431,-4.73566666666667,0.772333333333334,1.79866666666667,448.178,1,1,1,1
24-May-2018 14:08:40,51.1111111111111,0.949928571428571,0.102642857142857,-0.0786571428571429,7.62028571428571,0.419571428571429,0.288571428571429,362.50025,0,0,0,0,0,0,0,0.953425,-0.0923,0.225725,-0.0985,-0.91,-0.28,0.022,-0.918966666666667,-0.217833333333333,0.1431,-4.73566666666667,0.772333333333334,1.79866666666667,448.178,1,1,1,1
24-May-2018 14:08:41,51,0.954,0.0904625,-0.0797375,-0.5465,0.321875,0.27675,346.2875,0,0,0,0,0,0,0,0.954585714285714,-0.0923857142857143,0.219742857142857,-0.632714285714286,-1.43428571428571,-0.0504285714285714,0.022,-0.926866666666667,-0.1822,0.160583333333333,3.567,2.80483333333333,1.35166666666667,441.130666666667,1,1,1,0
24-May-2018 14:08:41,51,0.954,0.0904625,-0.0797375,-0.5465,0.321875,0.27675,346.2875,0,0,0,0,0,0,0,0.954585714285714,-0.0923857142857143,0.219742857142857,-0.632714285714286,-1.43428571428571,-0.0504285714285714,0.022,-0.926866666666667,-0.1822,0.160583333333333,3.567,2.80483333333333,1.35166666666667,441.130666666667,1,1,1,0
24-May-2018 14:08:41,51,0.954,0.0904625,-0.0797375,-0.5465,0.321875,0.27675,346.2875,0,0,0,0,0,0,0,0.954585714285714,-0.0923857142857143,0.219742857142857,-0.632714285714286,-1.43428571428571,-0.0504285714285714,0.022,-0.926866666666667,-0.1822,0.160583333333333,3.567,2.80483333333333,1.35166666666667,441.130666666667,1,1,1,0
24-May-2018 14:08:41,51,0.954,0.0904625,-0.0797375,-0.5465,0.321875,0.27675,346.2875,0,0,0,0,0,0,0,0.954585714285714,-0.0923857142857143,0.219742857142857,-0.632714285714286,-1.43428571428571,-0.0504285714285714,0.022,-0.926866666666667,-0.1822,0.160583333333333,3.567,2.80483333333333,1.35166666666667,441.130666666667,1,1,1,0
24-May-2018 14:08:42,51.4285714285714,0.9530625,0.090475,-0.07165,-1.286875,0.366875,0.373875,346.2875,0,0,0,0,0,0,0,0.9566125,-0.0987375,0.1885375,-4.856,-4.044,-1.032,0.022,-0.92505,-0.1772125,0.1496875,2.0655,-1.242375,0.404,440.735,1,1,1,0
24-May-2018 14:08:42,51.4285714285714,0.9530625,0.090475,-0.07165,-1.286875,0.366875,0.373875,346.2875,0,0,0,0,0,0,0,0.9566125,-0.0987375,0.1885375,-4.856,-4.044,-1.032,0.022,-0.92505,-0.1772125,0.1496875,2.0655,-1.242375,0.404,440.735,1,1,1,0
24-May-2018 14:08:42,51.4285714285714,0.9530625,0.090475,-0.07165,-1.286875,0.366875,0.373875,346.2875,0,0,0,0,0,0,0,0.9566125,-0.0987375,0.1885375,-4.856,-4.044,-1.032,0.022,-0.92505,-0.1772125,0.1496875,2.0655,-1.242375,0.404,440.735,1,1,1,0
24-May-2018 14:08:42,51.4285714285714,0.9530625,0.090475,-0.07165,-1.286875,0.366875,0.373875,346.2875,0,0,0,0,0,0,0,0.9566125,-0.0987375,0.1885375,-4.856,-4.044,-1.032,0.022,-0.92505,-0.1772125,0.1496875,2.0655,-1.242375,0.404,440.735,1,1,1,0
24-May-2018 14:08:43,50.875,0.95326,0.09441,-0.07449,0.745333333333333,-0.0928888888888889,0.352444444444444,346.2875,0,0,0,0,0,0,0,0.960483333333333,-0.093,0.13795,-1.66814285714286,-1.51714285714286,0.0707142857142857,0.022,-0.926742857142857,-0.1846,0.128414285714286,5.77233333333333,4.38016666666667,-2.0325,436.676,1,1,1,0
24-May-2018 14:08:43,50.875,0.95326,0.09441,-0.07449,0.745333333333333,-0.0928888888888889,0.352444444444444,346.2875,0,0,0,0,0,0,0,0.960483333333333,-0.093,0.13795,-1.66814285714286,-1.51714285714286,0.0707142857142857,0.022,-0.926742857142857,-0.1846,0.128414285714286,5.77233333333333,4.38016666666667,-2.0325,436.676,1,1,1,0
24-May-2018 14:08:43,50.875,0.95326,0.09441,-0.07449,0.745333333333333,-0.0928888888888889,0.352444444444444,0,0,0,0,0,0,0,0,0.960483333333333,-0.093,0.13795,-1.66814285714286,-1.51714285714286,0.0707142857142857,0.022,-0.926742857142857,-0.1846,0.128414285714286,5.77233333333333,4.38016666666667,-2.0325,436.676,1,1,1,0
24-May-2018 14:08:43,50.875,0.95326,0.09441,-0.07449,0.745333333333333,-0.0928888888888889,0.352444444444444,0,0,0,0,0,0,0,0,0.960483333333333,-0.093,0.13795,-1.66814285714286,-1.51714285714286,0.0707142857142857,0.022,-0.926742857142857,-0.1846,0.128414285714286,5.77233333333333,4.38016666666667,-2.0325,436.676,1,1,1,0
24-May-2018 14:08:44,51,0.953833333333333,0.0930833333333333,-0.0770333333333333,0.4886,0.1342,0.3538,350.971,0,0,0,0,0,0,0,0.96075,-0.0986333333333333,0.15655,-0.083,0.5624,-0.2548,0.022,-0.930783333333333,-0.214233333333333,0.104083333333333,3.041,1.1585,-1.097625,419.816,1,1,1,1
24-May-2018 14:08:44,51,0.953833333333333,0.0930833333333333,-0.0770333333333333,0.4886,0.1342,0.3538,350.971,0,0,0,0,0,0,0,0.96075,-0.0986333333333333,0.15655,-0.083,0.5624,-0.2548,0.022,-0.930783333333333,-0.214233333333333,0.104083333333333,3.041,1.1585,-1.097625,419.816,1,1,1,1
24-May-2018 14:08:44,51,0.953833333333333,0.0930833333333333,-0.0770333333333333,0.4886,0.1342,0.3538,350.971,0,0,0,0,0,0,0,0.96075,-0.0986333333333333,0.15655,-0.083,0.5624,-0.2548,0.022,-0.930783333333333,-0.214233333333333,0.104083333333333,3.041,1.1585,-1.097625,419.816,1,1,1,1
24-May-2018 14:08:44,51,0.953833333333333,0.0930833333333333,-0.0770333333333333,0.4886,0.1342,0.3538,350.971,0,0,0,0,0,0,0,0.96075,-0.0986333333333333,0.15655,-0.083,0.5624,-0.2548,0.022,-0.930783333333333,-0.214233333333333,0.104083333333333,3.041,1.1585,-1.097625,419.816,1,1,1,1
24-May-2018 14:08:45,51,0.9534,0.0946,-0.0756,0.96025,0.44225,0.35075,351.580333333333,0,0,0,0,0,0,0,0.960033333333333,-0.0939666666666667,0.1685,0.3565,-0.8,-0.351666666666667,0.022,-0.92626,-0.19868,0.10992,-1.7926,0.8902,0.1098,423.847333333333,1,1,1,0
24-May-2018 14:08:45,51,0.9534,0.0946,-0.0756,0.96025,0.44225,0.35075,351.580333333333,0,0,0,0,0,0,0,0.960033333333333,-0.0939666666666667,0.1685,0.3565,-0.8,-0.351666666666667,0.022,-0.92626,-0.19868,0.10992,-1.7926,0.8902,0.1098,423.847333333333,1,1,1,0
24-May-2018 14:08:45,51,0.9534,0.0946,-0.0756,0.96025,0.44225,0.35075,351.580333333333,0,0,0,0,0,0,0,0.960033333333333,-0.0939666666666667,0.1685,0.3565,-0.8,-0.351666666666667,0.022,-0.92626,-0.19868,0.10992,-1.7926,0.8902,0.1098,423.847333333333,1,1,1,0
24-May-2018 14:08:45,51,0.9534,0.0946,-0.0756,0.96025,0.44225,0.35075,351.580333333333,0,0,0,0,0,0,0,0.960033333333333,-0.0939666666666667,0.1685,0.3565,-0.8,-0.351666666666667,0.022,-0.92626,-0.19868,0.10992,-1.7926,0.8902,0.1098,423.847333333333,1,1,1,0
24-May-2018 14:08:46,51,0.95526,0.09542,-0.06226,-6.95,1.90525,0.8695,362.686,0,0,0,0,0,0,0,0.956,-0.0898,0.159025,0.7445,-1.38666666666667,-0.1,0.022,-0.9268,-0.2034,0.0959,-0.183,0.345333333333333,-0.244,419.8,1,1,1,0
24-May-2018 14:08:46,51,0.95526,0.09542,-0.06226,-6.95,1.90525,0.8695,362.686,0,0,0,0,0,0,0,0.956,-0.0898,0.159025,0.7445,-1.38666666666667,-0.1,0.022,-0.9268,-0.2034,0.0959,-0.183,0.345333333333333,-0.244,419.8,1,1,1,0
24-May-2018 14:08:46,51,0.95526,0.09542,-0.06226,-6.95,1.90525,0.8695,362.686,0,0,0,0,0,0,0,0.956,-0.0898,0.159025,0.7445,-1.38666666666667,-0.1,0.022,-0.9268,-0.2034,0.0959,-0.183,0.345333333333333,-0.244,419.8,1,1,1,0
24-May-2018 14:08:46,51,0.95526,0.09542,-0.06226,-6.95,1.90525,0.8695,362.686,0,0,0,0,0,0,0,0.956,-0.0898,0.159025,0.7445,-1.38666666666667,-0.1,0.022,-0.9268,-0.2034,0.0959,-0.183,0.345333333333333,-0.244,419.8,1,1,1,0
24-May-2018 14:08:47,51,0.954728571428571,0.106942857142857,-0.0198,-0.50825,1.038,0.245875,390.679333333333,0,0,0,0,0,0,0,0.961285714285714,-0.0976571428571429,0.1669,-0.5964,-0.63,-0.0232,0.022,-0.92722,-0.2091,0.10152,0.322285714285714,0.531428571428571,0.00871428571428569,418.17,1,1,1,0
24-May-2018 14:08:47,51,0.954728571428571,0.106942857142857,-0.0198,-0.50825,1.038,0.245875,390.679333333333,0,0,0,0,0,0,0,0.961285714285714,-0.0976571428571429,0.1669,-0.5964,-0.63,-0.0232,0.022,-0.92722,-0.2091,0.10152,0.322285714285714,0.531428571428571,0.00871428571428569,418.17,1,1,1,0
24-May-2018 14:08:47,51,0.954728571428571,0.106942857142857,-0.0198,-0.50825,1.038,0.245875,390.679333333333,0,0,0,0,0,0,0,0.961285714285714,-0.0976571428571429,0.1669,-0.5964,-0.63,-0.0232,0.022,-0.92722,-0.2091,0.10152,0.322285714285714,0.531428571428571,0.00871428571428569,418.17,1,1,1,0
24-May-2018 14:08:47,51,0.954728571428571,0.106942857142857,-0.0198,-0.50825,1.038,0.245875,390.679333333333,0,0,0,0,0,0,0,0.961285714285714,-0.0976571428571429,0.1669,-0.5964,-0.63,-0.0232,0.022,-0.92722,-0.2091,0.10152,0.322285714285714,0.531428571428571,0.00871428571428569,418.17,1,1,1,0
24-May-2018 14:08:48,51,0.956375,0.10625,-0.02395,2.42171428571429,-0.675714285714286,0.253571428571429,401.06,0,0,0,0,0,0,0,0.959033333333333,-0.0962666666666667,0.167333333333333,-0.2772,-0.632,-0.312,0.022,-0.925314285714286,-0.2011,0.104128571428571,-0.731833333333333,0.315,0.437333333333333,419.14575,1,1,1,0
24-May-2018 14:08:48,51,0.956375,0.10625,-0.02395,2.42171428571429,-0.675714285714286,0.253571428571429,401.06,0,0,0,0,0,0,0,0.959033333333333,-0.0962666666666667,0.167333333333333,-0.2772,-0.632,-0.312,0.022,-0.925314285714286,-0.2011,0.104128571428571,-0.731833333333333,0.315,0.437333333333333,419.14575,1,1,1,0
24-May-2018 14:08:48,51,0.956375,0.10625,-0.02395,2.42171428571429,-0.675714285714286,0.253571428571429,401.06,0,0,0,0,0,0,0,0.959033333333333,-0.0962666666666667,0.167333333333333,-0.2772,-0.632,-0.312,0.022,-0.925314285714286,-0.2011,0.104128571428571,-0.731833333333333,0.315,0.437333333333333,419.14575,1,1,1,0
24-May-2018 14:08:48,51,0.956375,0.10625,-0.02395,2.42171428571429,-0.675714285714286,0.253571428571429,401.06,0,0,0,0,0,0,0,0.959033333333333,-0.0962666666666667,0.167333333333333,-0.2772,-0.632,-0.312,0.022,-0.925314285714286,-0.2011,0.104128571428571,-0.731833333333333,0.315,0.437333333333333,419.14575,1,1,1,0
24-May-2018 14:08:49,51.2222222222222,0.956185714285714,0.102085714285714,-0.0413,1.57671428571429,-0.119571428571429,0.461857142857143,391.999666666667,0,0,0,0,0,0,0,0.957833333333333,-0.09175,0.183416666666667,0.326666666666667,0.164333333333333,-0.361666666666667,0.022,-0.92846,-0.20788,0.10154,2.01222222222222,1.294,-0.291333333333333,418.636,1,1,1,0
24-May-2018 14:08:49,51.2222222222222,0.956185714285714,0.102085714285714,-0.0413,1.57671428571429,-0.119571428571429,0.461857142857143,391.999666666667,0,0,0,0,0,0,0,0.957833333333333,-0.09175,0.183416666666667,0.326666666666667,0.164333333333333,-0.361666666666667,0.022,-0.92846,-0.20788,0.10154,2.01222222222222,1.294,-0.291333333333333,418.636,1,1,1,0
24-May-2018 14:08:49,51.2222222222222,0.956185714285714,0.102085714285714,-0.0413,1.57671428571429,-0.119571428571429,0.461857142857143,391.999666666667,0,0,0,0,0,0,0,0.957833333333333,-0.09175,0.183416666666667,0.326666666666667,0.164333333333333,-0.361666666666667,0.022,-0.92846,-0.20788,0.10154,2.01222222222222,1.294,-0.291333333333333,418.636,1,1,1,0
24-May-2018 14:08:49,51.2222222222222,0.956185714285714,0.102085714285714,-0.0413,1.57671428571429,-0.119571428571429,0.461857142857143,391.999666666667,0,0,0,0,0,0,0,0.957833333333333,-0.09175,0.183416666666667,0.326666666666667,0.164333333333333,-0.361666666666667,0.022,-0.92846,-0.20788,0.10154,2.01222222222222,1.294,-0.291333333333333,418.636,1,1,1,0
24-May-2018 14:08:50,51.1111111111111,0.957028571428571,0.1025,-0.0308428571428571,2.124,0.772666666666667,-0.201666666666667,387.208,0,0,0,0,0,0,0,0.956257142857143,-0.0832428571428571,0.190842857142857,-3.007,0.0162,-2.434,0.022,-0.926971428571428,-0.196142857142857,0.0991571428571429,-0.650333333333333,0.426833333333333,-0.2645,418.056333333333,1,0,1,0
24-May-2018 14:08:50,51.1111111111111,0.957028571428571,0.1025,-0.0308428571428571,2.124,0.772666666666667,-0.201666666666667,387.208,0,0,0,0,0,0,0,0.956257142857143,-0.0832428571428571,0.190842857142857,-3.007,0.0162,-2.434,0.022,-0.926971428571428,-0.196142857142857,0.0991571428571429,-0.650333333333333,0.426833333333333,-0.2645,418.056333333333,1,0,1,0
24-May-2018 14:08:50,51.1111111111111,0.957028571428571,0.1025,-0.0308428571428571,2.124,0.772666666666667,-0.201666666666667,387.208,0,0,0,0,0,0,0,0.956257142857143,-0.0832428571428571,0.190842857142857,-3.007,0.0162,-2.434,0.022,-0.926971428571428,-0.196142857142857,0.0991571428571429,-0.650333333333333,0.426833333333333,-0.2645,418.056333333333,1,0,1,0
24-May-2018 14:08:50,51.1111111111111,0.957028571428571,0.1025,-0.0308428571428571,2.124,0.772666666666667,-0.201666666666667,387.208,0,0,0,0,0,0,0,0.956257142857143,-0.0832428571428571,0.190842857142857,-3.007,0.0162,-2.434,0.022,-0.926971428571428,-0.196142857142857,0.0991571428571429,-0.650333333333333,0.426833333333333,-0.2645,418.056333333333,1,0,1,0
24-May-2018 14:08:51,51.1,0.955885714285714,0.103542857142857,-0.038,0.140625,-0.424125,0.4575,389.367,0,0,0,0,0,0,0,0.9529,-0.0276375,0.2447375,-0.505333333333333,2.36783333333333,0.388333333333333,0.022,-0.929866666666667,-0.196516666666667,0.0989833333333333,-0.596,-0.0609999999999999,0.542,418.226,1,0,1,1
24-May-2018 14:08:51,51.1,0.955885714285714,0.103542857142857,-0.038,0.140625,-0.424125,0.4575,389.367,0,0,0,0,0,0,0,0.9529,-0.0276375,0.2447375,-0.505333333333333,2.36783333333333,0.388333333333333,0.022,-0.929866666666667,-0.196516666666667,0.0989833333333333,-0.596,-0.0609999999999999,0.542,418.226,1,0,1,1
24-May-2018 14:08:51,51.1,0.955885714285714,0.103542857142857,-0.038,0.140625,-0.424125,0.4575,389.367,0,0,0,0,0,0,0,0.9529,-0.0276375,0.2447375,-0.505333333333333,2.36783333333333,0.388333333333333,0.022,-0.929866666666667,-0.196516666666667,0.0989833333333333,-0.596,-0.0609999999999999,0.542,418.226,1,0,1,1
24-May-2018 14:08:51,51.1,0.955885714285714,0.103542857142857,-0.038,0.140625,-0.424125,0.4575,389.367,0,0,0,0,0,0,0,0.9529,-0.0276375,0.2447375,-0.505333333333333,2.36783333333333,0.388333333333333,0.022,-0.929866666666667,-0.196516666666667,0.0989833333333333,-0.596,-0.0609999999999999,0.542,418.226,1,0,1,1
24-May-2018 14:08:52,51,0.955388888888889,0.100777777777778,-0.0443444444444444,1.61911111111111,-0.267555555555555,0.61,389.367,0,0,0,0,0,0,0,0.964171428571429,-0.0906857142857143,0.208285714285714,1.76857142857143,4.019,5.08842857142857,0.022,-0.932175,-0.1801,0.12485,15.83825,2.69825,-0.89925,419.4285,1,0,1,1
24-May-2018 14:08:52,51,0.955388888888889,0.100777777777778,-0.0443444444444444,1.61911111111111,-0.267555555555555,0.61,389.367,0,0,0,0,0,0,0,0.964171428571429,-0.0906857142857143,0.208285714285714,1.76857142857143,4.019,5.08842857142857,0.022,-0.932175,-0.1801,0.12485,15.83825,2.69825,-0.89925,419.4285,1,0,1,1
24-May-2018 14:08:52,51,0.955388888888889,0.100777777777778,-0.0443444444444444,1.61911111111111,-0.267555555555555,0.61,389.367,0,0,0,0,0,0,0,0.964171428571429,-0.0906857142857143,0.208285714285714,1.76857142857143,4.019,5.08842857142857,0.022,-0.932175,-0.1801,0.12485,15.83825,2.69825,-0.89925,419.4285,1,0,1,1
24-May-2018 14:08:52,51,0.955388888888889,0.100777777777778,-0.0443444444444444,1.61911111111111,-0.267555555555555,0.61,389.367,0,0,0,0,0,0,0,0.964171428571429,-0.0906857142857143,0.208285714285714,1.76857142857143,4.019,5.08842857142857,0.022,-0.932175,-0.1801,0.12485,15.83825,2.69825,-0.89925,419.4285,1,0,1,1
24-May-2018 14:08:53,51.1,0.95471,0.09828,-0.05326,2.12044444444444,0.172222222222222,0.975666666666667,389.367,0,0,0,0,0,0,0,0.9542,-0.168966666666667,0.160016666666667,-7.56857142857143,1.56242857142857,0.705857142857143,0.022,-0.933,-0.14634,0.1464,13.3841666666667,-9.99983333333333,-5.23366666666667,437.605,1,0,1,1
24-May-2018 14:08:53,51.1,0.95471,0.09828,-0.05326,2.12044444444444,0.172222222222222,0.975666666666667,389.367,0,0,0,0,0,0,0,0.9542,-0.168966666666667,0.160016666666667,-7.56857142857143,1.56242857142857,0.705857142857143,0.022,-0.933,-0.14634,0.1464,13.3841666666667,-9.99983333333333,-5.23366666666667,437.605,1,0,1,1
24-May-2018 14:08:53,51.1,0.95471,0.09828,-0.05326,2.12044444444444,0.172222222222222,0.975666666666667,0,0,0,0,0,0,0,0,0.9542,-0.168966666666667,0.160016666666667,-7.56857142857143,1.56242857142857,0.705857142857143,0.022,-0.933,-0.14634,0.1464,13.3841666666667,-9.99983333333333,-5.23366666666667,437.605,1,0,1,1
24-May-2018 14:08:53,51.1,0.95471,0.09828,-0.05326,2.12044444444444,0.172222222222222,0.975666666666667,0,0,0,0,0,0,0,0,0.9542,-0.168966666666667,0.160016666666667,-7.56857142857143,1.56242857142857,0.705857142857143,0.022,-0.933,-0.14634,0.1464,13.3841666666667,-9.99983333333333,-5.23366666666667,437.605,1,0,1,1
24-May-2018 14:08:54,51.25,0.954733333333333,0.0640166666666667,-0.0614,-8.25166666666667,-1.73483333333333,1.994,380.42,0,0,0,0,0,0,0,0.955316666666667,-0.185116666666667,0.14785,0.697,0.0510000000000001,1.2816,0.022,-0.684283333333333,-0.3176,0.614466666666667,25.9553333333333,-25.8841666666667,-23.2723333333333,635.547,1,0,1,1
24-May-2018 14:08:54,51.25,0.954733333333333,0.0640166666666667,-0.0614,-8.25166666666667,-1.73483333333333,1.994,380.42,0,0,0,0,0,0,0,0.955316666666667,-0.185116666666667,0.14785,0.697,0.0510000000000001,1.2816,0.022,-0.684283333333333,-0.3176,0.614466666666667,25.9553333333333,-25.8841666666667,-23.2723333333333,635.547,1,0,1,1
24-May-2018 14:08:54,51.25,0.954733333333333,0.0640166666666667,-0.0614,-8.25166666666667,-1.73483333333333,1.994,380.42,0,0,0,0,0,0,0,0.955316666666667,-0.185116666666667,0.14785,0.697,0.0510000000000001,1.2816,0.022,-0.684283333333333,-0.3176,0.614466666666667,25.9553333333333,-25.8841666666667,-23.2723333333333,635.547,1,0,1,1
24-May-2018 14:08:54,51.25,0.954733333333333,0.0640166666666667,-0.0614,-8.25166666666667,-1.73483333333333,1.994,380.42,0,0,0,0,0,0,0,0.955316666666667,-0.185116666666667,0.14785,0.697,0.0510000000000001,1.2816,0.022,-0.684283333333333,-0.3176,0.614466666666667,25.9553333333333,-25.8841666666667,-23.2723333333333,635.547,1,0,1,1
24-May-2018 14:08:55,51.375,0.974757142857143,0.0710714285714286,-0.0996428571428571,-7.3984,-1.3752,1.8916,358.323142857143,0,0,0,0,0,0,0,0.937057142857143,-0.228242857142857,0.161185714285714,-4.093,-2.242,1.5008,0.022,-0.3369,-0.2287,0.91882,7.43042857142857,-6.29785714285714,-15.6534285714286,706.9806,1,0,1,1
24-May-2018 14:08:55,51.375,0.974757142857143,0.0710714285714286,-0.0996428571428571,-7.3984,-1.3752,1.8916,358.323142857143,0,0,0,0,0,0,0,0.937057142857143,-0.228242857142857,0.161185714285714,-4.093,-2.242,1.5008,0.022,-0.3369,-0.2287,0.91882,7.43042857142857,-6.29785714285714,-15.6534285714286,706.9806,1,0,1,1
24-May-2018 14:08:55,51.375,0.974757142857143,0.0710714285714286,-0.0996428571428571,-7.3984,-1.3752,1.8916,358.323142857143,0,0,0,0,0,0,0,0.937057142857143,-0.228242857142857,0.161185714285714,-4.093,-2.242,1.5008,0.022,-0.3369,-0.2287,0.91882,7.43042857142857,-6.29785714285714,-15.6534285714286,706.9806,1,0,1,1
24-May-2018 14:08:55,51.375,0.974757142857143,0.0710714285714286,-0.0996428571428571,-7.3984,-1.3752,1.8916,358.323142857143,0,0,0,0,0,0,0,0.937057142857143,-0.228242857142857,0.161185714285714,-4.093,-2.242,1.5008,0.022,-0.3369,-0.2287,0.91882,7.43042857142857,-6.29785714285714,-15.6534285714286,706.9806,1,0,1,1
24-May-2018 14:08:56,51.4,0.94885,0.207775,-0.19145,0.320857142857142,-4.86442857142857,-4.15385714285714,276.5115,0,0,0,0,0,0,0,0.931683333333333,-0.236383333333333,0.1392,0.994285714285714,-0.659428571428571,-0.0582857142857143,0.022,-0.291525,-0.3116625,0.805875,-56.9185,10.01525,20.77725,739.988166666667,1,0,1,1
24-May-2018 14:08:56,51.4,0.94885,0.207775,-0.19145,0.320857142857142,-4.86442857142857,-4.15385714285714,276.5115,0,0,0,0,0,0,0,0.931683333333333,-0.236383333333333,0.1392,0.994285714285714,-0.659428571428571,-0.0582857142857143,0.022,-0.291525,-0.3116625,0.805875,-56.9185,10.01525,20.77725,739.988166666667,1,0,1,1
24-May-2018 14:08:56,51.4,0.94885,0.207775,-0.19145,0.320857142857142,-4.86442857142857,-4.15385714285714,276.5115,0,0,0,0,0,0,0,0.931683333333333,-0.236383333333333,0.1392,0.994285714285714,-0.659428571428571,-0.0582857142857143,0.022,-0.291525,-0.3116625,0.805875,-56.9185,10.01525,20.77725,739.988166666667,1,0,1,1
24-May-2018 14:08:56,51.4,0.94885,0.207775,-0.19145,0.320857142857142,-4.86442857142857,-4.15385714285714,276.5115,0,0,0,0,0,0,0,0.931683333333333,-0.236383333333333,0.1392,0.994285714285714,-0.659428571428571,-0.0582857142857143,0.022,-0.291525,-0.3116625,0.805875,-56.9185,10.01525,20.77725,739.988166666667,1,0,1,1
24-May-2018 14:08:57,51.3,0.9149625,0.1966125,-0.21195,-1.3996,-1.544,0.2826,301.104666666667,0,0,0,0,0,0,0,0.933866666666667,-0.223016666666667,0.12945,-3.71333333333333,-1.93183333333333,-0.861833333333333,0.022,-0.0400666666666667,-0.824766666666667,0.5595,11.1965,2.484625,-10.90725,678.128666666667,1,0,1,1
24-May-2018 14:08:57,51.3,0.9149625,0.1966125,-0.21195,-1.3996,-1.544,0.2826,301.104666666667,0,0,0,0,0,0,0,0.933866666666667,-0.223016666666667,0.12945,-3.71333333333333,-1.93183333333333,-0.861833333333333,0.022,-0.0400666666666667,-0.824766666666667,0.5595,11.1965,2.484625,-10.90725,678.128666666667,1,0,1,1
24-May-2018 14:08:57,51.3,0.9149625,0.1966125,-0.21195,-1.3996,-1.544,0.2826,301.104666666667,0,0,0,0,0,0,0,0.933866666666667,-0.223016666666667,0.12945,-3.71333333333333,-1.93183333333333,-0.861833333333333,0.022,-0.0400666666666667,-0.824766666666667,0.5595,11.1965,2.484625,-10.90725,678.128666666667,1,0,1,1
24-May-2018 14:08:57,51.3,0.9149625,0.1966125,-0.21195,-1.3996,-1.544,0.2826,301.104666666667,0,0,0,0,0,0,0,0.933866666666667,-0.223016666666667,0.12945,-3.71333333333333,-1.93183333333333,-0.861833333333333,0.022,-0.0400666666666667,-0.824766666666667,0.5595,11.1965,2.484625,-10.90725,678.128666666667,1,0,1,1
