TIME,HELMET_RAW,BELT_ACC_X,BELT_ACC_Y,BELT_ACC_Z,BELT_ANG_X,BELT_ANG_Y,BELT_ANG_Z,BELT_LUMINOSITY,NECK_ACC_X,NECK_ACC_Y,NECK_ACC_Z,NECK_ANG_X,NECK_ANG_Y,NECK_ANG_Z,NECK_LUMINOSITY,PCKT_ACC_X,PCKT_ACC_Y,PCKT_ACC_Z,PCKT_ANG_X,PCKT_ANG_Y,PCKT_ANG_Z,PCKT_LUMINOSITY,WRST_ACC_X,WRST_ACC_Y,WRST_ACC_Z,WRST_ANG_X,WRST_ANG_Y,WRST_ANG_Z,WRST_LUMINOSITY,IR_1,IR_2,IR_3,IR_4
24-May-2018 14:10:13,94.6,0.944083333333333,0.153466666666667,-0.106416666666667,11.5037777777778,9.40633333333333,7.34844444444445,307.797,0,0,0,0,0,0,0,0.958257142857143,-0.0849857142857143,0.182114285714286,-4.10828571428571,-1.145,-0.972857142857143,0.0696,-0.923285714285714,-0.262028571428571,0.0315571428571429,-43.1621428571429,-15.784,1.141,397.6645,1,1,1,1
24-May-2018 14:10:13,94.6,0.944083333333333,0.153466666666667,-0.106416666666667,11.5037777777778,9.40633333333333,7.34844444444445,307.797,0,0,0,0,0,0,0,0.958257142857143,-0.0849857142857143,0.182114285714286,-4.10828571428571,-1.145,-0.972857142857143,0.0696,-0.923285714285714,-0.262028571428571,0.0315571428571429,-43.1621428571429,-15.784,1.141,397.6645,1,1,1,1
24-May-2018 14:10:13,94.6,0.944083333333333,0.153466666666667,-0.106416666666667,11.5037777777778,9.40633333333333,7.34844444444445,307.797,0,0,0,0,0,0,0,0.958257142857143,-0.0849857142857143,0.182114285714286,-4.10828571428571,-1.145,-0.972857142857143,0.0696,-0.923285714285714,-0.262028571428571,0.0315571428571429,-43.1621428571429,-15.784,1.141,397.6645,1,1,1,1
24-May-2018 14:10:13,94.6,0.944083333333333,0.153466666666667,-0.106416666666667,11.5037777777778,9.40633333333333,7.34844444444445,307.797,0,0,0,0,0,0,0,0.958257142857143,-0.0849857142857143,0.182114285714286,-4.10828571428571,-1.145,-0.972857142857143,0.0696,-0.923285714285714,-0.262028571428571,0.0315571428571429,-43.1621428571429,-15.784,1.141,397.6645,1,1,1,1
24-May-2018 14:10:14,172.4,0.947066666666667,0.121366666666667,-0.0119333333333333,9.55383333333333,4.81783333333333,-0.630833333333333,378.57375,0,0,0,0,0,0,0,0.958,-0.086525,0.191475,0.05,-0.5196,0.3172,0.0696,-0.91092,-0.2385,0.0534,-21.53975,-4.878,-3.384,433.370333333333,1,1,1,1
24-May-2018 14:10:14,172.4,0.947066666666667,0.121366666666667,-0.0119333333333333,9.55383333333333,4.81783333333333,-0.630833333333333,378.57375,0,0,0,0,0,0,0,0.958,-0.086525,0.191475,0.05,-0.5196,0.3172,0.0696,-0.91092,-0.2385,0.0534,-21.53975,-4.878,-3.384,433.370333333333,1,1,1,1
24-May-2018 14:10:14,172.4,0.947066666666667,0.121366666666667,-0.0119333333333333,9.55383333333333,4.81783333333333,-0.630833333333333,378.57375,0,0,0,0,0,0,0,0.958,-0.086525,0.191475,0.05,-0.5196,0.3172,0.0696,-0.91092,-0.2385,0.0534,-21.53975,-4.878,-3.384,433.370333333333,1,1,1,1
24-May-2018 14:10:14,172.4,0.947066666666667,0.121366666666667,-0.0119333333333333,9.55383333333333,4.81783333333333,-0.630833333333333,378.57375,0,0,0,0,0,0,0,0.958,-0.086525,0.191475,0.05,-0.5196,0.3172,0.0696,-0.91092,-0.2385,0.0534,-21.53975,-4.878,-3.384,433.370333333333,1,1,1,1
24-May-2018 14:10:15,95.4,0.954171428571429,0.108585714285714,-0.0661714285714286,25.825,-1.12028571428571,1.01185714285714,378.118333333333,0,0,0,0,0,0,0,0.9584,-0.0937875,0.186825,3.3292,-2.24,-0.2394,0.087,-0.9212,-0.255714285714286,0.0395142857142857,-7.305,0.1588,0.4512,442.307666666667,1,1,1,1
24-May-2018 14:10:15,95.4,0.954171428571429,0.108585714285714,-0.0661714285714286,25.825,-1.12028571428571,1.01185714285714,378.118333333333,0,0,0,0,0,0,0,0.9584,-0.0937875,0.186825,3.3292,-2.24,-0.2394,0.087,-0.9212,-0.255714285714286,0.0395142857142857,-7.305,0.1588,0.4512,442.307666666667,1,1,1,1
24-May-2018 14:10:15,95.4,0.954171428571429,0.108585714285714,-0.0661714285714286,25.825,-1.12028571428571,1.01185714285714,378.118333333333,0,0,0,0,0,0,0,0.9584,-0.0937875,0.186825,3.3292,-2.24,-0.2394,0.087,-0.9212,-0.255714285714286,0.0395142857142857,-7.305,0.1588,0.4512,442.307666666667,1,1,1,1
24-May-2018 14:10:15,95.4,0.954171428571429,0.108585714285714,-0.0661714285714286,25.825,-1.12028571428571,1.01185714285714,378.118333333333,0,0,0,0,0,0,0,0.9584,-0.0937875,0.186825,3.3292,-2.24,-0.2394,0.087,-0.9212,-0.255714285714286,0.0395142857142857,-7.305,0.1588,0.4512,442.307666666667,1,1,1,1
24-May-2018 14:10:16,-81,0.946185714285714,0.0713857142857143,-0.122442857142857,25.4767142857143,-2.19142857142857,-3,312.00125,0,0,0,0,0,0,0,0.95638,-0.12122,0.16112,-62.7528333333333,-1.0635,-6.27233333333333,0.0464,-0.918366666666667,-0.253683333333333,0.03335,4.17666666666667,2.72333333333333,0.752,444.237,1,1,1,1
24-May-2018 14:10:16,-81,0.946185714285714,0.0713857142857143,-0.122442857142857,25.4767142857143,-2.19142857142857,-3,312.00125,0,0,0,0,0,0,0,0.95638,-0.12122,0.16112,-62.7528333333333,-1.0635,-6.27233333333333,0.0464,-0.918366666666667,-0.253683333333333,0.03335,4.17666666666667,2.72333333333333,0.752,444.237,1,1,1,1
24-May-2018 14:10:16,-81,0.946185714285714,0.0713857142857143,-0.122442857142857,25.4767142857143,-2.19142857142857,-3,312.00125,0,0,0,0,0,0,0,0.95638,-0.12122,0.16112,-62.7528333333333,-1.0635,-6.27233333333333,0.0464,-0.918366666666667,-0.253683333333333,0.03335,4.17666666666667,2.72333333333333,0.752,444.237,1,1,1,1
24-May-2018 14:10:16,-81,0.946185714285714,0.0713857142857143,-0.122442857142857,25.4767142857143,-2.19142857142857,-3,312.00125,0,0,0,0,0,0,0,0.95638,-0.12122,0.16112,-62.7528333333333,-1.0635,-6.27233333333333,0.0464,-0.918366666666667,-0.253683333333333,0.03335,4.17666666666667,2.72333333333333,0.752,444.237,1,1,1,1
24-May-2018 14:10:17,3.2,0.939133333333333,0.08575,-0.166133333333333,-1.80325,0.419875,0.915875,273.151666666667,0,0,0,0,0,0,0,0.97152,-0.02668,0.1681,18.1595714285714,4.494,1.61342857142857,0.0464,-0.918657142857143,-0.252771428571429,0.0351,-0.538666666666667,0.497833333333333,0.619833333333333,436.5625,1,1,1,1
24-May-2018 14:10:17,3.2,0.939133333333333,0.08575,-0.166133333333333,-1.80325,0.419875,0.915875,273.151666666667,0,0,0,0,0,0,0,0.97152,-0.02668,0.1681,18.1595714285714,4.494,1.61342857142857,0.0464,-0.918657142857143,-0.252771428571429,0.0351,-0.538666666666667,0.497833333333333,0.619833333333333,436.5625,1,1,1,1
24-May-2018 14:10:17,3.2,0.939133333333333,0.08575,-0.166133333333333,-1.80325,0.419875,0.915875,273.151666666667,0,0,0,0,0,0,0,0.97152,-0.02668,0.1681,18.1595714285714,4.494,1.61342857142857,0.0464,-0.918657142857143,-0.252771428571429,0.0351,-0.538666666666667,0.497833333333333,0.619833333333333,436.5625,1,1,1,1
24-May-2018 14:10:17,3.2,0.939133333333333,0.08575,-0.166133333333333,-1.80325,0.419875,0.915875,273.151666666667,0,0,0,0,0,0,0,0.97152,-0.02668,0.1681,18.1595714285714,4.494,1.61342857142857,0.0464,-0.918657142857143,-0.252771428571429,0.0351,-0.538666666666667,0.497833333333333,0.619833333333333,436.5625,1,1,1,1
24-May-2018 14:10:18,-108,0.944814285714285,0.0722142857142857,-0.144842857142857,-1.3265,0.275,0.7015,274.318,0,0,0,0,0,0,0,0.9553,-0.09202,0.20218,-3.79875,-2.1675,0.4275,0.0464,-0.91794,-0.25036,0.04232,-6.39216666666667,-1.52433333333333,-0.0813333333333333,438.294,1,1,1,1
24-May-2018 14:10:18,-108,0.944814285714285,0.0722142857142857,-0.144842857142857,-1.3265,0.275,0.7015,274.318,0,0,0,0,0,0,0,0.9553,-0.09202,0.20218,-3.79875,-2.1675,0.4275,0.0464,-0.91794,-0.25036,0.04232,-6.39216666666667,-1.52433333333333,-0.0813333333333333,438.294,1,1,1,1
24-May-2018 14:10:18,-108,0.944814285714285,0.0722142857142857,-0.144842857142857,-1.3265,0.275,0.7015,274.318,0,0,0,0,0,0,0,0.9553,-0.09202,0.20218,-3.79875,-2.1675,0.4275,0.0464,-0.91794,-0.25036,0.04232,-6.39216666666667,-1.52433333333333,-0.0813333333333333,438.294,1,1,1,1
24-May-2018 14:10:18,-108,0.944814285714285,0.0722142857142857,-0.144842857142857,-1.3265,0.275,0.7015,274.318,0,0,0,0,0,0,0,0.9553,-0.09202,0.20218,-3.79875,-2.1675,0.4275,0.0464,-0.91794,-0.25036,0.04232,-6.39216666666667,-1.52433333333333,-0.0813333333333333,438.294,1,1,1,1
24-May-2018 14:10:19,-120.888888888889,0.9421625,0.0762625,-0.1542,1.65977777777778,-0.273888888888889,-0.127111111111111,274.318,0,0,0,0,0,0,0,0.955366666666667,-0.08265,0.204716666666667,0.474375,-0.5455,-0.09575,0.0464,-0.958266666666667,-0.29655,0.0313,61.8031428571429,-2.43914285714286,10.2092857142857,425.275,1,1,1,1
24-May-2018 14:10:19,-120.888888888889,0.9421625,0.0762625,-0.1542,1.65977777777778,-0.273888888888889,-0.127111111111111,274.318,0,0,0,0,0,0,0,0.955366666666667,-0.08265,0.204716666666667,0.474375,-0.5455,-0.09575,0.0464,-0.958266666666667,-0.29655,0.0313,61.8031428571429,-2.43914285714286,10.2092857142857,425.275,1,1,1,1
24-May-2018 14:10:19,-120.888888888889,0.9421625,0.0762625,-0.1542,1.65977777777778,-0.273888888888889,-0.127111111111111,274.318,0,0,0,0,0,0,0,0.955366666666667,-0.08265,0.204716666666667,0.474375,-0.5455,-0.09575,0.0464,-0.958266666666667,-0.29655,0.0313,61.8031428571429,-2.43914285714286,10.2092857142857,425.275,1,1,1,1
24-May-2018 14:10:19,-120.888888888889,0.9421625,0.0762625,-0.1542,1.65977777777778,-0.273888888888889,-0.127111111111111,274.318,0,0,0,0,0,0,0,0.955366666666667,-0.08265,0.204716666666667,0.474375,-0.5455,-0.09575,0.0464,-0.958266666666667,-0.29655,0.0313,61.8031428571429,-2.43914285714286,10.2092857142857,425.275,1,1,1,1
24-May-2018 14:10:20,-31,0.9433,0.07592,-0.1534,4.28866666666667,0.387166666666667,-0.210166666666667,274.318,0,0,0,0,0,0,0,0.95645,-0.0768166666666667,0.214083333333333,0.591333333333333,-0.352666666666667,0.0113333333333333,0.0464,-0.930266666666667,-0.191766666666667,0.0673666666666667,9.134,22.5,-5.5246,467.907,1,1,1,1
24-May-2018 14:10:20,-31,0.9433,0.07592,-0.1534,4.28866666666667,0.387166666666667,-0.210166666666667,274.318,0,0,0,0,0,0,0,0.95645,-0.0768166666666667,0.214083333333333,0.591333333333333,-0.352666666666667,0.0113333333333333,0.0464,-0.930266666666667,-0.191766666666667,0.0673666666666667,9.134,22.5,-5.5246,467.907,1,1,1,1
24-May-2018 14:10:20,-31,0.9433,0.07592,-0.1534,4.28866666666667,0.387166666666667,-0.210166666666667,0,0,0,0,0,0,0,0,0.95645,-0.0768166666666667,0.214083333333333,0.591333333333333,-0.352666666666667,0.0113333333333333,0.0464,-0.930266666666667,-0.191766666666667,0.0673666666666667,9.134,22.5,-5.5246,467.907,1,1,1,1
24-May-2018 14:10:20,-31,0.9433,0.07592,-0.1534,4.28866666666667,0.387166666666667,-0.210166666666667,0,0,0,0,0,0,0,0,0.95645,-0.0768166666666667,0.214083333333333,0.591333333333333,-0.352666666666667,0.0113333333333333,0.0464,-0.930266666666667,-0.191766666666667,0.0673666666666667,9.134,22.5,-5.5246,467.907,1,1,1,1
24-May-2018 14:10:21,20.4444444444444,0.946316666666667,0.0939833333333333,-0.13395,-65.6805,2.912,3.58225,275.783666666667,0,0,0,0,0,0,0,0.950616666666667,-0.0866666666666667,0.236233333333333,-0.745714285714286,-0.693,-0.0834285714285714,0.0464,-0.9167,-0.221,0.08066,0.284666666666666,2.15466666666667,-4.58333333333333,401.404,1,1,1,1
24-May-2018 14:10:21,20.4444444444444,0.946316666666667,0.0939833333333333,-0.13395,-65.6805,2.912,3.58225,275.783666666667,0,0,0,0,0,0,0,0.950616666666667,-0.0866666666666667,0.236233333333333,-0.745714285714286,-0.693,-0.0834285714285714,0.0464,-0.9167,-0.221,0.08066,0.284666666666666,2.15466666666667,-4.58333333333333,401.404,1,1,1,1
24-May-2018 14:10:21,20.4444444444444,0.946316666666667,0.0939833333333333,-0.13395,-65.6805,2.912,3.58225,275.783666666667,0,0,0,0,0,0,0,0.950616666666667,-0.0866666666666667,0.236233333333333,-0.745714285714286,-0.693,-0.0834285714285714,0.0464,-0.9167,-0.221,0.08066,0.284666666666666,2.15466666666667,-4.58333333333333,401.404,1,1,1,1
24-May-2018 14:10:21,20.4444444444444,0.946316666666667,0.0939833333333333,-0.13395,-65.6805,2.912,3.58225,275.783666666667,0,0,0,0,0,0,0,0.950616666666667,-0.0866666666666667,0.236233333333333,-0.745714285714286,-0.693,-0.0834285714285714,0.0464,-0.9167,-0.221,0.08066,0.284666666666666,2.15466666666667,-4.58333333333333,401.404,1,1,1,1
24-May-2018 14:10:22,53,0.9601,0.11258,-0.05426,-2.842,0.0614000000000004,0.745,340.743,0,0,0,0,0,0,0,0.953285714285714,-0.0911285714285714,0.222042857142857,-1.706,-1.53,-0.716666666666666,0.0464,-0.92348,-0.2312,0.0731,-0.609666666666667,-1.25,-1.2295,401.992,1,1,1,1
24-May-2018 14:10:22,53,0.9601,0.11258,-0.05426,-2.842,0.0614000000000004,0.745,340.743,0,0,0,0,0,0,0,0.953285714285714,-0.0911285714285714,0.222042857142857,-1.706,-1.53,-0.716666666666666,0.0464,-0.92348,-0.2312,0.0731,-0.609666666666667,-1.25,-1.2295,401.992,1,1,1,1
24-May-2018 14:10:22,53,0.9601,0.11258,-0.05426,-2.842,0.0614000000000004,0.745,340.743,0,0,0,0,0,0,0,0.953285714285714,-0.0911285714285714,0.222042857142857,-1.706,-1.53,-0.716666666666666,0.0464,-0.92348,-0.2312,0.0731,-0.609666666666667,-1.25,-1.2295,401.992,1,1,1,1
24-May-2018 14:10:22,53,0.9601,0.11258,-0.05426,-2.842,0.0614000000000004,0.745,340.743,0,0,0,0,0,0,0,0.953285714285714,-0.0911285714285714,0.222042857142857,-1.706,-1.53,-0.716666666666666,0.0464,-0.92348,-0.2312,0.0731,-0.609666666666667,-1.25,-1.2295,401.992,1,1,1,1
24-May-2018 14:10:23,-29.3,0.9543,0.127675,-0.06055,6.95266666666667,0.946166666666667,0.410166666666667,388.893,0,0,0,0,0,0,0,0.9561,-0.0783,0.2162,-0.712571428571429,-1.18857142857143,-0.405714285714286,0.0464,-0.9213,-0.22104,0.07244,-1.75816666666667,1.17866666666667,1.7275,407.9174,1,1,1,1
24-May-2018 14:10:23,-29.3,0.9543,0.127675,-0.06055,6.95266666666667,0.946166666666667,0.410166666666667,388.893,0,0,0,0,0,0,0,0.9561,-0.0783,0.2162,-0.712571428571429,-1.18857142857143,-0.405714285714286,0.0464,-0.9213,-0.22104,0.07244,-1.75816666666667,1.17866666666667,1.7275,407.9174,1,1,1,1
24-May-2018 14:10:23,-29.3,0.9543,0.127675,-0.06055,6.95266666666667,0.946166666666667,0.410166666666667,388.893,0,0,0,0,0,0,0,0.9561,-0.0783,0.2162,-0.712571428571429,-1.18857142857143,-0.405714285714286,0.0464,-0.9213,-0.22104,0.07244,-1.75816666666667,1.17866666666667,1.7275,407.9174,1,1,1,1
24-May-2018 14:10:23,-29.3,0.9543,0.127675,-0.06055,6.95266666666667,0.946166666666667,0.410166666666667,388.893,0,0,0,0,0,0,0,0.9561,-0.0783,0.2162,-0.712571428571429,-1.18857142857143,-0.405714285714286,0.0464,-0.9213,-0.22104,0.07244,-1.75816666666667,1.17866666666667,1.7275,407.9174,1,1,1,1
24-May-2018 14:10:24,-78.7,0.952133333333333,0.110533333333333,-0.0517,2.409,0.9455,0.0615,384.65,0,0,0,0,0,0,0,0.95745,-0.08715,0.20695,-0.69,-0.89,-0.506666666666667,0.0464,-0.922975,-0.22215,0.08645,-8.537,-2.683,2.378,407.276,1,1,1,1
24-May-2018 14:10:24,-78.7,0.952133333333333,0.110533333333333,-0.0517,2.409,0.9455,0.0615,384.65,0,0,0,0,0,0,0,0.95745,-0.08715,0.20695,-0.69,-0.89,-0.506666666666667,0.0464,-0.922975,-0.22215,0.08645,-8.537,-2.683,2.378,407.276,1,1,1,1
24-May-2018 14:10:24,-78.7,0.952133333333333,0.110533333333333,-0.0517,2.409,0.9455,0.0615,384.65,0,0,0,0,0,0,0,0.95745,-0.08715,0.20695,-0.69,-0.89,-0.506666666666667,0.0464,-0.922975,-0.22215,0.08645,-8.537,-2.683,2.378,407.276,1,1,1,1
24-May-2018 14:10:24,-78.7,0.952133333333333,0.110533333333333,-0.0517,2.409,0.9455,0.0615,384.65,0,0,0,0,0,0,0,0.95745,-0.08715,0.20695,-0.69,-0.89,-0.506666666666667,0.0464,-0.922975,-0.22215,0.08645,-8.537,-2.683,2.378,407.276,1,1,1,1
24-May-2018 14:10:25,-27.9,0.95385,0.118133333333333,-0.0557,8.063,-0.0595000000000001,0.474,379.319333333333,0,0,0,0,0,0,0,0.9566,-0.0794,0.207433333333333,-0.96975,-0.7275,-0.3,0.0464,-0.916633333333333,-0.2339,0.101633333333333,-9.116,-3.2165,-1.982,416.9645,1,1,1,1
24-May-2018 14:10:25,-27.9,0.95385,0.118133333333333,-0.0557,8.063,-0.0595000000000001,0.474,379.319333333333,0,0,0,0,0,0,0,0.9566,-0.0794,0.207433333333333,-0.96975,-0.7275,-0.3,0.0464,-0.916633333333333,-0.2339,0.101633333333333,-9.116,-3.2165,-1.982,416.9645,1,1,1,1
24-May-2018 14:10:25,-27.9,0.95385,0.118133333333333,-0.0557,8.063,-0.0595000000000001,0.474,379.319333333333,0,0,0,0,0,0,0,0.9566,-0.0794,0.207433333333333,-0.96975,-0.7275,-0.3,0.0464,-0.916633333333333,-0.2339,0.101633333333333,-9.116,-3.2165,-1.982,416.9645,1,1,1,1
24-May-2018 14:10:25,-27.9,0.95385,0.118133333333333,-0.0557,8.063,-0.0595000000000001,0.474,379.319333333333,0,0,0,0,0,0,0,0.9566,-0.0794,0.207433333333333,-0.96975,-0.7275,-0.3,0.0464,-0.916633333333333,-0.2339,0.101633333333333,-9.116,-3.2165,-1.982,416.9645,1,1,1,1
24-May-2018 14:10:26,-39.2,0.953433333333333,0.107416666666667,-0.0669333333333333,3.11971428571429,-0.537,0.557714285714286,367.716,0,0,0,0,0,0,0,0.957242857142857,-0.0789,0.212128571428571,-0.43075,-0.995,-0.028125,0.0464,-0.927283333333333,-0.223766666666667,0.0842,10.6218,5.6096,1.293,423.7935,1,1,1,1
24-May-2018 14:10:26,-39.2,0.953433333333333,0.107416666666667,-0.0669333333333333,3.11971428571429,-0.537,0.557714285714286,367.716,0,0,0,0,0,0,0,0.957242857142857,-0.0789,0.212128571428571,-0.43075,-0.995,-0.028125,0.0464,-0.927283333333333,-0.223766666666667,0.0842,10.6218,5.6096,1.293,423.7935,1,1,1,1
24-May-2018 14:10:26,-39.2,0.953433333333333,0.107416666666667,-0.0669333333333333,3.11971428571429,-0.537,0.557714285714286,367.716,0,0,0,0,0,0,0,0.957242857142857,-0.0789,0.212128571428571,-0.43075,-0.995,-0.028125,0.0464,-0.927283333333333,-0.223766666666667,0.0842,10.6218,5.6096,1.293,423.7935,1,1,1,1
24-May-2018 14:10:26,-39.2,0.953433333333333,0.107416666666667,-0.0669333333333333,3.11971428571429,-0.537,0.557714285714286,367.716,0,0,0,0,0,0,0,0.957242857142857,-0.0789,0.212128571428571,-0.43075,-0.995,-0.028125,0.0464,-0.927283333333333,-0.223766666666667,0.0842,10.6218,5.6096,1.293,423.7935,1,1,1,1
24-May-2018 14:10:27,-13,0.953571428571429,0.0979428571428571,-0.0868285714285714,3.56385714285714,-0.528428571428571,0.209571428571429,350.551666666667,0,0,0,0,0,0,0,0.9553,-0.0860833333333333,0.199683333333333,-1.51833333333333,-1.72333333333333,-0.758333333333333,0.0464,-0.926216666666667,-0.21115,0.08195,1.9024,-0.366,-3.1462,411.373,1,1,1,1
24-May-2018 14:10:27,-13,0.953571428571429,0.0979428571428571,-0.0868285714285714,3.56385714285714,-0.528428571428571,0.209571428571429,350.551666666667,0,0,0,0,0,0,0,0.9553,-0.0860833333333333,0.199683333333333,-1.51833333333333,-1.72333333333333,-0.758333333333333,0.0464,-0.926216666666667,-0.21115,0.08195,1.9024,-0.366,-3.1462,411.373,1,1,1,1
24-May-2018 14:10:27,-13,0.953571428571429,0.0979428571428571,-0.0868285714285714,3.56385714285714,-0.528428571428571,0.209571428571429,350.551666666667,0,0,0,0,0,0,0,0.9553,-0.0860833333333333,0.199683333333333,-1.51833333333333,-1.72333333333333,-0.758333333333333,0.0464,-0.926216666666667,-0.21115,0.08195,1.9024,-0.366,-3.1462,411.373,1,1,1,1
24-May-2018 14:10:27,-13,0.953571428571429,0.0979428571428571,-0.0868285714285714,3.56385714285714,-0.528428571428571,0.209571428571429,350.551666666667,0,0,0,0,0,0,0,0.9553,-0.0860833333333333,0.199683333333333,-1.51833333333333,-1.72333333333333,-0.758333333333333,0.0464,-0.926216666666667,-0.21115,0.08195,1.9024,-0.366,-3.1462,411.373,1,1,1,1
24-May-2018 14:10:28,-62.2,0.95275,0.102675,-0.074675,-1.91371428571429,1.04542857142857,0.531428571428571,344.343666666667,0,0,0,0,0,0,0,0.959066666666667,-0.0781833333333333,0.195483333333333,0.218428571428571,-0.391285714285714,-0.187142857142857,0.0464,-0.923942857142857,-0.219171428571429,0.0830142857142857,-0.7215,0.7825,0.304833333333333,409.6245,1,1,1,1
24-May-2018 14:10:28,-62.2,0.95275,0.102675,-0.074675,-1.91371428571429,1.04542857142857,0.531428571428571,344.343666666667,0,0,0,0,0,0,0,0.959066666666667,-0.0781833333333333,0.195483333333333,0.218428571428571,-0.391285714285714,-0.187142857142857,0.0464,-0.923942857142857,-0.219171428571429,0.0830142857142857,-0.7215,0.7825,0.304833333333333,409.6245,1,1,1,1
24-May-2018 14:10:28,-62.2,0.95275,0.102675,-0.074675,-1.91371428571429,1.04542857142857,0.531428571428571,344.343666666667,0,0,0,0,0,0,0,0.959066666666667,-0.0781833333333333,0.195483333333333,0.218428571428571,-0.391285714285714,-0.187142857142857,0.0464,-0.923942857142857,-0.219171428571429,0.0830142857142857,-0.7215,0.7825,0.304833333333333,409.6245,1,1,1,1
24-May-2018 14:10:28,-62.2,0.95275,0.102675,-0.074675,-1.91371428571429,1.04542857142857,0.531428571428571,344.343666666667,0,0,0,0,0,0,0,0.959066666666667,-0.0781833333333333,0.195483333333333,0.218428571428571,-0.391285714285714,-0.187142857142857,0.0464,-0.923942857142857,-0.219171428571429,0.0830142857142857,-0.7215,0.7825,0.304833333333333,409.6245,1,1,1,1
24-May-2018 14:10:29,51,0.95362,0.09622,-0.06712,1.341625,0.47325,0.526125,357.911333333333,0,0,0,0,0,0,0,0.9568,-0.08376,0.21054,-0.121166666666667,-0.758333333333333,-0.229666666666667,0.0464,-0.924416666666667,-0.22235,0.0806,1.25,1.19933333333333,-0.132166666666667,400.671,1,1,1,1
24-May-2018 14:10:29,51,0.95362,0.09622,-0.06712,1.341625,0.47325,0.526125,357.911333333333,0,0,0,0,0,0,0,0.9568,-0.08376,0.21054,-0.121166666666667,-0.758333333333333,-0.229666666666667,0.0464,-0.924416666666667,-0.22235,0.0806,1.25,1.19933333333333,-0.132166666666667,400.671,1,1,1,1
24-May-2018 14:10:29,51,0.95362,0.09622,-0.06712,1.341625,0.47325,0.526125,357.911333333333,0,0,0,0,0,0,0,0.9568,-0.08376,0.21054,-0.121166666666667,-0.758333333333333,-0.229666666666667,0.0464,-0.924416666666667,-0.22235,0.0806,1.25,1.19933333333333,-0.132166666666667,400.671,1,1,1,1
24-May-2018 14:10:29,51,0.95362,0.09622,-0.06712,1.341625,0.47325,0.526125,357.911333333333,0,0,0,0,0,0,0,0.9568,-0.08376,0.21054,-0.121166666666667,-0.758333333333333,-0.229666666666667,0.0464,-0.924416666666667,-0.22235,0.0806,1.25,1.19933333333333,-0.132166666666667,400.671,1,1,1,1
24-May-2018 14:10:30,-1.9,0.9535625,0.0959,-0.0606125,0.786888888888889,0.169666666666667,0.386333333333333,357.911333333333,0,0,0,0,0,0,0,0.9572625,-0.0791,0.21125,-0.546142857142857,-0.955714285714286,-0.388571428571429,0.0464,-0.92612,-0.22486,0.07862,4.79666666666667,2.683,-0.0508333333333333,392.64825,1,1,1,1
24-May-2018 14:10:30,-1.9,0.9535625,0.0959,-0.0606125,0.786888888888889,0.169666666666667,0.386333333333333,357.911333333333,0,0,0,0,0,0,0,0.9572625,-0.0791,0.21125,-0.546142857142857,-0.955714285714286,-0.388571428571429,0.0464,-0.92612,-0.22486,0.07862,4.79666666666667,2.683,-0.0508333333333333,392.64825,1,1,1,1
24-May-2018 14:10:30,-1.9,0.9535625,0.0959,-0.0606125,0.786888888888889,0.169666666666667,0.386333333333333,357.911333333333,0,0,0,0,0,0,0,0.9572625,-0.0791,0.21125,-0.546142857142857,-0.955714285714286,-0.388571428571429,0.0464,-0.92612,-0.22486,0.07862,4.79666666666667,2.683,-0.0508333333333333,392.64825,1,1,1,1
24-May-2018 14:10:30,-1.9,0.9535625,0.0959,-0.0606125,0.786888888888889,0.169666666666667,0.386333333333333,357.911333333333,0,0,0,0,0,0,0,0.9572625,-0.0791,0.21125,-0.546142857142857,-0.955714285714286,-0.388571428571429,0.0464,-0.92612,-0.22486,0.07862,4.79666666666667,2.683,-0.0508333333333333,392.64825,1,1,1,1
24-May-2018 14:10:31,44.1,0.9545875,0.0944125,-0.063575,0.557,0.084125,0.260125,357.911333333333,0,0,0,0,0,0,0,0.955416666666667,-0.0792333333333333,0.213616666666667,-0.481666666666667,-0.85,-0.34,0.0464,-0.9221,-0.218816666666667,0.0668333333333333,5.2316,2.8416,1.3902,385.6596,1,1,1,1
24-May-2018 14:10:31,44.1,0.9545875,0.0944125,-0.063575,0.557,0.084125,0.260125,357.911333333333,0,0,0,0,0,0,0,0.955416666666667,-0.0792333333333333,0.213616666666667,-0.481666666666667,-0.85,-0.34,0.0464,-0.9221,-0.218816666666667,0.0668333333333333,5.2316,2.8416,1.3902,385.6596,1,1,1,1
24-May-2018 14:10:31,44.1,0.9545875,0.0944125,-0.063575,0.557,0.084125,0.260125,0,0,0,0,0,0,0,0,0.955416666666667,-0.0792333333333333,0.213616666666667,-0.481666666666667,-0.85,-0.34,0.0464,-0.9221,-0.218816666666667,0.0668333333333333,5.2316,2.8416,1.3902,385.6596,1,1,1,1
24-May-2018 14:10:31,44.1,0.9545875,0.0944125,-0.063575,0.557,0.084125,0.260125,0,0,0,0,0,0,0,0,0.955416666666667,-0.0792333333333333,0.213616666666667,-0.481666666666667,-0.85,-0.34,0.0464,-0.9221,-0.218816666666667,0.0668333333333333,5.2316,2.8416,1.3902,385.6596,1,1,1,1
24-May-2018 14:10:32,12.4285714285714,0.95434,0.09892,-0.06328,-1.2778,1.184,0.525,359.464,0,0,0,0,0,0,0,0.95714,-0.07442,0.21414,0.5495,-0.697833333333333,0.0516666666666667,0.0464,-0.926825,-0.212925,0.073325,-1.25016666666667,-2.01216666666667,-1.00583333333333,387.5315,1,1,1,1
24-May-2018 14:10:32,12.4285714285714,0.95434,0.09892,-0.06328,-1.2778,1.184,0.525,359.464,0,0,0,0,0,0,0,0.95714,-0.07442,0.21414,0.5495,-0.697833333333333,0.0516666666666667,0.0464,-0.926825,-0.212925,0.073325,-1.25016666666667,-2.01216666666667,-1.00583333333333,387.5315,1,1,1,1
24-May-2018 14:10:32,12.4285714285714,0.95434,0.09892,-0.06328,-1.2778,1.184,0.525,359.464,0,0,0,0,0,0,0,0.95714,-0.07442,0.21414,0.5495,-0.697833333333333,0.0516666666666667,0.0464,-0.926825,-0.212925,0.073325,-1.25016666666667,-2.01216666666667,-1.00583333333333,387.5315,1,1,1,1
24-May-2018 14:10:32,12.4285714285714,0.95434,0.09892,-0.06328,-1.2778,1.184,0.525,359.464,0,0,0,0,0,0,0,0.95714,-0.07442,0.21414,0.5495,-0.697833333333333,0.0516666666666667,0.0464,-0.926825,-0.212925,0.073325,-1.25016666666667,-2.01216666666667,-1.00583333333333,387.5315,1,1,1,1
24-May-2018 14:10:33,32.1111111111111,0.95418,0.0983,-0.05222,1.6724,-0.6672,0.281,368.12475,0,0,0,0,0,0,0,0.955925,-0.078275,0.2171875,-0.8378,-1.18,-0.2158,0.0464,-0.926057142857143,-0.215257142857143,0.0773571428571429,-0.784142857142857,-0.601142857142857,-0.444285714285714,400.698666666667,1,1,1,1
24-May-2018 14:10:33,32.1111111111111,0.95418,0.0983,-0.05222,1.6724,-0.6672,0.281,368.12475,0,0,0,0,0,0,0,0.955925,-0.078275,0.2171875,-0.8378,-1.18,-0.2158,0.0464,-0.926057142857143,-0.215257142857143,0.0773571428571429,-0.784142857142857,-0.601142857142857,-0.444285714285714,400.698666666667,1,1,1,1
24-May-2018 14:10:33,32.1111111111111,0.95418,0.0983,-0.05222,1.6724,-0.6672,0.281,368.12475,0,0,0,0,0,0,0,0.955925,-0.078275,0.2171875,-0.8378,-1.18,-0.2158,0.0464,-0.926057142857143,-0.215257142857143,0.0773571428571429,-0.784142857142857,-0.601142857142857,-0.444285714285714,400.698666666667,1,1,1,1
24-May-2018 14:10:33,32.1111111111111,0.95418,0.0983,-0.05222,1.6724,-0.6672,0.281,368.12475,0,0,0,0,0,0,0,0.955925,-0.078275,0.2171875,-0.8378,-1.18,-0.2158,0.0464,-0.926057142857143,-0.215257142857143,0.0773571428571429,-0.784142857142857,-0.601142857142857,-0.444285714285714,400.698666666667,1,1,1,1
24-May-2018 14:10:34,61.8888888888889,0.95378,0.09886,-0.07012,3.242,-0.585,0.276,364.758833333333,0,0,0,0,0,0,0,0.9562,-0.081,0.214666666666667,-0.492857142857143,-0.978571428571428,-0.222857142857143,0.0464,-0.927066666666667,-0.215216666666667,0.0836666666666667,-0.984428571428571,-0.409428571428572,-0.122,401.33675,1,1,1,1
24-May-2018 14:10:34,61.8888888888889,0.95378,0.09886,-0.07012,3.242,-0.585,0.276,364.758833333333,0,0,0,0,0,0,0,0.9562,-0.081,0.214666666666667,-0.492857142857143,-0.978571428571428,-0.222857142857143,0.0464,-0.927066666666667,-0.215216666666667,0.0836666666666667,-0.984428571428571,-0.409428571428572,-0.122,401.33675,1,1,1,1
24-May-2018 14:10:34,61.8888888888889,0.95378,0.09886,-0.07012,3.242,-0.585,0.276,364.758833333333,0,0,0,0,0,0,0,0.9562,-0.081,0.214666666666667,-0.492857142857143,-0.978571428571428,-0.222857142857143,0.0464,-0.927066666666667,-0.215216666666667,0.0836666666666667,-0.984428571428571,-0.409428571428572,-0.122,401.33675,1,1,1,1
24-May-2018 14:10:34,61.8888888888889,0.95378,0.09886,-0.07012,3.242,-0.585,0.276,364.758833333333,0,0,0,0,0,0,0,0.9562,-0.081,0.214666666666667,-0.492857142857143,-0.978571428571428,-0.222857142857143,0.0464,-0.927066666666667,-0.215216666666667,0.0836666666666667,-0.984428571428571,-0.409428571428572,-0.122,401.33675,1,1,1,1
24-May-2018 14:10:35,74.6666666666667,0.954616666666667,0.0900333333333333,-0.06725,1.48942857142857,0.305,0.427,358.332,0,0,0,0,0,0,0,0.956683333333333,-0.0774666666666667,0.2114,-1.39866666666667,-1.195,-0.555,0.0464,-0.925528571428572,-0.220057142857143,0.0898571428571429,-2.30683333333333,-0.2235,-0.396333333333333,406.725333333333,1,1,1,1
24-May-2018 14:10:35,74.6666666666667,0.954616666666667,0.0900333333333333,-0.06725,1.48942857142857,0.305,0.427,358.332,0,0,0,0,0,0,0,0.956683333333333,-0.0774666666666667,0.2114,-1.39866666666667,-1.195,-0.555,0.0464,-0.925528571428572,-0.220057142857143,0.0898571428571429,-2.30683333333333,-0.2235,-0.396333333333333,406.725333333333,1,1,1,1
24-May-2018 14:10:35,74.6666666666667,0.954616666666667,0.0900333333333333,-0.06725,1.48942857142857,0.305,0.427,358.332,0,0,0,0,0,0,0,0.956683333333333,-0.0774666666666667,0.2114,-1.39866666666667,-1.195,-0.555,0.0464,-0.925528571428572,-0.220057142857143,0.0898571428571429,-2.30683333333333,-0.2235,-0.396333333333333,406.725333333333,1,1,1,1
24-May-2018 14:10:35,74.6666666666667,0.954616666666667,0.0900333333333333,-0.06725,1.48942857142857,0.305,0.427,358.332,0,0,0,0,0,0,0,0.956683333333333,-0.0774666666666667,0.2114,-1.39866666666667,-1.195,-0.555,0.0464,-0.925528571428572,-0.220057142857143,0.0898571428571429,-2.30683333333333,-0.2235,-0.396333333333333,406.725333333333,1,1,1,1
24-May-2018 14:10:36,36.5714285714286,0.954057142857143,0.0894,-0.0637142857142857,1.80314285714286,0.287571428571429,0.374714285714286,359.225,0,0,0,0,0,0,0,0.956242857142857,-0.0786428571428571,0.205342857142857,-0.9012,-0.7278,-0.0832,0.0464,-0.922525,-0.225,0.09005,-2.5915,0.254,0.061,408.43,1,1,1,1
24-May-2018 14:10:36,36.5714285714286,0.954057142857143,0.0894,-0.0637142857142857,1.80314285714286,0.287571428571429,0.374714285714286,359.225,0,0,0,0,0,0,0,0.956242857142857,-0.0786428571428571,0.205342857142857,-0.9012,-0.7278,-0.0832,0.0464,-0.922525,-0.225,0.09005,-2.5915,0.254,0.061,408.43,1,1,1,1
24-May-2018 14:10:36,36.5714285714286,0.954057142857143,0.0894,-0.0637142857142857,1.80314285714286,0.287571428571429,0.374714285714286,359.225,0,0,0,0,0,0,0,0.956242857142857,-0.0786428571428571,0.205342857142857,-0.9012,-0.7278,-0.0832,0.0464,-0.922525,-0.225,0.09005,-2.5915,0.254,0.061,408.43,1,1,1,1
24-May-2018 14:10:36,36.5714285714286,0.954057142857143,0.0894,-0.0637142857142857,1.80314285714286,0.287571428571429,0.374714285714286,359.225,0,0,0,0,0,0,0,0.956242857142857,-0.0786428571428571,0.205342857142857,-0.9012,-0.7278,-0.0832,0.0464,-0.922525,-0.225,0.09005,-2.5915,0.254,0.061,408.43,1,1,1,1
24-May-2018 14:10:37,43.3333333333333,0.95525,0.0865333333333333,-0.0614833333333333,1.32414285714286,0.0878571428571429,0.409571428571429,357.4565,0,0,0,0,0,0,0,0.956225,-0.0783125,0.21625,0.6098,-0.0712,-0.3512,0.0464,-0.92252,-0.22728,0.08528,2.16466666666667,0.802833333333333,-0.2235,410.2825,1,1,1,1
24-May-2018 14:10:37,43.3333333333333,0.95525,0.0865333333333333,-0.0614833333333333,1.32414285714286,0.0878571428571429,0.409571428571429,357.4565,0,0,0,0,0,0,0,0.956225,-0.0783125,0.21625,0.6098,-0.0712,-0.3512,0.0464,-0.92252,-0.22728,0.08528,2.16466666666667,0.802833333333333,-0.2235,410.2825,1,1,1,1
24-May-2018 14:10:37,43.3333333333333,0.95525,0.0865333333333333,-0.0614833333333333,1.32414285714286,0.0878571428571429,0.409571428571429,357.4565,0,0,0,0,0,0,0,0.956225,-0.0783125,0.21625,0.6098,-0.0712,-0.3512,0.0464,-0.92252,-0.22728,0.08528,2.16466666666667,0.802833333333333,-0.2235,410.2825,1,1,1,1
24-May-2018 14:10:37,43.3333333333333,0.95525,0.0865333333333333,-0.0614833333333333,1.32414285714286,0.0878571428571429,0.409571428571429,357.4565,0,0,0,0,0,0,0,0.956225,-0.0783125,0.21625,0.6098,-0.0712,-0.3512,0.0464,-0.92252,-0.22728,0.08528,2.16466666666667,0.802833333333333,-0.2235,410.2825,1,1,1,1
24-May-2018 14:10:38,42.9,0.954566666666667,0.0848833333333333,-0.065,0.793875,0.07725,0.25925,352.771,0,0,0,0,0,0,0,0.956857142857143,-0.0763428571428571,0.214314285714286,-0.753142857142857,-1.34,-0.291428571428571,0.0464,-0.922871428571428,-0.225971428571429,0.0864571428571429,3.13016666666667,0.975833333333333,0.142166666666667,408.4822,1,1,1,1
24-May-2018 14:10:38,42.9,0.954566666666667,0.0848833333333333,-0.065,0.793875,0.07725,0.25925,352.771,0,0,0,0,0,0,0,0.956857142857143,-0.0763428571428571,0.214314285714286,-0.753142857142857,-1.34,-0.291428571428571,0.0464,-0.922871428571428,-0.225971428571429,0.0864571428571429,3.13016666666667,0.975833333333333,0.142166666666667,408.4822,1,1,1,1
24-May-2018 14:10:38,42.9,0.954566666666667,0.0848833333333333,-0.065,0.793875,0.07725,0.25925,352.771,0,0,0,0,0,0,0,0.956857142857143,-0.0763428571428571,0.214314285714286,-0.753142857142857,-1.34,-0.291428571428571,0.0464,-0.922871428571428,-0.225971428571429,0.0864571428571429,3.13016666666667,0.975833333333333,0.142166666666667,408.4822,1,1,1,1
24-May-2018 14:10:38,42.9,0.954566666666667,0.0848833333333333,-0.065,0.793875,0.07725,0.25925,352.771,0,0,0,0,0,0,0,0.956857142857143,-0.0763428571428571,0.214314285714286,-0.753142857142857,-1.34,-0.291428571428571,0.0464,-0.922871428571428,-0.225971428571429,0.0864571428571429,3.13016666666667,0.975833333333333,0.142166666666667,408.4822,1,1,1,1
24-May-2018 14:10:39,159.444444444444,0.955042857142857,0.0886857142857143,-0.0649571428571429,0.681166666666667,0.162666666666667,0.325333333333333,353.725333333333,0,0,0,0,0,0,0,0.95712,-0.06958,0.2083,-0.275,-0.92,-0.387142857142857,0.0464,-0.927785714285714,-0.215671428571429,0.0866285714285714,1.96,0.479,0.217857142857143,408.822333333333,1,1,1,1
24-May-2018 14:10:39,159.444444444444,0.955042857142857,0.0886857142857143,-0.0649571428571429,0.681166666666667,0.162666666666667,0.325333333333333,353.725333333333,0,0,0,0,0,0,0,0.95712,-0.06958,0.2083,-0.275,-0.92,-0.387142857142857,0.0464,-0.927785714285714,-0.215671428571429,0.0866285714285714,1.96,0.479,0.217857142857143,408.822333333333,1,1,1,1
24-May-2018 14:10:39,159.444444444444,0.955042857142857,0.0886857142857143,-0.0649571428571429,0.681166666666667,0.162666666666667,0.325333333333333,353.725333333333,0,0,0,0,0,0,0,0.95712,-0.06958,0.2083,-0.275,-0.92,-0.387142857142857,0.0464,-0.927785714285714,-0.215671428571429,0.0866285714285714,1.96,0.479,0.217857142857143,408.822333333333,1,1,1,1
24-May-2018 14:10:39,159.444444444444,0.955042857142857,0.0886857142857143,-0.0649571428571429,0.681166666666667,0.162666666666667,0.325333333333333,353.725333333333,0,0,0,0,0,0,0,0.95712,-0.06958,0.2083,-0.275,-0.92,-0.387142857142857,0.0464,-0.927785714285714,-0.215671428571429,0.0866285714285714,1.96,0.479,0.217857142857143,408.822333333333,1,1,1,1
24-May-2018 14:10:40,4.77777777777778,0.955014285714286,0.0913428571428572,-0.0604428571428571,0.2953,0.1116,0.3182,354.202,0,0,0,0,0,0,0,0.956766666666667,-0.07405,0.21415,-0.475,-0.748333333333333,-0.0796666666666667,0.0464,-0.925183333333333,-0.1957,0.0829,-3.70933333333333,-3.03866666666667,-0.609833333333333,408.8304,1,1,1,1
24-May-2018 14:10:40,4.77777777777778,0.955014285714286,0.0913428571428572,-0.0604428571428571,0.2953,0.1116,0.3182,354.202,0,0,0,0,0,0,0,0.956766666666667,-0.07405,0.21415,-0.475,-0.748333333333333,-0.0796666666666667,0.0464,-0.925183333333333,-0.1957,0.0829,-3.70933333333333,-3.03866666666667,-0.609833333333333,408.8304,1,1,1,1
24-May-2018 14:10:40,4.77777777777778,0.955014285714286,0.0913428571428572,-0.0604428571428571,0.2953,0.1116,0.3182,354.202,0,0,0,0,0,0,0,0.956766666666667,-0.07405,0.21415,-0.475,-0.748333333333333,-0.0796666666666667,0.0464,-0.925183333333333,-0.1957,0.0829,-3.70933333333333,-3.03866666666667,-0.609833333333333,408.8304,1,1,1,1
24-May-2018 14:10:40,4.77777777777778,0.955014285714286,0.0913428571428572,-0.0604428571428571,0.2953,0.1116,0.3182,354.202,0,0,0,0,0,0,0,0.956766666666667,-0.07405,0.21415,-0.475,-0.748333333333333,-0.0796666666666667,0.0464,-0.925183333333333,-0.1957,0.0829,-3.70933333333333,-3.03866666666667,-0.609833333333333,408.8304,1,1,1,1
24-May-2018 14:10:41,-42,0.953933333333333,0.0907666666666667,-0.0669111111111111,1.053125,-0.531375,0.291125,354.202,0,0,0,0,0,0,0,0.95618,-0.07542,0.2147,-1.16716666666667,-1.02166666666667,-0.2725,0.0464,-0.930542857142857,-0.199485714285714,0.0877428571428571,0.23625,0.5335,-0.655625,410.7655,1,1,1,1
24-May-2018 14:10:41,-42,0.953933333333333,0.0907666666666667,-0.0669111111111111,1.053125,-0.531375,0.291125,354.202,0,0,0,0,0,0,0,0.95618,-0.07542,0.2147,-1.16716666666667,-1.02166666666667,-0.2725,0.0464,-0.930542857142857,-0.199485714285714,0.0877428571428571,0.23625,0.5335,-0.655625,410.7655,1,1,1,1
24-May-2018 14:10:41,-42,0.953933333333333,0.0907666666666667,-0.0669111111111111,1.053125,-0.531375,0.291125,354.202,0,0,0,0,0,0,0,0.95618,-0.07542,0.2147,-1.16716666666667,-1.02166666666667,-0.2725,0.0464,-0.930542857142857,-0.199485714285714,0.0877428571428571,0.23625,0.5335,-0.655625,410.7655,1,1,1,1
24-May-2018 14:10:41,-42,0.953933333333333,0.0907666666666667,-0.0669111111111111,1.053125,-0.531375,0.291125,0,0,0,0,0,0,0,0,0.95618,-0.07542,0.2147,-1.16716666666667,-1.02166666666667,-0.2725,0.0464,-0.930542857142857,-0.199485714285714,0.0877428571428571,0.23625,0.5335,-0.655625,410.7655,1,1,1,1
24-May-2018 14:10:42,-59.6666666666667,0.953616666666667,0.0867333333333333,-0.08045,0.9512,0.051,0.6708,347.1142,0,0,0,0,0,0,0,0.95662,-0.07712,0.20736,0.4085,-0.910333333333333,0.123666666666667,0.0464,-0.92846,-0.20382,0.0908,1.33116666666667,0.386,-0.01,412.42,1,1,1,1
24-May-2018 14:10:42,-59.6666666666667,0.953616666666667,0.0867333333333333,-0.08045,0.9512,0.051,0.6708,347.1142,0,0,0,0,0,0,0,0.95662,-0.07712,0.20736,0.4085,-0.910333333333333,0.123666666666667,0.0464,-0.92846,-0.20382,0.0908,1.33116666666667,0.386,-0.01,412.42,1,1,1,1
24-May-2018 14:10:42,-59.6666666666667,0.953616666666667,0.0867333333333333,-0.08045,0.9512,0.051,0.6708,347.1142,0,0,0,0,0,0,0,0.95662,-0.07712,0.20736,0.4085,-0.910333333333333,0.123666666666667,0.0464,-0.92846,-0.20382,0.0908,1.33116666666667,0.386,-0.01,412.42,1,1,1,1
24-May-2018 14:10:42,-59.6666666666667,0.953616666666667,0.0867333333333333,-0.08045,0.9512,0.051,0.6708,347.1142,0,0,0,0,0,0,0,0.95662,-0.07712,0.20736,0.4085,-0.910333333333333,0.123666666666667,0.0464,-0.92846,-0.20382,0.0908,1.33116666666667,0.386,-0.01,412.42,1,1,1,1
24-May-2018 14:10:43,-54.4,0.954,0.088025,-0.073275,0.5856,0.5246,0.4758,346.723428571428,0,0,0,0,0,0,0,0.956625,-0.0870875,0.2105,-1.6678,-1.192,0.00220000000000001,0.0464,-0.92786,-0.19334,0.09692,-0.497833333333333,0.0708333333333333,0.487833333333333,416.286666666667,1,1,1,1
24-May-2018 14:10:43,-54.4,0.954,0.088025,-0.073275,0.5856,0.5246,0.4758,346.723428571428,0,0,0,0,0,0,0,0.956625,-0.0870875,0.2105,-1.6678,-1.192,0.00220000000000001,0.0464,-0.92786,-0.19334,0.09692,-0.497833333333333,0.0708333333333333,0.487833333333333,416.286666666667,1,1,1,1
24-May-2018 14:10:43,-54.4,0.954,0.088025,-0.073275,0.5856,0.5246,0.4758,346.723428571428,0,0,0,0,0,0,0,0.956625,-0.0870875,0.2105,-1.6678,-1.192,0.00220000000000001,0.0464,-0.92786,-0.19334,0.09692,-0.497833333333333,0.0708333333333333,0.487833333333333,416.286666666667,1,1,1,1
24-May-2018 14:10:43,-54.4,0.954,0.088025,-0.073275,0.5856,0.5246,0.4758,346.723428571428,0,0,0,0,0,0,0,0.956625,-0.0870875,0.2105,-1.6678,-1.192,0.00220000000000001,0.0464,-0.92786,-0.19334,0.09692,-0.497833333333333,0.0708333333333333,0.487833333333333,416.286666666667,1,1,1,1
24-May-2018 14:10:44,47.2,0.95462,0.08692,-0.06758,0.8145,0.102666666666667,0.498166666666667,349.836333333333,0,0,0,0,0,0,0,0.956966666666667,-0.0868,0.203816666666667,-1.06857142857143,-1.13571428571429,-0.527142857142857,0.0464,-0.9303,-0.190475,0.098525,1.01928571428571,0.740571428571429,-0.104428571428571,417.3728,1,1,1,1
24-May-2018 14:10:44,47.2,0.95462,0.08692,-0.06758,0.8145,0.102666666666667,0.498166666666667,349.836333333333,0,0,0,0,0,0,0,0.956966666666667,-0.0868,0.203816666666667,-1.06857142857143,-1.13571428571429,-0.527142857142857,0.0464,-0.9303,-0.190475,0.098525,1.01928571428571,0.740571428571429,-0.104428571428571,417.3728,1,1,1,1
24-May-2018 14:10:44,47.2,0.95462,0.08692,-0.06758,0.8145,0.102666666666667,0.498166666666667,349.836333333333,0,0,0,0,0,0,0,0.956966666666667,-0.0868,0.203816666666667,-1.06857142857143,-1.13571428571429,-0.527142857142857,0.0464,-0.9303,-0.190475,0.098525,1.01928571428571,0.740571428571429,-0.104428571428571,417.3728,1,1,1,1
24-May-2018 14:10:44,47.2,0.95462,0.08692,-0.06758,0.8145,0.102666666666667,0.498166666666667,349.836333333333,0,0,0,0,0,0,0,0.956966666666667,-0.0868,0.203816666666667,-1.06857142857143,-1.13571428571429,-0.527142857142857,0.0464,-0.9303,-0.190475,0.098525,1.01928571428571,0.740571428571429,-0.104428571428571,417.3728,1,1,1,1
24-May-2018 14:10:45,131.5,0.954057142857143,0.0815,-0.0738714285714286,0.253714285714286,-0.110714285714286,0.287571428571429,347.37325,0,0,0,0,0,0,0,0.95622,-0.08714,0.20874,-0.21875,-0.424625,-0.52975,0.0464,-0.930857142857143,-0.197342857142857,0.0915285714285714,4.778875,1.532,-1.219625,412.571333333333,1,1,1,1
24-May-2018 14:10:45,131.5,0.954057142857143,0.0815,-0.0738714285714286,0.253714285714286,-0.110714285714286,0.287571428571429,347.37325,0,0,0,0,0,0,0,0.95622,-0.08714,0.20874,-0.21875,-0.424625,-0.52975,0.0464,-0.930857142857143,-0.197342857142857,0.0915285714285714,4.778875,1.532,-1.219625,412.571333333333,1,1,1,1
24-May-2018 14:10:45,131.5,0.954057142857143,0.0815,-0.0738714285714286,0.253714285714286,-0.110714285714286,0.287571428571429,347.37325,0,0,0,0,0,0,0,0.95622,-0.08714,0.20874,-0.21875,-0.424625,-0.52975,0.0464,-0.930857142857143,-0.197342857142857,0.0915285714285714,4.778875,1.532,-1.219625,412.571333333333,1,1,1,1
24-May-2018 14:10:45,131.5,0.954057142857143,0.0815,-0.0738714285714286,0.253714285714286,-0.110714285714286,0.287571428571429,347.37325,0,0,0,0,0,0,0,0.95622,-0.08714,0.20874,-0.21875,-0.424625,-0.52975,0.0464,-0.930857142857143,-0.197342857142857,0.0915285714285714,4.778875,1.532,-1.219625,412.571333333333,1,1,1,1
24-May-2018 14:10:46,100.454545454545,0.953757142857143,0.0865428571428571,-0.0779714285714286,-0.213,0.072,0.173666666666667,346.152,0,0,0,0,0,0,0,0.9587,-0.0803833333333333,0.192566666666667,-0.5706,-0.217,-0.34,0.0464,-0.923728571428572,-0.215428571428571,0.0886571428571429,-0.0731999999999999,0.5976,-0.9514,407.36925,1,1,1,1
24-May-2018 14:10:46,100.454545454545,0.953757142857143,0.0865428571428571,-0.0779714285714286,-0.213,0.072,0.173666666666667,346.152,0,0,0,0,0,0,0,0.9587,-0.0803833333333333,0.192566666666667,-0.5706,-0.217,-0.34,0.0464,-0.923728571428572,-0.215428571428571,0.0886571428571429,-0.0731999999999999,0.5976,-0.9514,407.36925,1,1,1,1
24-May-2018 14:10:46,100.454545454545,0.953757142857143,0.0865428571428571,-0.0779714285714286,-0.213,0.072,0.173666666666667,346.152,0,0,0,0,0,0,0,0.9587,-0.0803833333333333,0.192566666666667,-0.5706,-0.217,-0.34,0.0464,-0.923728571428572,-0.215428571428571,0.0886571428571429,-0.0731999999999999,0.5976,-0.9514,407.36925,1,1,1,1
24-May-2018 14:10:46,100.454545454545,0.953757142857143,0.0865428571428571,-0.0779714285714286,-0.213,0.072,0.173666666666667,346.152,0,0,0,0,0,0,0,0.9587,-0.0803833333333333,0.192566666666667,-0.5706,-0.217,-0.34,0.0464,-0.923728571428572,-0.215428571428571,0.0886571428571429,-0.0731999999999999,0.5976,-0.9514,407.36925,1,1,1,1
24-May-2018 14:10:47,127.625,0.953833333333333,0.0931166666666667,-0.0706666666666667,1.640375,0.41225,0.215,350.648,0,0,0,0,0,0,0,0.9563,-0.086775,0.213475,-0.698625,-0.515125,-0.241625,0.0464,-0.92398,-0.2253,0.07474,-0.838375,0.1295,-1.24225,406.659,1,1,1,1
24-May-2018 14:10:47,127.625,0.953833333333333,0.0931166666666667,-0.0706666666666667,1.640375,0.41225,0.215,350.648,0,0,0,0,0,0,0,0.9563,-0.086775,0.213475,-0.698625,-0.515125,-0.241625,0.0464,-0.92398,-0.2253,0.07474,-0.838375,0.1295,-1.24225,406.659,1,1,1,1
24-May-2018 14:10:47,127.625,0.953833333333333,0.0931166666666667,-0.0706666666666667,1.640375,0.41225,0.215,350.648,0,0,0,0,0,0,0,0.9563,-0.086775,0.213475,-0.698625,-0.515125,-0.241625,0.0464,-0.92398,-0.2253,0.07474,-0.838375,0.1295,-1.24225,406.659,1,1,1,1
24-May-2018 14:10:47,127.625,0.953833333333333,0.0931166666666667,-0.0706666666666667,1.640375,0.41225,0.215,350.648,0,0,0,0,0,0,0,0.9563,-0.086775,0.213475,-0.698625,-0.515125,-0.241625,0.0464,-0.92398,-0.2253,0.07474,-0.838375,0.1295,-1.24225,406.659,1,1,1,1
24-May-2018 14:10:48,184.545454545455,0.953783333333333,0.0920166666666667,-0.07335,1.535,0.436,0.376,357.57525,0,0,0,0,0,0,0,0.956942857142857,-0.0796285714285714,0.209757142857143,-0.353333333333333,-0.91,-0.12,0.0464,-0.923457142857143,-0.2222,0.0888,7.55066666666667,0.833166666666667,1.189,399.3382,1,1,1,1
24-May-2018 14:10:48,184.545454545455,0.953783333333333,0.0920166666666667,-0.07335,1.535,0.436,0.376,357.57525,0,0,0,0,0,0,0,0.956942857142857,-0.0796285714285714,0.209757142857143,-0.353333333333333,-0.91,-0.12,0.0464,-0.923457142857143,-0.2222,0.0888,7.55066666666667,0.833166666666667,1.189,399.3382,1,1,1,1
24-May-2018 14:10:48,184.545454545455,0.953783333333333,0.0920166666666667,-0.07335,1.535,0.436,0.376,357.57525,0,0,0,0,0,0,0,0.956942857142857,-0.0796285714285714,0.209757142857143,-0.353333333333333,-0.91,-0.12,0.0464,-0.923457142857143,-0.2222,0.0888,7.55066666666667,0.833166666666667,1.189,399.3382,1,1,1,1
24-May-2018 14:10:48,184.545454545455,0.953783333333333,0.0920166666666667,-0.07335,1.535,0.436,0.376,357.57525,0,0,0,0,0,0,0,0.956942857142857,-0.0796285714285714,0.209757142857143,-0.353333333333333,-0.91,-0.12,0.0464,-0.923457142857143,-0.2222,0.0888,7.55066666666667,0.833166666666667,1.189,399.3382,1,1,1,1
24-May-2018 14:10:49,183.6,0.9545,0.0966,-0.0647285714285714,-1.329,0.447333333333333,0.6405,354.455,0,0,0,0,0,0,0,0.956142857142857,-0.0811,0.215614285714286,-0.309285714285714,-0.831428571428572,-0.18,0.0464,-0.9395,-0.17066,0.1007,-1.04683333333333,-3.88216666666667,-1.97133333333333,413.505,1,1,1,1
24-May-2018 14:10:49,183.6,0.9545,0.0966,-0.0647285714285714,-1.329,0.447333333333333,0.6405,354.455,0,0,0,0,0,0,0,0.956142857142857,-0.0811,0.215614285714286,-0.309285714285714,-0.831428571428572,-0.18,0.0464,-0.9395,-0.17066,0.1007,-1.04683333333333,-3.88216666666667,-1.97133333333333,413.505,1,1,1,1
24-May-2018 14:10:49,183.6,0.9545,0.0966,-0.0647285714285714,-1.329,0.447333333333333,0.6405,354.455,0,0,0,0,0,0,0,0.956142857142857,-0.0811,0.215614285714286,-0.309285714285714,-0.831428571428572,-0.18,0.0464,-0.9395,-0.17066,0.1007,-1.04683333333333,-3.88216666666667,-1.97133333333333,413.505,1,1,1,1
24-May-2018 14:10:49,183.6,0.9545,0.0966,-0.0647285714285714,-1.329,0.447333333333333,0.6405,354.455,0,0,0,0,0,0,0,0.956142857142857,-0.0811,0.215614285714286,-0.309285714285714,-0.831428571428572,-0.18,0.0464,-0.9395,-0.17066,0.1007,-1.04683333333333,-3.88216666666667,-1.97133333333333,413.505,1,1,1,1
24-May-2018 14:10:50,479.727272727273,0.954711111111111,0.0873666666666667,-0.0678888888888889,1.68888888888889,0.143777777777778,0.211333333333333,354.455,0,0,0,0,0,0,0,0.956642857142857,-0.0825285714285714,0.206714285714286,-0.797333333333333,-1.0735,-0.13,0.0464,-0.920583333333333,-0.19195,0.1531,3.87628571428571,1.01042857142857,-0.836,433.54825,1,1,1,1
24-May-2018 14:10:50,479.727272727273,0.954711111111111,0.0873666666666667,-0.0678888888888889,1.68888888888889,0.143777777777778,0.211333333333333,354.455,0,0,0,0,0,0,0,0.956642857142857,-0.0825285714285714,0.206714285714286,-0.797333333333333,-1.0735,-0.13,0.0464,-0.920583333333333,-0.19195,0.1531,3.87628571428571,1.01042857142857,-0.836,433.54825,1,1,1,1
24-May-2018 14:10:50,479.727272727273,0.954711111111111,0.0873666666666667,-0.0678888888888889,1.68888888888889,0.143777777777778,0.211333333333333,354.455,0,0,0,0,0,0,0,0.956642857142857,-0.0825285714285714,0.206714285714286,-0.797333333333333,-1.0735,-0.13,0.0464,-0.920583333333333,-0.19195,0.1531,3.87628571428571,1.01042857142857,-0.836,433.54825,1,1,1,1
24-May-2018 14:10:50,479.727272727273,0.954711111111111,0.0873666666666667,-0.0678888888888889,1.68888888888889,0.143777777777778,0.211333333333333,354.455,0,0,0,0,0,0,0,0.956642857142857,-0.0825285714285714,0.206714285714286,-0.797333333333333,-1.0735,-0.13,0.0464,-0.920583333333333,-0.19195,0.1531,3.87628571428571,1.01042857142857,-0.836,433.54825,1,1,1,1
24-May-2018 14:10:51,344.3,0.955066666666667,0.0981555555555556,-0.0620222222222222,-0.707125,0.261,0.328625,354.455,0,0,0,0,0,0,0,0.956828571428571,-0.0803428571428571,0.206471428571429,-0.5942,-0.676,-0.264,0.0464,-0.9174,-0.20405,0.14955,5.83825,3.026,-0.304875,429.746,1,1,1,1
24-May-2018 14:10:51,344.3,0.955066666666667,0.0981555555555556,-0.0620222222222222,-0.707125,0.261,0.328625,354.455,0,0,0,0,0,0,0,0.956828571428571,-0.0803428571428571,0.206471428571429,-0.5942,-0.676,-0.264,0.0464,-0.9174,-0.20405,0.14955,5.83825,3.026,-0.304875,429.746,1,1,1,1
24-May-2018 14:10:51,344.3,0.955066666666667,0.0981555555555556,-0.0620222222222222,-0.707125,0.261,0.328625,0,0,0,0,0,0,0,0,0.956828571428571,-0.0803428571428571,0.206471428571429,-0.5942,-0.676,-0.264,0.0464,-0.9174,-0.20405,0.14955,5.83825,3.026,-0.304875,429.746,1,1,1,1
24-May-2018 14:10:51,344.3,0.955066666666667,0.0981555555555556,-0.0620222222222222,-0.707125,0.261,0.328625,0,0,0,0,0,0,0,0,0.956828571428571,-0.0803428571428571,0.206471428571429,-0.5942,-0.676,-0.264,0.0464,-0.9174,-0.20405,0.14955,5.83825,3.026,-0.304875,429.746,1,1,1,1
24-May-2018 14:10:52,161.818181818182,0.954633333333333,0.0954333333333333,-0.0580666666666667,0.581,0.317833333333333,0.367333333333333,361.806666666667,0,0,0,0,0,0,0,0.957185714285714,-0.0793428571428571,0.209071428571429,-0.3625,-0.961666666666667,-0.220833333333333,0.0464,-0.919983333333333,-0.1879,0.1521,0.9878,5.3658,-1.2928,437.7016,1,1,1,1
24-May-2018 14:10:52,161.818181818182,0.954633333333333,0.0954333333333333,-0.0580666666666667,0.581,0.317833333333333,0.367333333333333,361.806666666667,0,0,0,0,0,0,0,0.957185714285714,-0.0793428571428571,0.209071428571429,-0.3625,-0.961666666666667,-0.220833333333333,0.0464,-0.919983333333333,-0.1879,0.1521,0.9878,5.3658,-1.2928,437.7016,1,1,1,1
24-May-2018 14:10:52,161.818181818182,0.954633333333333,0.0954333333333333,-0.0580666666666667,0.581,0.317833333333333,0.367333333333333,361.806666666667,0,0,0,0,0,0,0,0.957185714285714,-0.0793428571428571,0.209071428571429,-0.3625,-0.961666666666667,-0.220833333333333,0.0464,-0.919983333333333,-0.1879,0.1521,0.9878,5.3658,-1.2928,437.7016,1,1,1,1
24-May-2018 14:10:52,161.818181818182,0.954633333333333,0.0954333333333333,-0.0580666666666667,0.581,0.317833333333333,0.367333333333333,361.806666666667,0,0,0,0,0,0,0,0.957185714285714,-0.0793428571428571,0.209071428571429,-0.3625,-0.961666666666667,-0.220833333333333,0.0464,-0.919983333333333,-0.1879,0.1521,0.9878,5.3658,-1.2928,437.7016,1,1,1,1
24-May-2018 14:10:53,100.444444444444,0.95536,0.09562,-0.0607,0.8792,-0.2532,0.4272,363.977714285714,0,0,0,0,0,0,0,0.956616666666667,-0.0801166666666667,0.207383333333333,-0.945428571428571,-1.09428571428571,-0.0937142857142857,0.0464,-0.919116666666667,-0.222183333333333,0.108566666666667,-1.341375,-0.564125,-2.08075,407.023333333333,1,1,1,1
24-May-2018 14:10:53,100.444444444444,0.95536,0.09562,-0.0607,0.8792,-0.2532,0.4272,363.977714285714,0,0,0,0,0,0,0,0.956616666666667,-0.0801166666666667,0.207383333333333,-0.945428571428571,-1.09428571428571,-0.0937142857142857,0.0464,-0.919116666666667,-0.222183333333333,0.108566666666667,-1.341375,-0.564125,-2.08075,407.023333333333,1,1,1,1
24-May-2018 14:10:53,100.444444444444,0.95536,0.09562,-0.0607,0.8792,-0.2532,0.4272,363.977714285714,0,0,0,0,0,0,0,0.956616666666667,-0.0801166666666667,0.207383333333333,-0.945428571428571,-1.09428571428571,-0.0937142857142857,0.0464,-0.919116666666667,-0.222183333333333,0.108566666666667,-1.341375,-0.564125,-2.08075,407.023333333333,1,1,1,1
24-May-2018 14:10:53,100.444444444444,0.95536,0.09562,-0.0607,0.8792,-0.2532,0.4272,363.977714285714,0,0,0,0,0,0,0,0.956616666666667,-0.0801166666666667,0.207383333333333,-0.945428571428571,-1.09428571428571,-0.0937142857142857,0.0464,-0.919116666666667,-0.222183333333333,0.108566666666667,-1.341375,-0.564125,-2.08075,407.023333333333,1,1,1,1
24-May-2018 14:10:54,45.625,0.95445,0.09615,-0.065725,0.275666666666667,0.276166666666667,0.315166666666667,359.8585,0,0,0,0,0,0,0,0.961342857142857,-0.100657142857143,0.169042857142857,-2.90571428571429,-5.79857142857143,0.446571428571429,0.0464,-0.90228,-0.25726,0.16118,-1.58533333333333,3.60783333333333,3.36366666666667,438.4742,1,1,1,1
24-May-2018 14:10:54,45.625,0.95445,0.09615,-0.065725,0.275666666666667,0.276166666666667,0.315166666666667,359.8585,0,0,0,0,0,0,0,0.961342857142857,-0.100657142857143,0.169042857142857,-2.90571428571429,-5.79857142857143,0.446571428571429,0.0464,-0.90228,-0.25726,0.16118,-1.58533333333333,3.60783333333333,3.36366666666667,438.4742,1,1,1,1
24-May-2018 14:10:54,45.625,0.95445,0.09615,-0.065725,0.275666666666667,0.276166666666667,0.315166666666667,359.8585,0,0,0,0,0,0,0,0.961342857142857,-0.100657142857143,0.169042857142857,-2.90571428571429,-5.79857142857143,0.446571428571429,0,-0.90228,-0.25726,0.16118,-1.58533333333333,3.60783333333333,3.36366666666667,438.4742,1,1,1,1
24-May-2018 14:10:54,45.625,0.95445,0.09615,-0.065725,0.275666666666667,0.276166666666667,0.315166666666667,359.8585,0,0,0,0,0,0,0,0.961342857142857,-0.100657142857143,0.169042857142857,-2.90571428571429,-5.79857142857143,0.446571428571429,0,-0.90228,-0.25726,0.16118,-1.58533333333333,3.60783333333333,3.36366666666667,438.4742,1,1,1,1
24-May-2018 14:10:55,79.3,0.954266666666667,0.0998333333333333,-0.0614,0.2545,-0.0786666666666667,0.255,361.246,0,0,0,0,0,0,0,0.95874,-0.11226,0.09334,-2.10175,-1.46125,0.91575,0.044,-0.919842857142857,-0.2333,0.101642857142857,-0.618571428571429,0.27,-0.784,407.477,1,1,1,1
24-May-2018 14:10:55,79.3,0.954266666666667,0.0998333333333333,-0.0614,0.2545,-0.0786666666666667,0.255,361.246,0,0,0,0,0,0,0,0.95874,-0.11226,0.09334,-2.10175,-1.46125,0.91575,0.044,-0.919842857142857,-0.2333,0.101642857142857,-0.618571428571429,0.27,-0.784,407.477,1,1,1,1
24-May-2018 14:10:55,79.3,0.954266666666667,0.0998333333333333,-0.0614,0.2545,-0.0786666666666667,0.255,361.246,0,0,0,0,0,0,0,0.95874,-0.11226,0.09334,-2.10175,-1.46125,0.91575,0.044,-0.919842857142857,-0.2333,0.101642857142857,-0.618571428571429,0.27,-0.784,407.477,1,1,1,1
24-May-2018 14:10:55,79.3,0.954266666666667,0.0998333333333333,-0.0614,0.2545,-0.0786666666666667,0.255,361.246,0,0,0,0,0,0,0,0.95874,-0.11226,0.09334,-2.10175,-1.46125,0.91575,0.044,-0.919842857142857,-0.2333,0.101642857142857,-0.618571428571429,0.27,-0.784,407.477,1,1,1,1
24-May-2018 14:10:56,116.7,0.954433333333333,0.0969,-0.0611166666666667,0.823625,0.327875,0.488,362.752,0,0,0,0,0,0,0,0.9607,-0.1124,0.0959857142857143,-1.8756,0.7928,0.2826,0.088,-0.92108,-0.23396,0.09498,1.18883333333333,0.762333333333333,0.864,405.1766,1,1,1,1
24-May-2018 14:10:56,116.7,0.954433333333333,0.0969,-0.0611166666666667,0.823625,0.327875,0.488,362.752,0,0,0,0,0,0,0,0.9607,-0.1124,0.0959857142857143,-1.8756,0.7928,0.2826,0.088,-0.92108,-0.23396,0.09498,1.18883333333333,0.762333333333333,0.864,405.1766,1,1,1,1
24-May-2018 14:10:56,116.7,0.954433333333333,0.0969,-0.0611166666666667,0.823625,0.327875,0.488,362.752,0,0,0,0,0,0,0,0.9607,-0.1124,0.0959857142857143,-1.8756,0.7928,0.2826,0.088,-0.92108,-0.23396,0.09498,1.18883333333333,0.762333333333333,0.864,405.1766,1,1,1,1
24-May-2018 14:10:56,116.7,0.954433333333333,0.0969,-0.0611166666666667,0.823625,0.327875,0.488,362.752,0,0,0,0,0,0,0,0.9607,-0.1124,0.0959857142857143,-1.8756,0.7928,0.2826,0.088,-0.92108,-0.23396,0.09498,1.18883333333333,0.762333333333333,0.864,405.1766,1,1,1,1
24-May-2018 14:10:57,80.5555555555556,0.955133333333333,0.0985666666666666,-0.0570666666666667,0.0825,0.529666666666667,0.2135,363.73825,0,0,0,0,0,0,0,0.96036,-0.14318,0.1477,-12.9233333333333,1.252,-1.6,0.088,-0.921816666666667,-0.231433333333333,0.0863833333333334,2.24742857142857,1.69885714285714,-0.845142857142857,401.41,1,1,1,1
24-May-2018 14:10:57,80.5555555555556,0.955133333333333,0.0985666666666666,-0.0570666666666667,0.0825,0.529666666666667,0.2135,363.73825,0,0,0,0,0,0,0,0.96036,-0.14318,0.1477,-12.9233333333333,1.252,-1.6,0.088,-0.921816666666667,-0.231433333333333,0.0863833333333334,2.24742857142857,1.69885714285714,-0.845142857142857,401.41,1,1,1,1
24-May-2018 14:10:57,80.5555555555556,0.955133333333333,0.0985666666666666,-0.0570666666666667,0.0825,0.529666666666667,0.2135,363.73825,0,0,0,0,0,0,0,0.96036,-0.14318,0.1477,-12.9233333333333,1.252,-1.6,0.088,-0.921816666666667,-0.231433333333333,0.0863833333333334,2.24742857142857,1.69885714285714,-0.845142857142857,401.41,1,1,1,1
24-May-2018 14:10:57,80.5555555555556,0.955133333333333,0.0985666666666666,-0.0570666666666667,0.0825,0.529666666666667,0.2135,363.73825,0,0,0,0,0,0,0,0.96036,-0.14318,0.1477,-12.9233333333333,1.252,-1.6,0,-0.921816666666667,-0.231433333333333,0.0863833333333334,2.24742857142857,1.69885714285714,-0.845142857142857,401.41,1,1,1,1
24-May-2018 14:10:58,88.2,0.9524125,0.1019875,-0.0623125,-1.02233333333333,-3.07716666666667,-0.648333333333333,367.39675,0,0,0,0,0,0,0,0.960375,-0.1156375,0.11015,2.4756,-4.448,-0.0228,0.0704,-0.92065,-0.202583333333333,0.06405,4.624,2.17483333333333,-0.914666666666666,398.5778,1,1,1,1
24-May-2018 14:10:58,88.2,0.9524125,0.1019875,-0.0623125,-1.02233333333333,-3.07716666666667,-0.648333333333333,367.39675,0,0,0,0,0,0,0,0.960375,-0.1156375,0.11015,2.4756,-4.448,-0.0228,0.0704,-0.92065,-0.202583333333333,0.06405,4.624,2.17483333333333,-0.914666666666666,398.5778,1,1,1,1
24-May-2018 14:10:58,88.2,0.9524125,0.1019875,-0.0623125,-1.02233333333333,-3.07716666666667,-0.648333333333333,367.39675,0,0,0,0,0,0,0,0.960375,-0.1156375,0.11015,2.4756,-4.448,-0.0228,0.0704,-0.92065,-0.202583333333333,0.06405,4.624,2.17483333333333,-0.914666666666666,398.5778,1,1,1,1
24-May-2018 14:10:58,88.2,0.9524125,0.1019875,-0.0623125,-1.02233333333333,-3.07716666666667,-0.648333333333333,367.39675,0,0,0,0,0,0,0,0.960375,-0.1156375,0.11015,2.4756,-4.448,-0.0228,0.0704,-0.92065,-0.202583333333333,0.06405,4.624,2.17483333333333,-0.914666666666666,398.5778,1,1,1,1
24-May-2018 14:10:59,0.3,0.952466666666667,0.125477777777778,-0.0401333333333333,-2.26057142857143,1.86414285714286,-0.111142857142857,362.83,0,0,0,0,0,0,0,0.95945,-0.11885,0.0845333333333333,0.39,-1.30825,-0.1555,0.0704,-0.931142857142857,-0.236314285714286,0.0445571428571429,-2.09057142857143,1.13242857142857,-1.02785714285714,374.801,1,1,1,1
24-May-2018 14:10:59,0.3,0.952466666666667,0.125477777777778,-0.0401333333333333,-2.26057142857143,1.86414285714286,-0.111142857142857,362.83,0,0,0,0,0,0,0,0.95945,-0.11885,0.0845333333333333,0.39,-1.30825,-0.1555,0.0704,-0.931142857142857,-0.236314285714286,0.0445571428571429,-2.09057142857143,1.13242857142857,-1.02785714285714,374.801,1,1,1,1
24-May-2018 14:10:59,0.3,0.952466666666667,0.125477777777778,-0.0401333333333333,-2.26057142857143,1.86414285714286,-0.111142857142857,362.83,0,0,0,0,0,0,0,0.95945,-0.11885,0.0845333333333333,0.39,-1.30825,-0.1555,0.0704,-0.931142857142857,-0.236314285714286,0.0445571428571429,-2.09057142857143,1.13242857142857,-1.02785714285714,374.801,1,1,1,1
24-May-2018 14:10:59,0.3,0.952466666666667,0.125477777777778,-0.0401333333333333,-2.26057142857143,1.86414285714286,-0.111142857142857,362.83,0,0,0,0,0,0,0,0.95945,-0.11885,0.0845333333333333,0.39,-1.30825,-0.1555,0.0704,-0.931142857142857,-0.236314285714286,0.0445571428571429,-2.09057142857143,1.13242857142857,-1.02785714285714,374.801,1,1,1,1
24-May-2018 14:11:00,7.6,0.9536875,0.14055,-0.02395,1.16044444444444,-0.126666666666667,0.530111111111111,362.83,0,0,0,0,0,0,0,0.960233333333333,-0.115,0.125566666666667,1.23116666666667,1.89016666666667,-1.04166666666667,0.0704,-0.9264,-0.231775,0.0353,3.4555,2.0835,0.701,379.5746,1,1,1,1
24-May-2018 14:11:00,7.6,0.9536875,0.14055,-0.02395,1.16044444444444,-0.126666666666667,0.530111111111111,362.83,0,0,0,0,0,0,0,0.960233333333333,-0.115,0.125566666666667,1.23116666666667,1.89016666666667,-1.04166666666667,0.0704,-0.9264,-0.231775,0.0353,3.4555,2.0835,0.701,379.5746,1,1,1,1
24-May-2018 14:11:00,7.6,0.9536875,0.14055,-0.02395,1.16044444444444,-0.126666666666667,0.530111111111111,362.83,0,0,0,0,0,0,0,0.960233333333333,-0.115,0.125566666666667,1.23116666666667,1.89016666666667,-1.04166666666667,0.0704,-0.9264,-0.231775,0.0353,3.4555,2.0835,0.701,379.5746,1,1,1,1
24-May-2018 14:11:00,7.6,0.9536875,0.14055,-0.02395,1.16044444444444,-0.126666666666667,0.530111111111111,0,0,0,0,0,0,0,0,0.960233333333333,-0.115,0.125566666666667,1.23116666666667,1.89016666666667,-1.04166666666667,0.0704,-0.9264,-0.231775,0.0353,3.4555,2.0835,0.701,379.5746,1,1,1,1
24-May-2018 14:11:01,79.5,0.958328571428572,0.119057142857143,-0.0394,1.13385714285714,-0.101428571428571,1.43742857142857,377.522,0,0,0,0,0,0,0,0.9577,-0.109816666666667,0.17195,1.003,0.611571428571428,-0.337142857142857,0.0704,-0.9265125,-0.211375,0.068575,-0.533625,0.86125,0.266875,391.7825,1,1,1,1
24-May-2018 14:11:01,79.5,0.958328571428572,0.119057142857143,-0.0394,1.13385714285714,-0.101428571428571,1.43742857142857,377.522,0,0,0,0,0,0,0,0.9577,-0.109816666666667,0.17195,1.003,0.611571428571428,-0.337142857142857,0.0704,-0.9265125,-0.211375,0.068575,-0.533625,0.86125,0.266875,391.7825,1,1,1,1
24-May-2018 14:11:01,79.5,0.958328571428572,0.119057142857143,-0.0394,1.13385714285714,-0.101428571428571,1.43742857142857,377.522,0,0,0,0,0,0,0,0.9577,-0.109816666666667,0.17195,1.003,0.611571428571428,-0.337142857142857,0.0704,-0.9265125,-0.211375,0.068575,-0.533625,0.86125,0.266875,391.7825,1,1,1,1
24-May-2018 14:11:01,79.5,0.958328571428572,0.119057142857143,-0.0394,1.13385714285714,-0.101428571428571,1.43742857142857,377.522,0,0,0,0,0,0,0,0.9577,-0.109816666666667,0.17195,1.003,0.611571428571428,-0.337142857142857,0.0704,-0.9265125,-0.211375,0.068575,-0.533625,0.86125,0.266875,391.7825,1,1,1,1
24-May-2018 14:11:02,70.1,0.9567,0.1117,-0.0291,0.67275,0.5035,0.19875,377.2146,0,0,0,0,0,0,0,0.95875,-0.0999,0.162775,-0.7044,-2.25,-0.982,0.0704,-0.92534,-0.21704,0.0657,0.19825,0.1065,-0.686,391.285666666667,1,1,1,1
24-May-2018 14:11:02,70.1,0.9567,0.1117,-0.0291,0.67275,0.5035,0.19875,377.2146,0,0,0,0,0,0,0,0.95875,-0.0999,0.162775,-0.7044,-2.25,-0.982,0.0704,-0.92534,-0.21704,0.0657,0.19825,0.1065,-0.686,391.285666666667,1,1,1,1
24-May-2018 14:11:02,70.1,0.9567,0.1117,-0.0291,0.67275,0.5035,0.19875,377.2146,0,0,0,0,0,0,0,0.95875,-0.0999,0.162775,-0.7044,-2.25,-0.982,0.0704,-0.92534,-0.21704,0.0657,0.19825,0.1065,-0.686,391.285666666667,1,1,1,1
24-May-2018 14:11:02,70.1,0.9567,0.1117,-0.0291,0.67275,0.5035,0.19875,377.2146,0,0,0,0,0,0,0,0.95875,-0.0999,0.162775,-0.7044,-2.25,-0.982,0.0704,-0.92534,-0.21704,0.0657,0.19825,0.1065,-0.686,391.285666666667,1,1,1,1
24-May-2018 14:11:03,-6.11111111111111,0.955866666666667,0.115633333333333,-0.0266,0.429,0.3355,0.0015,384.345,0,0,0,0,0,0,0,0.960225,-0.090575,0.155325,-0.86775,-0.729,-0.66725,0.0704,-0.930466666666667,-0.2218,0.0640666666666667,2.01225,0.39625,-0.85375,391.511,1,1,1,1
24-May-2018 14:11:03,-6.11111111111111,0.955866666666667,0.115633333333333,-0.0266,0.429,0.3355,0.0015,384.345,0,0,0,0,0,0,0,0.960225,-0.090575,0.155325,-0.86775,-0.729,-0.66725,0.0704,-0.930466666666667,-0.2218,0.0640666666666667,2.01225,0.39625,-0.85375,391.511,1,1,1,1
24-May-2018 14:11:03,-6.11111111111111,0.955866666666667,0.115633333333333,-0.0266,0.429,0.3355,0.0015,384.345,0,0,0,0,0,0,0,0.960225,-0.090575,0.155325,-0.86775,-0.729,-0.66725,0.0704,-0.930466666666667,-0.2218,0.0640666666666667,2.01225,0.39625,-0.85375,391.511,1,1,1,1
24-May-2018 14:11:03,-6.11111111111111,0.955866666666667,0.115633333333333,-0.0266,0.429,0.3355,0.0015,384.345,0,0,0,0,0,0,0,0.960225,-0.090575,0.155325,-0.86775,-0.729,-0.66725,0.0704,-0.930466666666667,-0.2218,0.0640666666666667,2.01225,0.39625,-0.85375,391.511,1,1,1,1
24-May-2018 14:11:04,-63.4444444444444,0.953883333333333,0.119233333333333,-0.0169833333333333,-0.0665,-0.219625,0.891875,385.617,0,0,0,0,0,0,0,0.961416666666667,-0.0841833333333333,0.156466666666667,-0.293333333333334,-0.835166666666667,-0.811,0.0704,-0.922716666666667,-0.2249,0.07175,0.122,-0.278714285714286,-0.0437142857142857,388.225,1,1,1,1
24-May-2018 14:11:04,-63.4444444444444,0.953883333333333,0.119233333333333,-0.0169833333333333,-0.0665,-0.219625,0.891875,385.617,0,0,0,0,0,0,0,0.961416666666667,-0.0841833333333333,0.156466666666667,-0.293333333333334,-0.835166666666667,-0.811,0.0704,-0.922716666666667,-0.2249,0.07175,0.122,-0.278714285714286,-0.0437142857142857,388.225,1,1,1,1
24-May-2018 14:11:04,-63.4444444444444,0.953883333333333,0.119233333333333,-0.0169833333333333,-0.0665,-0.219625,0.891875,385.617,0,0,0,0,0,0,0,0.961416666666667,-0.0841833333333333,0.156466666666667,-0.293333333333334,-0.835166666666667,-0.811,0.0704,-0.922716666666667,-0.2249,0.07175,0.122,-0.278714285714286,-0.0437142857142857,388.225,1,1,1,1
24-May-2018 14:11:04,-63.4444444444444,0.953883333333333,0.119233333333333,-0.0169833333333333,-0.0665,-0.219625,0.891875,385.617,0,0,0,0,0,0,0,0.961416666666667,-0.0841833333333333,0.156466666666667,-0.293333333333334,-0.835166666666667,-0.811,0.0704,-0.922716666666667,-0.2249,0.07175,0.122,-0.278714285714286,-0.0437142857142857,388.225,1,1,1,1
24-May-2018 14:11:05,-92.3636363636364,0.9552625,0.1018125,-0.0499375,6.27033333333333,-0.3925,0.549,383.398,0,0,0,0,0,0,0,0.960742857142857,-0.0890857142857143,0.146457142857143,-1.93916666666667,-0.7005,0.153166666666667,0.0704,-0.92815,-0.2139,0.0579166666666667,-3.03866666666667,-0.0101666666666667,0.355666666666667,390.3135,1,0,1,1
24-May-2018 14:11:05,-92.3636363636364,0.9552625,0.1018125,-0.0499375,6.27033333333333,-0.3925,0.549,383.398,0,0,0,0,0,0,0,0.960742857142857,-0.0890857142857143,0.146457142857143,-1.93916666666667,-0.7005,0.153166666666667,0.0704,-0.92815,-0.2139,0.0579166666666667,-3.03866666666667,-0.0101666666666667,0.355666666666667,390.3135,1,0,1,1
24-May-2018 14:11:05,-92.3636363636364,0.9552625,0.1018125,-0.0499375,6.27033333333333,-0.3925,0.549,383.398,0,0,0,0,0,0,0,0.960742857142857,-0.0890857142857143,0.146457142857143,-1.93916666666667,-0.7005,0.153166666666667,0.0704,-0.92815,-0.2139,0.0579166666666667,-3.03866666666667,-0.0101666666666667,0.355666666666667,390.3135,1,0,1,1
24-May-2018 14:11:05,-92.3636363636364,0.9552625,0.1018125,-0.0499375,6.27033333333333,-0.3925,0.549,383.398,0,0,0,0,0,0,0,0.960742857142857,-0.0890857142857143,0.146457142857143,-1.93916666666667,-0.7005,0.153166666666667,0.0704,-0.92815,-0.2139,0.0579166666666667,-3.03866666666667,-0.0101666666666667,0.355666666666667,390.3135,1,0,1,1
24-May-2018 14:11:06,-63.8888888888889,0.9564,0.094925,-0.0477,1.3798,1,0.2454,366.901,0,0,0,0,0,0,0,0.960866666666667,-0.0855,0.157233333333333,2.7316,-0.2786,0.5002,0.0704,-0.9306,-0.2124,0.0611333333333333,1.0365,0.132,-0.609833333333333,384.983,1,0,1,1
24-May-2018 14:11:06,-63.8888888888889,0.9564,0.094925,-0.0477,1.3798,1,0.2454,366.901,0,0,0,0,0,0,0,0.960866666666667,-0.0855,0.157233333333333,2.7316,-0.2786,0.5002,0.0704,-0.9306,-0.2124,0.0611333333333333,1.0365,0.132,-0.609833333333333,384.983,1,0,1,1
24-May-2018 14:11:06,-63.8888888888889,0.9564,0.094925,-0.0477,1.3798,1,0.2454,366.901,0,0,0,0,0,0,0,0.960866666666667,-0.0855,0.157233333333333,2.7316,-0.2786,0.5002,0.0704,-0.9306,-0.2124,0.0611333333333333,1.0365,0.132,-0.609833333333333,384.983,1,0,1,1
24-May-2018 14:11:06,-63.8888888888889,0.9564,0.094925,-0.0477,1.3798,1,0.2454,366.901,0,0,0,0,0,0,0,0.960866666666667,-0.0855,0.157233333333333,2.7316,-0.2786,0.5002,0.0704,-0.9306,-0.2124,0.0611333333333333,1.0365,0.132,-0.609833333333333,384.983,1,0,1,1
24-May-2018 14:11:07,11.2,0.95536,0.09192,-0.0232,1.99183333333333,1.21016666666667,0.620333333333333,369.581,0,0,0,0,0,0,0,0.95864,-0.09944,0.1816,1.21975,1.8595,-0.0275,0.0704,-0.925866666666667,-0.221133333333333,0.0510166666666667,-2.98775,2.77425,0.38125,386.966,1,0,1,1
24-May-2018 14:11:07,11.2,0.95536,0.09192,-0.0232,1.99183333333333,1.21016666666667,0.620333333333333,369.581,0,0,0,0,0,0,0,0.95864,-0.09944,0.1816,1.21975,1.8595,-0.0275,0.0704,-0.925866666666667,-0.221133333333333,0.0510166666666667,-2.98775,2.77425,0.38125,386.966,1,0,1,1
24-May-2018 14:11:07,11.2,0.95536,0.09192,-0.0232,1.99183333333333,1.21016666666667,0.620333333333333,369.581,0,0,0,0,0,0,0,0.95864,-0.09944,0.1816,1.21975,1.8595,-0.0275,0.0704,-0.925866666666667,-0.221133333333333,0.0510166666666667,-2.98775,2.77425,0.38125,386.966,1,0,1,1
24-May-2018 14:11:07,11.2,0.95536,0.09192,-0.0232,1.99183333333333,1.21016666666667,0.620333333333333,369.581,0,0,0,0,0,0,0,0.95864,-0.09944,0.1816,1.21975,1.8595,-0.0275,0.0704,-0.925866666666667,-0.221133333333333,0.0510166666666667,-2.98775,2.77425,0.38125,386.966,1,0,1,1
24-May-2018 14:11:08,50.5,0.958057142857143,0.0876142857142857,-0.0264571428571429,0.744166666666667,0.0716666666666667,0.438166666666667,373.4735,0,0,0,0,0,0,0,0.952133333333333,-0.0925833333333333,0.23335,-1.26014285714286,1.53542857142857,-0.109571428571429,0.022,-0.926333333333333,-0.211016666666667,0.0514666666666667,1.78557142857143,-0.357285714285714,-0.217857142857143,379.21,1,0,1,1
24-May-2018 14:11:08,50.5,0.958057142857143,0.0876142857142857,-0.0264571428571429,0.744166666666667,0.0716666666666667,0.438166666666667,373.4735,0,0,0,0,0,0,0,0.952133333333333,-0.0925833333333333,0.23335,-1.26014285714286,1.53542857142857,-0.109571428571429,0.022,-0.926333333333333,-0.211016666666667,0.0514666666666667,1.78557142857143,-0.357285714285714,-0.217857142857143,379.21,1,0,1,1
24-May-2018 14:11:08,50.5,0.958057142857143,0.0876142857142857,-0.0264571428571429,0.744166666666667,0.0716666666666667,0.438166666666667,373.4735,0,0,0,0,0,0,0,0.952133333333333,-0.0925833333333333,0.23335,-1.26014285714286,1.53542857142857,-0.109571428571429,0.022,-0.926333333333333,-0.211016666666667,0.0514666666666667,1.78557142857143,-0.357285714285714,-0.217857142857143,379.21,1,0,1,1
24-May-2018 14:11:08,50.5,0.958057142857143,0.0876142857142857,-0.0264571428571429,0.744166666666667,0.0716666666666667,0.438166666666667,373.4735,0,0,0,0,0,0,0,0.952133333333333,-0.0925833333333333,0.23335,-1.26014285714286,1.53542857142857,-0.109571428571429,0.022,-0.926333333333333,-0.211016666666667,0.0514666666666667,1.78557142857143,-0.357285714285714,-0.217857142857143,379.21,1,0,1,1
24-May-2018 14:11:09,107,0.9588,0.0875285714285714,-0.0163285714285714,-0.2425,0.426833333333333,-0.00783333333333336,373.837666666667,0,0,0,0,0,0,0,0.952916666666667,-0.0665166666666667,0.239533333333333,-3.01571428571429,-0.283285714285714,-2.26885714285714,0.088,-0.927216666666667,-0.21145,0.0594,0.98325,0.57925,-0.426875,387.60325,1,1,1,1
24-May-2018 14:11:09,107,0.9588,0.0875285714285714,-0.0163285714285714,-0.2425,0.426833333333333,-0.00783333333333336,373.837666666667,0,0,0,0,0,0,0,0.952916666666667,-0.0665166666666667,0.239533333333333,-3.01571428571429,-0.283285714285714,-2.26885714285714,0.088,-0.927216666666667,-0.21145,0.0594,0.98325,0.57925,-0.426875,387.60325,1,1,1,1
24-May-2018 14:11:09,107,0.9588,0.0875285714285714,-0.0163285714285714,-0.2425,0.426833333333333,-0.00783333333333336,373.837666666667,0,0,0,0,0,0,0,0.952916666666667,-0.0665166666666667,0.239533333333333,-3.01571428571429,-0.283285714285714,-2.26885714285714,0.088,-0.927216666666667,-0.21145,0.0594,0.98325,0.57925,-0.426875,387.60325,1,1,1,1
24-May-2018 14:11:09,107,0.9588,0.0875285714285714,-0.0163285714285714,-0.2425,0.426833333333333,-0.00783333333333336,373.837666666667,0,0,0,0,0,0,0,0.952916666666667,-0.0665166666666667,0.239533333333333,-3.01571428571429,-0.283285714285714,-2.26885714285714,0.088,-0.927216666666667,-0.21145,0.0594,0.98325,0.57925,-0.426875,387.60325,1,1,1,1
24-May-2018 14:11:10,69.9,0.9575625,0.091425,-0.022525,0.2145,-0.8025,0.381375,377.303,0,0,0,0,0,0,0,0.955066666666667,-0.0939166666666667,0.143283333333333,-1.32742857142857,-13.3442857142857,-2.60457142857143,0.044,-0.926716666666667,-0.222016666666667,0.05725,1.1485,0.487833333333333,-0.416666666666667,386.623,1,0.5,1,1
24-May-2018 14:11:10,69.9,0.9575625,0.091425,-0.022525,0.2145,-0.8025,0.381375,377.303,0,0,0,0,0,0,0,0.955066666666667,-0.0939166666666667,0.143283333333333,-1.32742857142857,-13.3442857142857,-2.60457142857143,0.044,-0.926716666666667,-0.222016666666667,0.05725,1.1485,0.487833333333333,-0.416666666666667,386.623,1,0.5,1,1
24-May-2018 14:11:10,69.9,0.9575625,0.091425,-0.022525,0.2145,-0.8025,0.381375,377.303,0,0,0,0,0,0,0,0.955066666666667,-0.0939166666666667,0.143283333333333,-1.32742857142857,-13.3442857142857,-2.60457142857143,0.044,-0.926716666666667,-0.222016666666667,0.05725,1.1485,0.487833333333333,-0.416666666666667,386.623,1,0.5,1,1
24-May-2018 14:11:10,69.9,0.9575625,0.091425,-0.022525,0.2145,-0.8025,0.381375,377.303,0,0,0,0,0,0,0,0.955066666666667,-0.0939166666666667,0.143283333333333,-1.32742857142857,-13.3442857142857,-2.60457142857143,0.044,-0.926716666666667,-0.222016666666667,0.05725,1.1485,0.487833333333333,-0.416666666666667,386.623,1,0.5,1,1
24-May-2018 14:11:11,63.3636363636364,0.9564375,0.090525,-0.0491125,1.35555555555556,-1.67555555555556,0.732,377.303,0,0,0,0,0,0,0,0.954983333333333,-0.09315,0.1359,4.38514285714286,3.503,3.61414285714286,0.044,-0.92362,-0.22374,0.07212,1.22814285714286,0.357142857142857,0.148142857142857,388.3125,1,0,1,1
24-May-2018 14:11:11,63.3636363636364,0.9564375,0.090525,-0.0491125,1.35555555555556,-1.67555555555556,0.732,377.303,0,0,0,0,0,0,0,0.954983333333333,-0.09315,0.1359,4.38514285714286,3.503,3.61414285714286,0.044,-0.92362,-0.22374,0.07212,1.22814285714286,0.357142857142857,0.148142857142857,388.3125,1,0,1,1
24-May-2018 14:11:11,63.3636363636364,0.9564375,0.090525,-0.0491125,1.35555555555556,-1.67555555555556,0.732,377.303,0,0,0,0,0,0,0,0.954983333333333,-0.09315,0.1359,4.38514285714286,3.503,3.61414285714286,0.044,-0.92362,-0.22374,0.07212,1.22814285714286,0.357142857142857,0.148142857142857,388.3125,1,0,1,1
24-May-2018 14:11:11,63.3636363636364,0.9564375,0.090525,-0.0491125,1.35555555555556,-1.67555555555556,0.732,0,0,0,0,0,0,0,0,0.954983333333333,-0.09315,0.1359,4.38514285714286,3.503,3.61414285714286,0.044,-0.92362,-0.22374,0.07212,1.22814285714286,0.357142857142857,0.148142857142857,388.3125,1,0,1,1
24-May-2018 14:11:12,46.5555555555556,0.95295,0.0923166666666667,-0.0844166666666667,-9.16857142857143,-1.31142857142857,0.419571428571428,360.226,0,0,0,0,0,0,0,0.957166666666667,-0.113666666666667,0.178583333333333,-1.2024,-0.6798,-0.4354,0.044,-0.929366666666667,-0.2017,0.0609,9.5488,2.9756,0.9268,393.781,1,0.5,1,1
24-May-2018 14:11:12,46.5555555555556,0.95295,0.0923166666666667,-0.0844166666666667,-9.16857142857143,-1.31142857142857,0.419571428571428,360.226,0,0,0,0,0,0,0,0.957166666666667,-0.113666666666667,0.178583333333333,-1.2024,-0.6798,-0.4354,0.044,-0.929366666666667,-0.2017,0.0609,9.5488,2.9756,0.9268,393.781,1,0.5,1,1
24-May-2018 14:11:12,46.5555555555556,0.95295,0.0923166666666667,-0.0844166666666667,-9.16857142857143,-1.31142857142857,0.419571428571428,360.226,0,0,0,0,0,0,0,0.957166666666667,-0.113666666666667,0.178583333333333,-1.2024,-0.6798,-0.4354,0.044,-0.929366666666667,-0.2017,0.0609,9.5488,2.9756,0.9268,393.781,1,0.5,1,1
24-May-2018 14:11:12,46.5555555555556,0.95295,0.0923166666666667,-0.0844166666666667,-9.16857142857143,-1.31142857142857,0.419571428571428,360.226,0,0,0,0,0,0,0,0.957166666666667,-0.113666666666667,0.178583333333333,-1.2024,-0.6798,-0.4354,0.044,-0.929366666666667,-0.2017,0.0609,9.5488,2.9756,0.9268,393.781,1,0.5,1,1
