TIME,HELMET_RAW,BELT_ACC_X,BELT_ACC_Y,BELT_ACC_Z,BELT_ANG_X,BELT_ANG_Y,BELT_ANG_Z,BELT_LUMINOSITY,NECK_ACC_X,NECK_ACC_Y,NECK_ACC_Z,NECK_ANG_X,NECK_ANG_Y,NECK_ANG_Z,NECK_LUMINOSITY,PCKT_ACC_X,PCKT_ACC_Y,PCKT_ACC_Z,PCKT_ANG_X,PCKT_ANG_Y,PCKT_ANG_Z,PCKT_LUMINOSITY,WRST_ACC_X,WRST_ACC_Y,WRST_ACC_Z,WRST_ANG_X,WRST_ANG_Y,WRST_ANG_Z,WRST_LUMINOSITY,IR_1,IR_2,IR_3,IR_4
24-May-2018 12:53:36,264.777777777778,0.754875,0.0139875,-0.5799,0.993142857142857,-0.267428571428571,0.932285714285714,3.1965,-0.804166666666667,0.228333333333333,-0.747766666666667,29.8216666666667,18.685,-19.6491666666667,135.674,0.58405,-0.3263,0.81455,-0.73,-0.83,-0.24,0.705,-0.412583333333333,-0.880233333333333,0.14375,1.31542857142857,0.801571428571429,0.488,601.8815,1,1,1,1
24-May-2018 12:53:36,264.777777777778,0.754875,0.0139875,-0.5799,0.993142857142857,-0.267428571428571,0.932285714285714,3.1965,-0.804166666666667,0.228333333333333,-0.747766666666667,29.8216666666667,18.685,-19.6491666666667,135.674,0.58405,-0.3263,0.81455,-0.73,-0.83,-0.24,0.705,-0.412583333333333,-0.880233333333333,0.14375,1.31542857142857,0.801571428571429,0.488,601.8815,1,1,1,1
24-May-2018 12:53:36,264.777777777778,0.754875,0.0139875,-0.5799,0.993142857142857,-0.267428571428571,0.932285714285714,3.1965,-0.804166666666667,0.228333333333333,-0.747766666666667,29.8216666666667,18.685,-19.6491666666667,135.674,0.58405,-0.3263,0.81455,-0.73,-0.83,-0.24,0.705,-0.412583333333333,-0.880233333333333,0.14375,1.31542857142857,0.801571428571429,0.488,601.8815,1,1,1,1
24-May-2018 12:53:36,264.777777777778,0.754875,0.0139875,-0.5799,0.993142857142857,-0.267428571428571,0.932285714285714,3.1965,-0.804166666666667,0.228333333333333,-0.747766666666667,29.8216666666667,18.685,-19.6491666666667,135.674,0.58405,-0.3263,0.81455,-0.73,-0.83,-0.24,0.705,-0.412583333333333,-0.880233333333333,0.14375,1.31542857142857,0.801571428571429,0.488,601.8815,1,1,1,1
24-May-2018 12:53:37,323.444444444444,0.752216666666667,0.00818333333333333,-0.58335,0.749428571428571,0.0454285714285714,0.444428571428571,3.079,-0.766675,0.025075,-0.6147,47.4422222222222,4.116,-4.30844444444444,135.674,0.586925,-0.328175,0.809775,-1.29666666666667,-1.90666666666667,-1.21666666666667,0.718666666666667,-0.41785,-0.87575,0.145825,-0.0306666666666667,0.111833333333333,-0.752166666666667,601.694,1,1,1,1
24-May-2018 12:53:37,323.444444444444,0.752216666666667,0.00818333333333333,-0.58335,0.749428571428571,0.0454285714285714,0.444428571428571,3.079,-0.766675,0.025075,-0.6147,47.4422222222222,4.116,-4.30844444444444,135.674,0.586925,-0.328175,0.809775,-1.29666666666667,-1.90666666666667,-1.21666666666667,0.718666666666667,-0.41785,-0.87575,0.145825,-0.0306666666666667,0.111833333333333,-0.752166666666667,601.694,1,1,1,1
24-May-2018 12:53:37,323.444444444444,0.752216666666667,0.00818333333333333,-0.58335,0.749428571428571,0.0454285714285714,0.444428571428571,3.079,-0.766675,0.025075,-0.6147,47.4422222222222,4.116,-4.30844444444444,135.674,0.586925,-0.328175,0.809775,-1.29666666666667,-1.90666666666667,-1.21666666666667,0.718666666666667,-0.41785,-0.87575,0.145825,-0.0306666666666667,0.111833333333333,-0.752166666666667,601.694,1,1,1,1
24-May-2018 12:53:37,323.444444444444,0.752216666666667,0.00818333333333333,-0.58335,0.749428571428571,0.0454285714285714,0.444428571428571,3.079,-0.766675,0.025075,-0.6147,47.4422222222222,4.116,-4.30844444444444,135.674,0.586925,-0.328175,0.809775,-1.29666666666667,-1.90666666666667,-1.21666666666667,0.718666666666667,-0.41785,-0.87575,0.145825,-0.0306666666666667,0.111833333333333,-0.752166666666667,601.694,1,1,1,1
24-May-2018 12:53:38,408.222222222222,0.750766666666667,0.00783333333333333,-0.585166666666667,0.366,0.27675,-0.08825,3.022,-0.77086,-0.0942,-0.68738,28.77,-13.3562,-8.125,153.165,0.6014,-0.326775,0.798,-0.0336,0.076,0.3666,0.788,-0.40898,-0.88246,0.14192,0.888714285714286,0.270142857142857,-0.400857142857143,600.558,1,1,1,1
24-May-2018 12:53:38,408.222222222222,0.750766666666667,0.00783333333333333,-0.585166666666667,0.366,0.27675,-0.08825,3.022,-0.77086,-0.0942,-0.68738,28.77,-13.3562,-8.125,153.165,0.6014,-0.326775,0.798,-0.0336,0.076,0.3666,0.788,-0.40898,-0.88246,0.14192,0.888714285714286,0.270142857142857,-0.400857142857143,600.558,1,1,1,1
24-May-2018 12:53:38,408.222222222222,0.750766666666667,0.00783333333333333,-0.585166666666667,0.366,0.27675,-0.08825,3.022,-0.77086,-0.0942,-0.68738,28.77,-13.3562,-8.125,153.165,0.6014,-0.326775,0.798,-0.0336,0.076,0.3666,0.788,-0.40898,-0.88246,0.14192,0.888714285714286,0.270142857142857,-0.400857142857143,600.558,1,1,1,1
24-May-2018 12:53:38,408.222222222222,0.750766666666667,0.00783333333333333,-0.585166666666667,0.366,0.27675,-0.08825,3.022,-0.77086,-0.0942,-0.68738,28.77,-13.3562,-8.125,153.165,0.6014,-0.326775,0.798,-0.0336,0.076,0.3666,0.788,-0.40898,-0.88246,0.14192,0.888714285714286,0.270142857142857,-0.400857142857143,600.558,1,1,1,1
24-May-2018 12:53:39,346.5,0.755555555555555,0.0196888888888889,-0.578211111111111,0.587625,0.13125,0.222375,3.022,-0.73258,-0.22614,-0.6747,53.25875,1.3835,5.44175,153.165,0.58454,-0.327,0.81362,-0.24,-0.32,-0.2,0.746,-0.407883333333333,-0.8818,0.1475,0.975857142857143,0.592571428571429,0.061,601.0885,1,1,1,1
24-May-2018 12:53:39,346.5,0.755555555555555,0.0196888888888889,-0.578211111111111,0.587625,0.13125,0.222375,3.022,-0.73258,-0.22614,-0.6747,53.25875,1.3835,5.44175,153.165,0.58454,-0.327,0.81362,-0.24,-0.32,-0.2,0.746,-0.407883333333333,-0.8818,0.1475,0.975857142857143,0.592571428571429,0.061,601.0885,1,1,1,1
24-May-2018 12:53:39,346.5,0.755555555555555,0.0196888888888889,-0.578211111111111,0.587625,0.13125,0.222375,3.022,-0.73258,-0.22614,-0.6747,53.25875,1.3835,5.44175,153.165,0.58454,-0.327,0.81362,-0.24,-0.32,-0.2,0.746,-0.407883333333333,-0.8818,0.1475,0.975857142857143,0.592571428571429,0.061,601.0885,1,1,1,1
24-May-2018 12:53:39,346.5,0.755555555555555,0.0196888888888889,-0.578211111111111,0.587625,0.13125,0.222375,3.022,-0.73258,-0.22614,-0.6747,53.25875,1.3835,5.44175,153.165,0.58454,-0.327,0.81362,-0.24,-0.32,-0.2,0.746,-0.407883333333333,-0.8818,0.1475,0.975857142857143,0.592571428571429,0.061,601.0885,1,1,1,1
24-May-2018 12:53:40,164.222222222222,0.752514285714286,0.0135571428571429,-0.584342857142857,0.8661,-0.1445,0.6769,3.022,-0.725875,-0.262175,-0.72395,9.8405,-6.551,28.959,153.165,0.589675,-0.3275,0.808225,-1.31666666666667,-2.25166666666667,-1.17483333333333,0.74,-0.416771428571429,-0.873785714285714,0.151171428571429,0.965333333333333,0.325333333333333,-0.355666666666667,600.930333333333,1,1,1,1
24-May-2018 12:53:40,164.222222222222,0.752514285714286,0.0135571428571429,-0.584342857142857,0.8661,-0.1445,0.6769,3.022,-0.725875,-0.262175,-0.72395,9.8405,-6.551,28.959,153.165,0.589675,-0.3275,0.808225,-1.31666666666667,-2.25166666666667,-1.17483333333333,0.74,-0.416771428571429,-0.873785714285714,0.151171428571429,0.965333333333333,0.325333333333333,-0.355666666666667,600.930333333333,1,1,1,1
24-May-2018 12:53:40,164.222222222222,0.752514285714286,0.0135571428571429,-0.584342857142857,0.8661,-0.1445,0.6769,0,-0.725875,-0.262175,-0.72395,9.8405,-6.551,28.959,153.165,0.589675,-0.3275,0.808225,-1.31666666666667,-2.25166666666667,-1.17483333333333,0.74,-0.416771428571429,-0.873785714285714,0.151171428571429,0.965333333333333,0.325333333333333,-0.355666666666667,600.930333333333,1,1,1,1
24-May-2018 12:53:40,164.222222222222,0.752514285714286,0.0135571428571429,-0.584342857142857,0.8661,-0.1445,0.6769,0,-0.725875,-0.262175,-0.72395,9.8405,-6.551,28.959,153.165,0.589675,-0.3275,0.808225,-1.31666666666667,-2.25166666666667,-1.17483333333333,0.74,-0.416771428571429,-0.873785714285714,0.151171428571429,0.965333333333333,0.325333333333333,-0.355666666666667,600.930333333333,1,1,1,1
24-May-2018 12:53:41,150,0.749983333333333,0.00806666666666667,-0.587216666666667,0.396875,0.283125,0.03975,3.247,-0.81498,-0.13566,-0.73662,-24.66625,13.2065,25.172375,129.683,0.59244,-0.32504,0.80836,-0.1065,0.305,0.35075,0.7936,-0.408866666666667,-0.877666666666667,0.151333333333333,-0.0203333333333333,0.162666666666667,-0.5185,602.812,1,1,1,1
24-May-2018 12:53:41,150,0.749983333333333,0.00806666666666667,-0.587216666666667,0.396875,0.283125,0.03975,3.247,-0.81498,-0.13566,-0.73662,-24.66625,13.2065,25.172375,129.683,0.59244,-0.32504,0.80836,-0.1065,0.305,0.35075,0.7936,-0.408866666666667,-0.877666666666667,0.151333333333333,-0.0203333333333333,0.162666666666667,-0.5185,602.812,1,1,1,1
24-May-2018 12:53:41,150,0.749983333333333,0.00806666666666667,-0.587216666666667,0.396875,0.283125,0.03975,3.247,-0.81498,-0.13566,-0.73662,-24.66625,13.2065,25.172375,129.683,0.59244,-0.32504,0.80836,-0.1065,0.305,0.35075,0.7936,-0.408866666666667,-0.877666666666667,0.151333333333333,-0.0203333333333333,0.162666666666667,-0.5185,602.812,1,1,1,1
24-May-2018 12:53:41,150,0.749983333333333,0.00806666666666667,-0.587216666666667,0.396875,0.283125,0.03975,3.247,-0.81498,-0.13566,-0.73662,-24.66625,13.2065,25.172375,129.683,0.59244,-0.32504,0.80836,-0.1065,0.305,0.35075,0.7936,-0.408866666666667,-0.877666666666667,0.151333333333333,-0.0203333333333333,0.162666666666667,-0.5185,602.812,1,1,1,1
24-May-2018 12:53:42,520.285714285714,0.753725,0.01795,-0.582625,0.69425,-0.31575,0.8395,3.2316,-0.81965,0.0657,-0.5593,-31.3571428571429,2.79057142857143,12.2015714285714,129.683,0.582266666666667,-0.330666666666667,0.8139,-0.513333333333333,-0.718333333333333,0.00216666666666668,0.7255,-0.407133333333333,-0.880566666666667,0.153466666666667,0.9605,0.35075,-0.3355,606.0455,1,1,1,1
24-May-2018 12:53:42,520.285714285714,0.753725,0.01795,-0.582625,0.69425,-0.31575,0.8395,3.2316,-0.81965,0.0657,-0.5593,-31.3571428571429,2.79057142857143,12.2015714285714,129.683,0.582266666666667,-0.330666666666667,0.8139,-0.513333333333333,-0.718333333333333,0.00216666666666668,0.7255,-0.407133333333333,-0.880566666666667,0.153466666666667,0.9605,0.35075,-0.3355,606.0455,1,1,1,1
24-May-2018 12:53:42,520.285714285714,0.753725,0.01795,-0.582625,0.69425,-0.31575,0.8395,3.2316,-0.81965,0.0657,-0.5593,-31.3571428571429,2.79057142857143,12.2015714285714,129.683,0.582266666666667,-0.330666666666667,0.8139,-0.513333333333333,-0.718333333333333,0.00216666666666668,0.7255,-0.407133333333333,-0.880566666666667,0.153466666666667,0.9605,0.35075,-0.3355,606.0455,1,1,1,1
24-May-2018 12:53:42,520.285714285714,0.753725,0.01795,-0.582625,0.69425,-0.31575,0.8395,3.2316,-0.81965,0.0657,-0.5593,-31.3571428571429,2.79057142857143,12.2015714285714,129.683,0.582266666666667,-0.330666666666667,0.8139,-0.513333333333333,-0.718333333333333,0.00216666666666668,0.7255,-0.407133333333333,-0.880566666666667,0.153466666666667,0.9605,0.35075,-0.3355,606.0455,1,1,1,1
24-May-2018 12:53:43,1189.9,0.748625,0.0067,-0.591625,1.301,-0.463333333333333,0.61,3.14,-0.846775,0.025825,-0.6216,14.6231111111111,-23.58,7.81911111111111,130.8295,0.580625,-0.32795,0.81695,-0.6578,-1.056,-0.532,0.734,-0.4094,-0.8785,0.158628571428571,1.3292,0.8174,0.2196,609.619,1,1,1,1
24-May-2018 12:53:43,1189.9,0.748625,0.0067,-0.591625,1.301,-0.463333333333333,0.61,3.14,-0.846775,0.025825,-0.6216,14.6231111111111,-23.58,7.81911111111111,130.8295,0.580625,-0.32795,0.81695,-0.6578,-1.056,-0.532,0.734,-0.4094,-0.8785,0.158628571428571,1.3292,0.8174,0.2196,609.619,1,1,1,1
24-May-2018 12:53:43,1189.9,0.748625,0.0067,-0.591625,1.301,-0.463333333333333,0.61,3.14,-0.846775,0.025825,-0.6216,14.6231111111111,-23.58,7.81911111111111,130.8295,0.580625,-0.32795,0.81695,-0.6578,-1.056,-0.532,0.734,-0.4094,-0.8785,0.158628571428571,1.3292,0.8174,0.2196,609.619,1,1,1,1
24-May-2018 12:53:43,1189.9,0.748625,0.0067,-0.591625,1.301,-0.463333333333333,0.61,3.14,-0.846775,0.025825,-0.6216,14.6231111111111,-23.58,7.81911111111111,130.8295,0.580625,-0.32795,0.81695,-0.6578,-1.056,-0.532,0.734,-0.4094,-0.8785,0.158628571428571,1.3292,0.8174,0.2196,609.619,1,1,1,1
24-May-2018 12:53:44,1763.88888888889,0.74554,0.0034,-0.59356,0.6832,-0.0108,0.4636,3.099,-0.777266666666667,-0.0118,-0.588733333333333,-13.7595714285714,-24.2,-9.11,134.269,0.58835,-0.328925,0.809475,-1.56333333333333,-2.92333333333333,-1.17666666666667,0.734,-0.41485,-0.8707,0.164675,0.28975,0.16775,-0.8995,612.04925,1,1,1,1
24-May-2018 12:53:44,1763.88888888889,0.74554,0.0034,-0.59356,0.6832,-0.0108,0.4636,3.099,-0.777266666666667,-0.0118,-0.588733333333333,-13.7595714285714,-24.2,-9.11,134.269,0.58835,-0.328925,0.809475,-1.56333333333333,-2.92333333333333,-1.17666666666667,0.734,-0.41485,-0.8707,0.164675,0.28975,0.16775,-0.8995,612.04925,1,1,1,1
24-May-2018 12:53:44,1763.88888888889,0.74554,0.0034,-0.59356,0.6832,-0.0108,0.4636,3.099,-0.777266666666667,-0.0118,-0.588733333333333,-13.7595714285714,-24.2,-9.11,134.269,0.58835,-0.328925,0.809475,-1.56333333333333,-2.92333333333333,-1.17666666666667,0.734,-0.41485,-0.8707,0.164675,0.28975,0.16775,-0.8995,612.04925,1,1,1,1
24-May-2018 12:53:44,1763.88888888889,0.74554,0.0034,-0.59356,0.6832,-0.0108,0.4636,3.099,-0.777266666666667,-0.0118,-0.588733333333333,-13.7595714285714,-24.2,-9.11,134.269,0.58835,-0.328925,0.809475,-1.56333333333333,-2.92333333333333,-1.17666666666667,0.734,-0.41485,-0.8707,0.164675,0.28975,0.16775,-0.8995,612.04925,1,1,1,1
24-May-2018 12:53:45,1445.9,0.748116666666667,0.01175,-0.589416666666667,-0.0388333333333333,0.7015,-0.505,3.099,-0.8482,0.06805,-0.583675,-41.6125,-4.196125,-23.6625,134.269,0.5935,-0.326675,0.805325,-0.0596666666666667,-0.0593333333333333,0.102,0.752,-0.406366666666667,-0.8785,0.160616666666667,0.419375,0.282125,-0.53375,610.01,1,1,1,1
24-May-2018 12:53:45,1445.9,0.748116666666667,0.01175,-0.589416666666667,-0.0388333333333333,0.7015,-0.505,3.099,-0.8482,0.06805,-0.583675,-41.6125,-4.196125,-23.6625,134.269,0.5935,-0.326675,0.805325,-0.0596666666666667,-0.0593333333333333,0.102,0.752,-0.406366666666667,-0.8785,0.160616666666667,0.419375,0.282125,-0.53375,610.01,1,1,1,1
24-May-2018 12:53:45,1445.9,0.748116666666667,0.01175,-0.589416666666667,-0.0388333333333333,0.7015,-0.505,3.099,-0.8482,0.06805,-0.583675,-41.6125,-4.196125,-23.6625,134.269,0.5935,-0.326675,0.805325,-0.0596666666666667,-0.0593333333333333,0.102,0.752,-0.406366666666667,-0.8785,0.160616666666667,0.419375,0.282125,-0.53375,610.01,1,1,1,1
24-May-2018 12:53:45,1445.9,0.748116666666667,0.01175,-0.589416666666667,-0.0388333333333333,0.7015,-0.505,3.099,-0.8482,0.06805,-0.583675,-41.6125,-4.196125,-23.6625,134.269,0.5935,-0.326675,0.805325,-0.0596666666666667,-0.0593333333333333,0.102,0.752,-0.406366666666667,-0.8785,0.160616666666667,0.419375,0.282125,-0.53375,610.01,1,1,1,1
