TIME,HELMET_RAW,BELT_ACC_X,BELT_ACC_Y,BELT_ACC_Z,BELT_ANG_X,BELT_ANG_Y,BELT_ANG_Z,BELT_LUMINOSITY,NECK_ACC_X,NECK_ACC_Y,NECK_ACC_Z,NECK_ANG_X,NECK_ANG_Y,NECK_ANG_Z,NECK_LUMINOSITY,PCKT_ACC_X,PCKT_ACC_Y,PCKT_ACC_Z,PCKT_ANG_X,PCKT_ANG_Y,PCKT_ANG_Z,PCKT_LUMINOSITY,WRST_ACC_X,WRST_ACC_Y,WRST_ACC_Z,WRST_ANG_X,WRST_ANG_Y,WRST_ANG_Z,WRST_LUMINOSITY,IR_1,IR_2,IR_3,IR_4
24-May-2018 12:53:26,-1578.1,0.75612,0.01794,-0.57924,1.42333333333333,0.278333333333333,-0.432333333333333,3.46766666666667,-0.71072,0.06076,-0.68576,7.03111111111111,-4.43177777777778,-11.3455555555556,140.22,0.59084,-0.32986,0.8061,-0.825,-1.02428571428571,-0.511571428571428,0.75,-0.4159,-0.873857142857143,0.153357142857143,1.07716666666667,0.457333333333333,-0.0508333333333334,598.004,1,1,1,1
24-May-2018 12:53:26,-1578.1,0.75612,0.01794,-0.57924,1.42333333333333,0.278333333333333,-0.432333333333333,3.46766666666667,-0.71072,0.06076,-0.68576,7.03111111111111,-4.43177777777778,-11.3455555555556,140.22,0.59084,-0.32986,0.8061,-0.825,-1.02428571428571,-0.511571428571428,0.75,-0.4159,-0.873857142857143,0.153357142857143,1.07716666666667,0.457333333333333,-0.0508333333333334,598.004,1,1,1,1
24-May-2018 12:53:26,-1578.1,0.75612,0.01794,-0.57924,1.42333333333333,0.278333333333333,-0.432333333333333,3.46766666666667,-0.71072,0.06076,-0.68576,7.03111111111111,-4.43177777777778,-11.3455555555556,140.22,0.59084,-0.32986,0.8061,-0.825,-1.02428571428571,-0.511571428571428,0.75,-0.4159,-0.873857142857143,0.153357142857143,1.07716666666667,0.457333333333333,-0.0508333333333334,598.004,1,1,1,1
24-May-2018 12:53:26,-1578.1,0.75612,0.01794,-0.57924,1.42333333333333,0.278333333333333,-0.432333333333333,3.46766666666667,-0.71072,0.06076,-0.68576,7.03111111111111,-4.43177777777778,-11.3455555555556,140.22,0.59084,-0.32986,0.8061,-0.825,-1.02428571428571,-0.511571428571428,0.75,-0.4159,-0.873857142857143,0.153357142857143,1.07716666666667,0.457333333333333,-0.0508333333333334,598.004,1,1,1,1
24-May-2018 12:53:27,-1188.875,0.7474125,0.0053,-0.588625,1.756,-0.2184,-0.3994,3.138,-0.76482,0.02782,-0.74546,10.5126666666667,-7.55755555555556,-8.75655555555556,149.366,0.59295,-0.32755,0.8066,-0.363166666666667,-0.616666666666667,-0.0698333333333333,0.758,-0.408625,-0.8806375,0.1493375,-0.315166666666667,0.1525,-0.0305,599.031,1,1,1,1
24-May-2018 12:53:27,-1188.875,0.7474125,0.0053,-0.588625,1.756,-0.2184,-0.3994,3.138,-0.76482,0.02782,-0.74546,10.5126666666667,-7.55755555555556,-8.75655555555556,149.366,0.59295,-0.32755,0.8066,-0.363166666666667,-0.616666666666667,-0.0698333333333333,0.758,-0.408625,-0.8806375,0.1493375,-0.315166666666667,0.1525,-0.0305,599.031,1,1,1,1
24-May-2018 12:53:27,-1188.875,0.7474125,0.0053,-0.588625,1.756,-0.2184,-0.3994,3.138,-0.76482,0.02782,-0.74546,10.5126666666667,-7.55755555555556,-8.75655555555556,149.366,0.59295,-0.32755,0.8066,-0.363166666666667,-0.616666666666667,-0.0698333333333333,0.758,-0.408625,-0.8806375,0.1493375,-0.315166666666667,0.1525,-0.0305,599.031,1,1,1,1
24-May-2018 12:53:27,-1188.875,0.7474125,0.0053,-0.588625,1.756,-0.2184,-0.3994,3.138,-0.76482,0.02782,-0.74546,10.5126666666667,-7.55755555555556,-8.75655555555556,149.366,0.59295,-0.32755,0.8066,-0.363166666666667,-0.616666666666667,-0.0698333333333333,0.758,-0.408625,-0.8806375,0.1493375,-0.315166666666667,0.1525,-0.0305,599.031,1,1,1,1
24-May-2018 12:53:28,-927.7,0.749728571428571,0.0057,-0.587442857142857,0.331857142857143,0.540857142857143,-0.0148571428571428,3.217,-0.726275,-0.05645,-0.703275,34.5942857142857,-5.24771428571429,11.0947142857143,153.939,0.58175,-0.32935,0.81245,-0.62,-0.77,-0.315,0.752,-0.41174,-0.8803,0.1444,2.09071428571429,0.836285714285714,0.209142857142857,598.764,1,1,1,1
24-May-2018 12:53:28,-927.7,0.749728571428571,0.0057,-0.587442857142857,0.331857142857143,0.540857142857143,-0.0148571428571428,3.217,-0.726275,-0.05645,-0.703275,34.5942857142857,-5.24771428571429,11.0947142857143,153.939,0.58175,-0.32935,0.81245,-0.62,-0.77,-0.315,0.752,-0.41174,-0.8803,0.1444,2.09071428571429,0.836285714285714,0.209142857142857,598.764,1,1,1,1
24-May-2018 12:53:28,-927.7,0.749728571428571,0.0057,-0.587442857142857,0.331857142857143,0.540857142857143,-0.0148571428571428,3.217,-0.726275,-0.05645,-0.703275,34.5942857142857,-5.24771428571429,11.0947142857143,153.939,0.58175,-0.32935,0.81245,-0.62,-0.77,-0.315,0.752,-0.41174,-0.8803,0.1444,2.09071428571429,0.836285714285714,0.209142857142857,598.764,1,1,1,1
24-May-2018 12:53:28,-927.7,0.749728571428571,0.0057,-0.587442857142857,0.331857142857143,0.540857142857143,-0.0148571428571428,3.217,-0.726275,-0.05645,-0.703275,34.5942857142857,-5.24771428571429,11.0947142857143,153.939,0.58175,-0.32935,0.81245,-0.62,-0.77,-0.315,0.752,-0.41174,-0.8803,0.1444,2.09071428571429,0.836285714285714,0.209142857142857,598.764,1,1,1,1
24-May-2018 12:53:29,-675,0.7553125,0.0170375,-0.57995,0.705666666666667,0.139,0.583666666666667,3.217,-0.72575,-0.111875,-0.729,28.4625,-0.1285,21.4675,153.939,0.58754,-0.32776,0.8099,-1.072,-1.556,-0.838,0.746,-0.418516666666667,-0.873516666666667,0.15415,1.7835,0.76225,0.6705,600.055666666667,1,1,1,1
24-May-2018 12:53:29,-675,0.7553125,0.0170375,-0.57995,0.705666666666667,0.139,0.583666666666667,3.217,-0.72575,-0.111875,-0.729,28.4625,-0.1285,21.4675,153.939,0.58754,-0.32776,0.8099,-1.072,-1.556,-0.838,0.746,-0.418516666666667,-0.873516666666667,0.15415,1.7835,0.76225,0.6705,600.055666666667,1,1,1,1
24-May-2018 12:53:29,-675,0.7553125,0.0170375,-0.57995,0.705666666666667,0.139,0.583666666666667,3.217,-0.72575,-0.111875,-0.729,28.4625,-0.1285,21.4675,153.939,0.58754,-0.32776,0.8099,-1.072,-1.556,-0.838,0.746,-0.418516666666667,-0.873516666666667,0.15415,1.7835,0.76225,0.6705,600.055666666667,1,1,1,1
24-May-2018 12:53:29,-675,0.7553125,0.0170375,-0.57995,0.705666666666667,0.139,0.583666666666667,3.217,-0.72575,-0.111875,-0.729,28.4625,-0.1285,21.4675,153.939,0.58754,-0.32776,0.8099,-1.072,-1.556,-0.838,0.746,-0.418516666666667,-0.873516666666667,0.15415,1.7835,0.76225,0.6705,600.055666666667,1,1,1,1
24-May-2018 12:53:30,-448.5,0.752775,0.0067125,-0.5836875,0.65575,0.084875,0.541375,3.217,-0.80135,-0.096225,-0.846975,-11.1675,10.63025,22.51875,146.179,0.60066,-0.32682,0.79924,-0.1684,-0.6794,0.2686,0.803333333333333,-0.411714285714286,-0.879157142857143,0.147842857142857,0.435571428571428,0.0958571428571428,-0.653428571428571,599.772333333333,1,1,1,1
24-May-2018 12:53:30,-448.5,0.752775,0.0067125,-0.5836875,0.65575,0.084875,0.541375,3.217,-0.80135,-0.096225,-0.846975,-11.1675,10.63025,22.51875,146.179,0.60066,-0.32682,0.79924,-0.1684,-0.6794,0.2686,0.803333333333333,-0.411714285714286,-0.879157142857143,0.147842857142857,0.435571428571428,0.0958571428571428,-0.653428571428571,599.772333333333,1,1,1,1
24-May-2018 12:53:30,-448.5,0.752775,0.0067125,-0.5836875,0.65575,0.084875,0.541375,3.217,-0.80135,-0.096225,-0.846975,-11.1675,10.63025,22.51875,146.179,0.60066,-0.32682,0.79924,-0.1684,-0.6794,0.2686,0.803333333333333,-0.411714285714286,-0.879157142857143,0.147842857142857,0.435571428571428,0.0958571428571428,-0.653428571428571,599.772333333333,1,1,1,1
24-May-2018 12:53:30,-448.5,0.752775,0.0067125,-0.5836875,0.65575,0.084875,0.541375,3.217,-0.80135,-0.096225,-0.846975,-11.1675,10.63025,22.51875,146.179,0.60066,-0.32682,0.79924,-0.1684,-0.6794,0.2686,0.803333333333333,-0.411714285714286,-0.879157142857143,0.147842857142857,0.435571428571428,0.0958571428571428,-0.653428571428571,599.772333333333,1,1,1,1
24-May-2018 12:53:31,-303.777777777778,0.754311111111111,0.00961111111111111,-0.582455555555556,0.406666666666667,0.454111111111111,-0.113111111111111,3.217,-0.744633333333333,0.0282666666666667,-0.715533333333333,-43.8666666666667,15.0561666666667,4.441,146.179,0.58735,-0.3312,0.80905,-0.302666666666667,-0.483333333333333,0.103333333333333,0.8055,-0.407616666666667,-0.882466666666667,0.143483333333333,0.62,0.3355,-0.3355,597.613333333333,1,1,1,1
24-May-2018 12:53:31,-303.777777777778,0.754311111111111,0.00961111111111111,-0.582455555555556,0.406666666666667,0.454111111111111,-0.113111111111111,3.217,-0.744633333333333,0.0282666666666667,-0.715533333333333,-43.8666666666667,15.0561666666667,4.441,146.179,0.58735,-0.3312,0.80905,-0.302666666666667,-0.483333333333333,0.103333333333333,0.8055,-0.407616666666667,-0.882466666666667,0.143483333333333,0.62,0.3355,-0.3355,597.613333333333,1,1,1,1
24-May-2018 12:53:31,-303.777777777778,0.754311111111111,0.00961111111111111,-0.582455555555556,0.406666666666667,0.454111111111111,-0.113111111111111,3.217,-0.744633333333333,0.0282666666666667,-0.715533333333333,-43.8666666666667,15.0561666666667,4.441,146.179,0.58735,-0.3312,0.80905,-0.302666666666667,-0.483333333333333,0.103333333333333,0.8055,-0.407616666666667,-0.882466666666667,0.143483333333333,0.62,0.3355,-0.3355,597.613333333333,1,1,1,1
24-May-2018 12:53:31,-303.777777777778,0.754311111111111,0.00961111111111111,-0.582455555555556,0.406666666666667,0.454111111111111,-0.113111111111111,3.217,-0.744633333333333,0.0282666666666667,-0.715533333333333,-43.8666666666667,15.0561666666667,4.441,146.179,0.58735,-0.3312,0.80905,-0.302666666666667,-0.483333333333333,0.103333333333333,0.8055,-0.407616666666667,-0.882466666666667,0.143483333333333,0.62,0.3355,-0.3355,597.613333333333,1,1,1,1
24-May-2018 12:53:32,-187.222222222222,0.755825,0.019875,-0.57725,0.529666666666667,-0.0375,0.297666666666667,3.26066666666667,-0.75944,0.23824,-0.64928,-15.308375,-8.615,15.515,147.611333333333,0.58375,-0.32785,0.8136,-0.474,-0.8,-0.13,0.764,-0.409716666666667,-0.879933333333333,0.1431,0.512,0.8662,0.61,595.168,1,1,1,1
24-May-2018 12:53:32,-187.222222222222,0.755825,0.019875,-0.57725,0.529666666666667,-0.0375,0.297666666666667,3.26066666666667,-0.75944,0.23824,-0.64928,-15.308375,-8.615,15.515,147.611333333333,0.58375,-0.32785,0.8136,-0.474,-0.8,-0.13,0.764,-0.409716666666667,-0.879933333333333,0.1431,0.512,0.8662,0.61,595.168,1,1,1,1
24-May-2018 12:53:32,-187.222222222222,0.755825,0.019875,-0.57725,0.529666666666667,-0.0375,0.297666666666667,3.26066666666667,-0.75944,0.23824,-0.64928,-15.308375,-8.615,15.515,147.611333333333,0.58375,-0.32785,0.8136,-0.474,-0.8,-0.13,0.764,-0.409716666666667,-0.879933333333333,0.1431,0.512,0.8662,0.61,595.168,1,1,1,1
24-May-2018 12:53:32,-187.222222222222,0.755825,0.019875,-0.57725,0.529666666666667,-0.0375,0.297666666666667,3.26066666666667,-0.75944,0.23824,-0.64928,-15.308375,-8.615,15.515,147.611333333333,0.58375,-0.32785,0.8136,-0.474,-0.8,-0.13,0.764,-0.409716666666667,-0.879933333333333,0.1431,0.512,0.8662,0.61,595.168,1,1,1,1
24-May-2018 12:53:33,-84.4,0.752085714285714,0.00858571428571429,-0.583114285714286,0.810285714285714,0.00185714285714286,0.653571428571428,3.26033333333333,-0.74958,0.18604,-0.67164,-1.18957142857143,-12.8642857142857,-5.19428571428571,150.476,0.593371428571429,-0.328071428571429,0.804085714285714,-1.07333333333333,-1.86333333333333,-1.03333333333333,0.746,-0.4189,-0.872875,0.143325,0.5488,0.6466,-0.0488,591.029,1,1,1,1
24-May-2018 12:53:33,-84.4,0.752085714285714,0.00858571428571429,-0.583114285714286,0.810285714285714,0.00185714285714286,0.653571428571428,3.26033333333333,-0.74958,0.18604,-0.67164,-1.18957142857143,-12.8642857142857,-5.19428571428571,150.476,0.593371428571429,-0.328071428571429,0.804085714285714,-1.07333333333333,-1.86333333333333,-1.03333333333333,0.746,-0.4189,-0.872875,0.143325,0.5488,0.6466,-0.0488,591.029,1,1,1,1
24-May-2018 12:53:33,-84.4,0.752085714285714,0.00858571428571429,-0.583114285714286,0.810285714285714,0.00185714285714286,0.653571428571428,3.26033333333333,-0.74958,0.18604,-0.67164,-1.18957142857143,-12.8642857142857,-5.19428571428571,150.476,0.593371428571429,-0.328071428571429,0.804085714285714,-1.07333333333333,-1.86333333333333,-1.03333333333333,0.746,-0.4189,-0.872875,0.143325,0.5488,0.6466,-0.0488,591.029,1,1,1,1
24-May-2018 12:53:33,-84.4,0.752085714285714,0.00858571428571429,-0.583114285714286,0.810285714285714,0.00185714285714286,0.653571428571428,3.26033333333333,-0.74958,0.18604,-0.67164,-1.18957142857143,-12.8642857142857,-5.19428571428571,150.476,0.593371428571429,-0.328071428571429,0.804085714285714,-1.07333333333333,-1.86333333333333,-1.03333333333333,0.746,-0.4189,-0.872875,0.143325,0.5488,0.6466,-0.0488,591.029,1,1,1,1
24-May-2018 12:53:34,-14.7777777777778,0.752642857142857,0.008,-0.5836,0.3904,0.1726,0.2692,3.2904,-0.738675,0.237475,-0.6894,-36.7285714285714,-5.404,-15.2428571428571,150.476,0.593625,-0.32775,0.806975,0.001,-0.04325,0.19825,0.853,-0.410328571428571,-0.879942857142857,0.140757142857143,0.45725,0.10675,-0.91475,594.6685,1,1,1,1
24-May-2018 12:53:34,-14.7777777777778,0.752642857142857,0.008,-0.5836,0.3904,0.1726,0.2692,3.2904,-0.738675,0.237475,-0.6894,-36.7285714285714,-5.404,-15.2428571428571,150.476,0.593625,-0.32775,0.806975,0.001,-0.04325,0.19825,0.853,-0.410328571428571,-0.879942857142857,0.140757142857143,0.45725,0.10675,-0.91475,594.6685,1,1,1,1
24-May-2018 12:53:34,-14.7777777777778,0.752642857142857,0.008,-0.5836,0.3904,0.1726,0.2692,3.2904,-0.738675,0.237475,-0.6894,-36.7285714285714,-5.404,-15.2428571428571,150.476,0.593625,-0.32775,0.806975,0.001,-0.04325,0.19825,0.853,-0.410328571428571,-0.879942857142857,0.140757142857143,0.45725,0.10675,-0.91475,594.6685,1,1,1,1
24-May-2018 12:53:34,-14.7777777777778,0.752642857142857,0.008,-0.5836,0.3904,0.1726,0.2692,3.2904,-0.738675,0.237475,-0.6894,-36.7285714285714,-5.404,-15.2428571428571,150.476,0.593625,-0.32775,0.806975,0.001,-0.04325,0.19825,0.853,-0.410328571428571,-0.879942857142857,0.140757142857143,0.45725,0.10675,-0.91475,594.6685,1,1,1,1
24-May-2018 12:53:35,116.7,0.756675,0.019325,-0.576875,0.2074,0.4758,-0.388,3.27,-0.7555,0.272383333333333,-0.75245,-15.430875,7.34125,-25.45,140.608,0.583733333333333,-0.329633333333333,0.811633333333333,-0.285,-0.4525,-0.08975,0.736333333333333,-0.408533333333333,-0.8818,0.1426,0.6832,0.3782,-0.2074,600.387,1,1,1,1
24-May-2018 12:53:35,116.7,0.756675,0.019325,-0.576875,0.2074,0.4758,-0.388,3.27,-0.7555,0.272383333333333,-0.75245,-15.430875,7.34125,-25.45,140.608,0.583733333333333,-0.329633333333333,0.811633333333333,-0.285,-0.4525,-0.08975,0.736333333333333,-0.408533333333333,-0.8818,0.1426,0.6832,0.3782,-0.2074,600.387,1,1,1,1
24-May-2018 12:53:35,116.7,0.756675,0.019325,-0.576875,0.2074,0.4758,-0.388,3.27,-0.7555,0.272383333333333,-0.75245,-15.430875,7.34125,-25.45,140.608,0.583733333333333,-0.329633333333333,0.811633333333333,-0.285,-0.4525,-0.08975,0.736333333333333,-0.408533333333333,-0.8818,0.1426,0.6832,0.3782,-0.2074,600.387,1,1,1,1
24-May-2018 12:53:35,116.7,0.756675,0.019325,-0.576875,0.2074,0.4758,-0.388,3.27,-0.7555,0.272383333333333,-0.75245,-15.430875,7.34125,-25.45,140.608,0.583733333333333,-0.329633333333333,0.811633333333333,-0.285,-0.4525,-0.08975,0.736333333333333,-0.408533333333333,-0.8818,0.1426,0.6832,0.3782,-0.2074,600.387,1,1,1,1
