TIME,HELMET_RAW,BELT_ACC_X,BELT_ACC_Y,BELT_ACC_Z,BELT_ANG_X,BELT_ANG_Y,BELT_ANG_Z,BELT_LUMINOSITY,NECK_ACC_X,NECK_ACC_Y,NECK_ACC_Z,NECK_ANG_X,NECK_ANG_Y,NECK_ANG_Z,NECK_LUMINOSITY,PCKT_ACC_X,PCKT_ACC_Y,PCKT_ACC_Z,PCKT_ANG_X,PCKT_ANG_Y,PCKT_ANG_Z,PCKT_LUMINOSITY,WRST_ACC_X,WRST_ACC_Y,WRST_ACC_Z,WRST_ANG_X,WRST_ANG_Y,WRST_ANG_Z,WRST_LUMINOSITY,IR_1,IR_2,IR_3,IR_4
24-May-2018 12:53:16,-295.888888888889,0.76225,0.0155666666666667,-0.570216666666667,0.0808571428571429,0.366714285714286,-0.267714285714286,3.531,-0.875175,0.297075,-0.556175,73.5057142857143,-5.49428571428571,75.9,95.253,0.59155,-0.33055,0.8062,-0.6825,-0.85,-0.23975,0.809666666666667,-0.4174875,-0.881675,0.1071875,0.453142857142857,0.671,0.470428571428571,555.875,1,1,1,1
24-May-2018 12:53:16,-295.888888888889,0.76225,0.0155666666666667,-0.570216666666667,0.0808571428571429,0.366714285714286,-0.267714285714286,3.531,-0.875175,0.297075,-0.556175,73.5057142857143,-5.49428571428571,75.9,95.253,0.59155,-0.33055,0.8062,-0.6825,-0.85,-0.23975,0.809666666666667,-0.4174875,-0.881675,0.1071875,0.453142857142857,0.671,0.470428571428571,555.875,1,1,1,1
24-May-2018 12:53:16,-295.888888888889,0.76225,0.0155666666666667,-0.570216666666667,0.0808571428571429,0.366714285714286,-0.267714285714286,3.531,-0.875175,0.297075,-0.556175,73.5057142857143,-5.49428571428571,75.9,95.253,0.59155,-0.33055,0.8062,-0.6825,-0.85,-0.23975,0.809666666666667,-0.4174875,-0.881675,0.1071875,0.453142857142857,0.671,0.470428571428571,555.875,1,1,1,1
24-May-2018 12:53:16,-295.888888888889,0.76225,0.0155666666666667,-0.570216666666667,0.0808571428571429,0.366714285714286,-0.267714285714286,3.531,-0.875175,0.297075,-0.556175,73.5057142857143,-5.49428571428571,75.9,95.253,0.59155,-0.33055,0.8062,-0.6825,-0.85,-0.23975,0.809666666666667,-0.4174875,-0.881675,0.1071875,0.453142857142857,0.671,0.470428571428571,555.875,1,1,1,1
24-May-2018 12:53:17,-424.333333333333,0.76112,0.02322,-0.57358,1.11783333333333,-0.453166666666667,0.996166666666667,3.55466666666667,-0.76108,0.4006,-0.5384,91.025,-8.6589,85.806,97.3896666666667,0.5969,-0.32905,0.8007,-0.6675,-1.6575,-0.5125,0.788,-0.44235,-0.865175,0.1061,1.05683333333333,0.477833333333333,0.0205,554.542,1,1,1,1
24-May-2018 12:53:17,-424.333333333333,0.76112,0.02322,-0.57358,1.11783333333333,-0.453166666666667,0.996166666666667,3.55466666666667,-0.76108,0.4006,-0.5384,91.025,-8.6589,85.806,97.3896666666667,0.5969,-0.32905,0.8007,-0.6675,-1.6575,-0.5125,0.788,-0.44235,-0.865175,0.1061,1.05683333333333,0.477833333333333,0.0205,554.542,1,1,1,1
24-May-2018 12:53:17,-424.333333333333,0.76112,0.02322,-0.57358,1.11783333333333,-0.453166666666667,0.996166666666667,3.55466666666667,-0.76108,0.4006,-0.5384,91.025,-8.6589,85.806,97.3896666666667,0.5969,-0.32905,0.8007,-0.6675,-1.6575,-0.5125,0.788,-0.44235,-0.865175,0.1061,1.05683333333333,0.477833333333333,0.0205,554.542,1,1,1,1
24-May-2018 12:53:17,-424.333333333333,0.76112,0.02322,-0.57358,1.11783333333333,-0.453166666666667,0.996166666666667,3.55466666666667,-0.76108,0.4006,-0.5384,91.025,-8.6589,85.806,97.3896666666667,0.5969,-0.32905,0.8007,-0.6675,-1.6575,-0.5125,0.788,-0.44235,-0.865175,0.1061,1.05683333333333,0.477833333333333,0.0205,554.542,1,1,1,1
24-May-2018 12:53:18,-650.555555555556,0.757416666666667,0.0140166666666667,-0.577766666666667,0.914666666666667,0.122333333333333,0.650666666666667,3.555,-0.786325,0.4025,-0.59435,130.271428571429,-23.6142857142857,91.9557142857143,101.663,0.604333333333333,-0.3274,0.7963,-0.546333333333333,-1.27633333333333,-0.343333333333333,0.7845,-0.42338,-0.87854,0.10742,1.6584,-0.2196,-0.866,554.23025,1,1,1,1
24-May-2018 12:53:18,-650.555555555556,0.757416666666667,0.0140166666666667,-0.577766666666667,0.914666666666667,0.122333333333333,0.650666666666667,3.555,-0.786325,0.4025,-0.59435,130.271428571429,-23.6142857142857,91.9557142857143,101.663,0.604333333333333,-0.3274,0.7963,-0.546333333333333,-1.27633333333333,-0.343333333333333,0.7845,-0.42338,-0.87854,0.10742,1.6584,-0.2196,-0.866,554.23025,1,1,1,1
24-May-2018 12:53:18,-650.555555555556,0.757416666666667,0.0140166666666667,-0.577766666666667,0.914666666666667,0.122333333333333,0.650666666666667,3.555,-0.786325,0.4025,-0.59435,130.271428571429,-23.6142857142857,91.9557142857143,101.663,0.604333333333333,-0.3274,0.7963,-0.546333333333333,-1.27633333333333,-0.343333333333333,0.7845,-0.42338,-0.87854,0.10742,1.6584,-0.2196,-0.866,554.23025,1,1,1,1
24-May-2018 12:53:18,-650.555555555556,0.757416666666667,0.0140166666666667,-0.577766666666667,0.914666666666667,0.122333333333333,0.650666666666667,3.555,-0.786325,0.4025,-0.59435,130.271428571429,-23.6142857142857,91.9557142857143,101.663,0.604333333333333,-0.3274,0.7963,-0.546333333333333,-1.27633333333333,-0.343333333333333,0.7845,-0.42338,-0.87854,0.10742,1.6584,-0.2196,-0.866,554.23025,1,1,1,1
24-May-2018 12:53:19,-1020.8,0.75698,0.01146,-0.57794,0.61,-0.0116,0.4026,3.555,-0.7644,0.2853,-0.6243,112.386,-31.88,76.922,101.663,0.594325,-0.329675,0.804125,-0.483333333333333,-0.263,-0.343333333333333,0.821333333333333,-0.42056,-0.8851,0.1019,0.691,0.528333333333333,0.772333333333333,555.290666666667,1,1,1,1
24-May-2018 12:53:19,-1020.8,0.75698,0.01146,-0.57794,0.61,-0.0116,0.4026,3.555,-0.7644,0.2853,-0.6243,112.386,-31.88,76.922,101.663,0.594325,-0.329675,0.804125,-0.483333333333333,-0.263,-0.343333333333333,0.821333333333333,-0.42056,-0.8851,0.1019,0.691,0.528333333333333,0.772333333333333,555.290666666667,1,1,1,1
24-May-2018 12:53:19,-1020.8,0.75698,0.01146,-0.57794,0.61,-0.0116,0.4026,3.555,-0.7644,0.2853,-0.6243,112.386,-31.88,76.922,101.663,0.594325,-0.329675,0.804125,-0.483333333333333,-0.263,-0.343333333333333,0.821333333333333,-0.42056,-0.8851,0.1019,0.691,0.528333333333333,0.772333333333333,555.290666666667,1,1,1,1
24-May-2018 12:53:19,-1020.8,0.75698,0.01146,-0.57794,0.61,-0.0116,0.4026,3.555,-0.7644,0.2853,-0.6243,112.386,-31.88,76.922,101.663,0.594325,-0.329675,0.804125,-0.483333333333333,-0.263,-0.343333333333333,0.821333333333333,-0.42056,-0.8851,0.1019,0.691,0.528333333333333,0.772333333333333,555.290666666667,1,1,1,1
24-May-2018 12:53:20,-1240.375,0.7621875,0.01815,-0.5708625,0.0421111111111111,0.630888888888889,-0.0117777777777778,3.555,-0.7027,0.2653,-0.6517,75.6522222222222,-11.1711111111111,49.8944444444444,101.663,0.59422,-0.33218,0.80334,-0.88,-1.485,-0.79,0.7664,-0.436175,-0.869225,0.11335,2.61328571428571,0.810285714285714,0.618571428571429,556.958,1,1,1,1
24-May-2018 12:53:20,-1240.375,0.7621875,0.01815,-0.5708625,0.0421111111111111,0.630888888888889,-0.0117777777777778,3.555,-0.7027,0.2653,-0.6517,75.6522222222222,-11.1711111111111,49.8944444444444,101.663,0.59422,-0.33218,0.80334,-0.88,-1.485,-0.79,0.7664,-0.436175,-0.869225,0.11335,2.61328571428571,0.810285714285714,0.618571428571429,556.958,1,1,1,1
24-May-2018 12:53:20,-1240.375,0.7621875,0.01815,-0.5708625,0.0421111111111111,0.630888888888889,-0.0117777777777778,3.555,-0.7027,0.2653,-0.6517,75.6522222222222,-11.1711111111111,49.8944444444444,101.663,0.59422,-0.33218,0.80334,-0.88,-1.485,-0.79,0.7664,-0.436175,-0.869225,0.11335,2.61328571428571,0.810285714285714,0.618571428571429,556.958,1,1,1,1
24-May-2018 12:53:20,-1240.375,0.7621875,0.01815,-0.5708625,0.0421111111111111,0.630888888888889,-0.0117777777777778,3.555,-0.7027,0.2653,-0.6517,75.6522222222222,-11.1711111111111,49.8944444444444,101.663,0.59422,-0.33218,0.80334,-0.88,-1.485,-0.79,0.7664,-0.436175,-0.869225,0.11335,2.61328571428571,0.810285714285714,0.618571428571429,556.958,1,1,1,1
24-May-2018 12:53:21,-1312.85714285714,0.761657142857143,0.0186714285714286,-0.570914285714286,0.925,-0.474166666666667,1.057,3.555,-0.71672,0.26222,-0.77838,62.2675,-19.18125,36.86125,123.2435,0.6037,-0.3295,0.79705,0.47,-0.0996666666666666,0.691,0.794,-0.4271,-0.8703,0.113,-0.183,0.0366,-1.1218,565.4325,1,1,1,1
24-May-2018 12:53:21,-1312.85714285714,0.761657142857143,0.0186714285714286,-0.570914285714286,0.925,-0.474166666666667,1.057,3.555,-0.71672,0.26222,-0.77838,62.2675,-19.18125,36.86125,123.2435,0.6037,-0.3295,0.79705,0.47,-0.0996666666666666,0.691,0.794,-0.4271,-0.8703,0.113,-0.183,0.0366,-1.1218,565.4325,1,1,1,1
24-May-2018 12:53:21,-1312.85714285714,0.761657142857143,0.0186714285714286,-0.570914285714286,0.925,-0.474166666666667,1.057,3.555,-0.71672,0.26222,-0.77838,62.2675,-19.18125,36.86125,123.2435,0.6037,-0.3295,0.79705,0.47,-0.0996666666666666,0.691,0.794,-0.4271,-0.8703,0.113,-0.183,0.0366,-1.1218,565.4325,1,1,1,1
24-May-2018 12:53:21,-1312.85714285714,0.761657142857143,0.0186714285714286,-0.570914285714286,0.925,-0.474166666666667,1.057,3.555,-0.71672,0.26222,-0.77838,62.2675,-19.18125,36.86125,123.2435,0.6037,-0.3295,0.79705,0.47,-0.0996666666666666,0.691,0.794,-0.4271,-0.8703,0.113,-0.183,0.0366,-1.1218,565.4325,1,1,1,1
24-May-2018 12:53:22,-1311.88888888889,0.756755555555556,0.0123333333333333,-0.5772,0.87675,-0.19675,0.29825,3.555,-0.6772,0.198,-0.7813,47.2375,-13.255,22.755,130.437,0.59245,-0.3285,0.8062,-0.199,-0.423333333333333,0.184,0.756,-0.420175,-0.87575,0.117675,0.479142857142857,0.287571428571429,-0.296142857142857,570.3785,1,1,1,1
24-May-2018 12:53:22,-1311.88888888889,0.756755555555556,0.0123333333333333,-0.5772,0.87675,-0.19675,0.29825,3.555,-0.6772,0.198,-0.7813,47.2375,-13.255,22.755,130.437,0.59245,-0.3285,0.8062,-0.199,-0.423333333333333,0.184,0.756,-0.420175,-0.87575,0.117675,0.479142857142857,0.287571428571429,-0.296142857142857,570.3785,1,1,1,1
24-May-2018 12:53:22,-1311.88888888889,0.756755555555556,0.0123333333333333,-0.5772,0.87675,-0.19675,0.29825,3.555,-0.6772,0.198,-0.7813,47.2375,-13.255,22.755,130.437,0.59245,-0.3285,0.8062,-0.199,-0.423333333333333,0.184,0.756,-0.420175,-0.87575,0.117675,0.479142857142857,0.287571428571429,-0.296142857142857,570.3785,1,1,1,1
24-May-2018 12:53:22,-1311.88888888889,0.756755555555556,0.0123333333333333,-0.5772,0.87675,-0.19675,0.29825,0,-0.6772,0.198,-0.7813,47.2375,-13.255,22.755,130.437,0.59245,-0.3285,0.8062,-0.199,-0.423333333333333,0.184,0.756,-0.420175,-0.87575,0.117675,0.479142857142857,0.287571428571429,-0.296142857142857,570.3785,1,1,1,1
24-May-2018 12:53:23,-1203.875,0.757733333333333,0.0187833333333333,-0.576233333333333,0.3355,0.478833333333333,-0.5355,3.5735,-0.68854,0.16476,-0.75358,21.9044444444444,-0.485444444444444,0.516,130.437,0.5926,-0.32975,0.805425,-0.79,-1.46,-0.3925,0.752,-0.42225,-0.884825,0.124025,2.178,0.592571428571429,-0.331,574.5155,1,1,1,1
24-May-2018 12:53:23,-1203.875,0.757733333333333,0.0187833333333333,-0.576233333333333,0.3355,0.478833333333333,-0.5355,3.5735,-0.68854,0.16476,-0.75358,21.9044444444444,-0.485444444444444,0.516,130.437,0.5926,-0.32975,0.805425,-0.79,-1.46,-0.3925,0.752,-0.42225,-0.884825,0.124025,2.178,0.592571428571429,-0.331,574.5155,1,1,1,1
24-May-2018 12:53:23,-1203.875,0.757733333333333,0.0187833333333333,-0.576233333333333,0.3355,0.478833333333333,-0.5355,3.5735,-0.68854,0.16476,-0.75358,21.9044444444444,-0.485444444444444,0.516,130.437,0.5926,-0.32975,0.805425,-0.79,-1.46,-0.3925,0.752,-0.42225,-0.884825,0.124025,2.178,0.592571428571429,-0.331,574.5155,1,1,1,1
24-May-2018 12:53:23,-1203.875,0.757733333333333,0.0187833333333333,-0.576233333333333,0.3355,0.478833333333333,-0.5355,3.5735,-0.68854,0.16476,-0.75358,21.9044444444444,-0.485444444444444,0.516,130.437,0.5926,-0.32975,0.805425,-0.79,-1.46,-0.3925,0.752,-0.42225,-0.884825,0.124025,2.178,0.592571428571429,-0.331,574.5155,1,1,1,1
24-May-2018 12:53:24,-1463,0.757257142857143,0.0226,-0.578628571428571,0.993,-0.450714285714286,1.08014285714286,3.50533333333333,-0.71885,0.136775,-0.80965,22.57,2.462625,0.70125,136.959,0.602233333333333,-0.3273,0.797633333333333,0.935333333333333,-1.48,0.55,0.77,-0.4121,-0.878585714285714,0.146714285714286,0.4775,-0.548666666666667,-0.752166666666667,587.408666666667,1,1,1,1
24-May-2018 12:53:24,-1463,0.757257142857143,0.0226,-0.578628571428571,0.993,-0.450714285714286,1.08014285714286,3.50533333333333,-0.71885,0.136775,-0.80965,22.57,2.462625,0.70125,136.959,0.602233333333333,-0.3273,0.797633333333333,0.935333333333333,-1.48,0.55,0.77,-0.4121,-0.878585714285714,0.146714285714286,0.4775,-0.548666666666667,-0.752166666666667,587.408666666667,1,1,1,1
24-May-2018 12:53:24,-1463,0.757257142857143,0.0226,-0.578628571428571,0.993,-0.450714285714286,1.08014285714286,3.50533333333333,-0.71885,0.136775,-0.80965,22.57,2.462625,0.70125,136.959,0.602233333333333,-0.3273,0.797633333333333,0.935333333333333,-1.48,0.55,0.77,-0.4121,-0.878585714285714,0.146714285714286,0.4775,-0.548666666666667,-0.752166666666667,587.408666666667,1,1,1,1
24-May-2018 12:53:24,-1463,0.757257142857143,0.0226,-0.578628571428571,0.993,-0.450714285714286,1.08014285714286,3.50533333333333,-0.71885,0.136775,-0.80965,22.57,2.462625,0.70125,136.959,0.602233333333333,-0.3273,0.797633333333333,0.935333333333333,-1.48,0.55,0.77,-0.4121,-0.878585714285714,0.146714285714286,0.4775,-0.548666666666667,-0.752166666666667,587.408666666667,1,1,1,1
24-May-2018 12:53:25,-1592,0.753425,0.0144125,-0.5831625,0.7625,0.0126666666666667,0.427,3.53933333333333,-0.7511,0.12765,-0.7862,16.2991111111111,9.59188888888889,0.103333333333333,140.22,0.5921,-0.3308,0.8046,1.2195,-0.0285,1.7375,0.791666666666667,-0.40275,-0.885966666666667,0.149383333333333,0.731714285714286,0.139285714285714,0.339714285714286,600.72225,1,1,1,1
24-May-2018 12:53:25,-1592,0.753425,0.0144125,-0.5831625,0.7625,0.0126666666666667,0.427,3.53933333333333,-0.7511,0.12765,-0.7862,16.2991111111111,9.59188888888889,0.103333333333333,140.22,0.5921,-0.3308,0.8046,1.2195,-0.0285,1.7375,0.791666666666667,-0.40275,-0.885966666666667,0.149383333333333,0.731714285714286,0.139285714285714,0.339714285714286,600.72225,1,1,1,1
24-May-2018 12:53:25,-1592,0.753425,0.0144125,-0.5831625,0.7625,0.0126666666666667,0.427,3.53933333333333,-0.7511,0.12765,-0.7862,16.2991111111111,9.59188888888889,0.103333333333333,140.22,0.5921,-0.3308,0.8046,1.2195,-0.0285,1.7375,0.791666666666667,-0.40275,-0.885966666666667,0.149383333333333,0.731714285714286,0.139285714285714,0.339714285714286,600.72225,1,1,1,1
24-May-2018 12:53:25,-1592,0.753425,0.0144125,-0.5831625,0.7625,0.0126666666666667,0.427,3.53933333333333,-0.7511,0.12765,-0.7862,16.2991111111111,9.59188888888889,0.103333333333333,140.22,0.5921,-0.3308,0.8046,1.2195,-0.0285,1.7375,0.791666666666667,-0.40275,-0.885966666666667,0.149383333333333,0.731714285714286,0.139285714285714,0.339714285714286,600.72225,1,1,1,1
