TIME,HELMET_RAW,BELT_ACC_X,BELT_ACC_Y,BELT_ACC_Z,BELT_ANG_X,BELT_ANG_Y,BELT_ANG_Z,BELT_LUMINOSITY,NECK_ACC_X,NECK_ACC_Y,NECK_ACC_Z,NECK_ANG_X,NECK_ANG_Y,NECK_ANG_Z,NECK_LUMINOSITY,PCKT_ACC_X,PCKT_ACC_Y,PCKT_ACC_Z,PCKT_ANG_X,PCKT_ANG_Y,PCKT_ANG_Z,PCKT_LUMINOSITY,WRST_ACC_X,WRST_ACC_Y,WRST_ACC_Z,WRST_ANG_X,WRST_ANG_Y,WRST_ANG_Z,WRST_LUMINOSITY,IR_1,IR_2,IR_3,IR_4
24-May-2018 14:43:36,566.7,0.0908714285714286,-0.882571428571428,-0.389657142857143,0.57,-0.6255,0.275333333333333,0.201,0,0,0,0,0,0,0,-0.896016666666667,-0.0932166666666667,0.5818,-0.513333333333333,-0.809,-0.29,4.0014,0.218383333333333,-0.941833333333333,0.291783333333333,0.386166666666667,0.731666666666667,-0.6505,631.5118,1,1,1,1
24-May-2018 14:43:36,566.7,0.0908714285714286,-0.882571428571428,-0.389657142857143,0.57,-0.6255,0.275333333333333,0.201,0,0,0,0,0,0,0,-0.896016666666667,-0.0932166666666667,0.5818,-0.513333333333333,-0.809,-0.29,4.0014,0.218383333333333,-0.941833333333333,0.291783333333333,0.386166666666667,0.731666666666667,-0.6505,631.5118,1,1,1,1
24-May-2018 14:43:36,566.7,0.0908714285714286,-0.882571428571428,-0.389657142857143,0.57,-0.6255,0.275333333333333,0.201,0,0,0,0,0,0,0,-0.896016666666667,-0.0932166666666667,0.5818,-0.513333333333333,-0.809,-0.29,4.0014,0.218383333333333,-0.941833333333333,0.291783333333333,0.386166666666667,0.731666666666667,-0.6505,631.5118,1,1,1,1
24-May-2018 14:43:36,566.7,0.0908714285714286,-0.882571428571428,-0.389657142857143,0.57,-0.6255,0.275333333333333,0.201,0,0,0,0,0,0,0,-0.896016666666667,-0.0932166666666667,0.5818,-0.513333333333333,-0.809,-0.29,4.0014,0.218383333333333,-0.941833333333333,0.291783333333333,0.386166666666667,0.731666666666667,-0.6505,631.5118,1,1,1,1
24-May-2018 14:43:37,458.545454545455,0.0908714285714286,-0.882571428571428,-0.389657142857143,0.57,-0.6255,0.275333333333333,0.201,0,0,0,0,0,0,0,-0.897511111111111,-0.093,0.580222222222222,-0.542,-1.018,-0.192,3.999,0.2341,-0.941425,0.278425,-1.25,1.16866666666667,-2.60166666666667,626.9335,1,1,1,1
24-May-2018 14:43:37,458.545454545455,0.0908714285714286,-0.882571428571428,-0.389657142857143,0.57,-0.6255,0.275333333333333,0.201,0,0,0,0,0,0,0,-0.897511111111111,-0.093,0.580222222222222,-0.542,-1.018,-0.192,3.999,0.2341,-0.941425,0.278425,-1.25,1.16866666666667,-2.60166666666667,626.9335,1,1,1,1
24-May-2018 14:43:37,458.545454545455,0.0908714285714286,-0.882571428571428,-0.389657142857143,0.57,-0.6255,0.275333333333333,0.201,0,0,0,0,0,0,0,-0.897511111111111,-0.093,0.580222222222222,-0.542,-1.018,-0.192,3.999,0.2341,-0.941425,0.278425,-1.25,1.16866666666667,-2.60166666666667,626.9335,1,1,1,1
24-May-2018 14:43:37,458.545454545455,0.0908714285714286,-0.882571428571428,-0.389657142857143,0.57,-0.6255,0.275333333333333,0.201,0,0,0,0,0,0,0,-0.897511111111111,-0.093,0.580222222222222,-0.542,-1.018,-0.192,3.999,0.2341,-0.941425,0.278425,-1.25,1.16866666666667,-2.60166666666667,626.9335,1,1,1,1
24-May-2018 14:43:38,271.25,0.0908714285714286,-0.882571428571428,-0.389657142857143,0.57,-0.6255,0.275333333333333,0.201,0,0,0,0,0,0,0,-0.8959,-0.0922,0.580766666666667,-0.563333333333333,-0.91,-0.24,4.011,0.255728571428571,-0.9417,0.262885714285714,-0.121833333333333,0.325333333333333,-0.548833333333333,621.4175,1,1,1,1
24-May-2018 14:43:38,271.25,0.0908714285714286,-0.882571428571428,-0.389657142857143,0.57,-0.6255,0.275333333333333,0.201,0,0,0,0,0,0,0,-0.8959,-0.0922,0.580766666666667,-0.563333333333333,-0.91,-0.24,4.011,0.255728571428571,-0.9417,0.262885714285714,-0.121833333333333,0.325333333333333,-0.548833333333333,621.4175,1,1,1,1
24-May-2018 14:43:38,271.25,0.0908714285714286,-0.882571428571428,-0.389657142857143,0.57,-0.6255,0.275333333333333,0.201,0,0,0,0,0,0,0,-0.8959,-0.0922,0.580766666666667,-0.563333333333333,-0.91,-0.24,4.011,0.255728571428571,-0.9417,0.262885714285714,-0.121833333333333,0.325333333333333,-0.548833333333333,621.4175,1,1,1,1
24-May-2018 14:43:38,271.25,0.0908714285714286,-0.882571428571428,-0.389657142857143,0.57,-0.6255,0.275333333333333,0.201,0,0,0,0,0,0,0,-0.8959,-0.0922,0.580766666666667,-0.563333333333333,-0.91,-0.24,4.011,0.255728571428571,-0.9417,0.262885714285714,-0.121833333333333,0.325333333333333,-0.548833333333333,621.4175,1,1,1,1
24-May-2018 14:43:39,129.2,0.0908714285714286,-0.882571428571428,-0.389657142857143,0.57,-0.6255,0.275333333333333,0.201,0,0,0,0,0,0,0,-0.896375,-0.0923375,0.5811875,-0.517142857142857,-0.884285714285714,-0.257142857142857,4.011,0.25938,-0.9413,0.26292,0.74725,0.419375,-0.25925,614.614,1,1,1,1
24-May-2018 14:43:39,129.2,0.0908714285714286,-0.882571428571428,-0.389657142857143,0.57,-0.6255,0.275333333333333,0.201,0,0,0,0,0,0,0,-0.896375,-0.0923375,0.5811875,-0.517142857142857,-0.884285714285714,-0.257142857142857,4.011,0.25938,-0.9413,0.26292,0.74725,0.419375,-0.25925,614.614,1,1,1,1
24-May-2018 14:43:39,129.2,0.0908714285714286,-0.882571428571428,-0.389657142857143,0.57,-0.6255,0.275333333333333,0.201,0,0,0,0,0,0,0,-0.896375,-0.0923375,0.5811875,-0.517142857142857,-0.884285714285714,-0.257142857142857,4.011,0.25938,-0.9413,0.26292,0.74725,0.419375,-0.25925,614.614,1,1,1,1
24-May-2018 14:43:39,129.2,0.0908714285714286,-0.882571428571428,-0.389657142857143,0.57,-0.6255,0.275333333333333,0.201,0,0,0,0,0,0,0,-0.896375,-0.0923375,0.5811875,-0.517142857142857,-0.884285714285714,-0.257142857142857,4.011,0.25938,-0.9413,0.26292,0.74725,0.419375,-0.25925,614.614,1,1,1,1
24-May-2018 14:43:40,-74.1,0.0908714285714286,-0.882571428571428,-0.389657142857143,0.57,-0.6255,0.275333333333333,0.201,0,0,0,0,0,0,0,-0.89595,-0.09255,0.58105,-0.563333333333333,-0.9,-0.17,3.999,0.261633333333333,-0.9394,0.265433333333333,0.721666666666667,0.447333333333333,-0.101666666666667,614.508,1,1,1,0
24-May-2018 14:43:40,-74.1,0.0908714285714286,-0.882571428571428,-0.389657142857143,0.57,-0.6255,0.275333333333333,0.201,0,0,0,0,0,0,0,-0.89595,-0.09255,0.58105,-0.563333333333333,-0.9,-0.17,3.999,0.261633333333333,-0.9394,0.265433333333333,0.721666666666667,0.447333333333333,-0.101666666666667,614.508,1,1,1,0
24-May-2018 14:43:40,-74.1,0.0908714285714286,-0.882571428571428,-0.389657142857143,0.57,-0.6255,0.275333333333333,0.201,0,0,0,0,0,0,0,-0.89595,-0.09255,0.58105,-0.563333333333333,-0.9,-0.17,3.999,0.261633333333333,-0.9394,0.265433333333333,0.721666666666667,0.447333333333333,-0.101666666666667,614.508,1,1,1,0
24-May-2018 14:43:40,-74.1,0.0908714285714286,-0.882571428571428,-0.389657142857143,0.57,-0.6255,0.275333333333333,0.201,0,0,0,0,0,0,0,-0.89595,-0.09255,0.58105,-0.563333333333333,-0.9,-0.17,3.999,0.261633333333333,-0.9394,0.265433333333333,0.721666666666667,0.447333333333333,-0.101666666666667,614.508,1,1,1,0
24-May-2018 14:43:41,-179.545454545455,0.0908714285714286,-0.882571428571428,-0.389657142857143,0.57,-0.6255,0.275333333333333,0.201,0,0,0,0,0,0,0,-0.8960375,-0.0920625,0.5816,-0.554,-0.85,-0.204,4.002,0.263528571428571,-0.946785714285714,0.247528571428571,-0.818857142857143,0.444428571428571,-0.348285714285714,610.222333333333,1,1,1,0
24-May-2018 14:43:41,-179.545454545455,0.0908714285714286,-0.882571428571428,-0.389657142857143,0.57,-0.6255,0.275333333333333,0.201,0,0,0,0,0,0,0,-0.8960375,-0.0920625,0.5816,-0.554,-0.85,-0.204,4.002,0.263528571428571,-0.946785714285714,0.247528571428571,-0.818857142857143,0.444428571428571,-0.348285714285714,610.222333333333,1,1,1,0
24-May-2018 14:43:41,-179.545454545455,0.0908714285714286,-0.882571428571428,-0.389657142857143,0.57,-0.6255,0.275333333333333,0.201,0,0,0,0,0,0,0,-0.8960375,-0.0920625,0.5816,-0.554,-0.85,-0.204,4.002,0.263528571428571,-0.946785714285714,0.247528571428571,-0.818857142857143,0.444428571428571,-0.348285714285714,610.222333333333,1,1,1,0
24-May-2018 14:43:41,-179.545454545455,0.0908714285714286,-0.882571428571428,-0.389657142857143,0.57,-0.6255,0.275333333333333,0.201,0,0,0,0,0,0,0,-0.8960375,-0.0920625,0.5816,-0.554,-0.85,-0.204,4.002,0.263528571428571,-0.946785714285714,0.247528571428571,-0.818857142857143,0.444428571428571,-0.348285714285714,610.222333333333,1,1,1,0
24-May-2018 14:43:42,-394.8,0.0908714285714286,-0.882571428571428,-0.389657142857143,0.57,-0.6255,0.275333333333333,0.201,0,0,0,0,0,0,0,-0.8961,-0.0922428571428571,0.581728571428571,-0.491666666666667,-0.89,-0.28,3.987,0.264525,-0.9465,0.245775,0.845142857142857,0.470571428571429,-0.244,605.295,1,1,0,0
24-May-2018 14:43:42,-394.8,0.0908714285714286,-0.882571428571428,-0.389657142857143,0.57,-0.6255,0.275333333333333,0.201,0,0,0,0,0,0,0,-0.8961,-0.0922428571428571,0.581728571428571,-0.491666666666667,-0.89,-0.28,3.987,0.264525,-0.9465,0.245775,0.845142857142857,0.470571428571429,-0.244,605.295,1,1,0,0
24-May-2018 14:43:42,-394.8,0.0908714285714286,-0.882571428571428,-0.389657142857143,0.57,-0.6255,0.275333333333333,0.201,0,0,0,0,0,0,0,-0.8961,-0.0922428571428571,0.581728571428571,-0.491666666666667,-0.89,-0.28,3.987,0.264525,-0.9465,0.245775,0.845142857142857,0.470571428571429,-0.244,605.295,1,1,0,0
24-May-2018 14:43:42,-394.8,0.0908714285714286,-0.882571428571428,-0.389657142857143,0.57,-0.6255,0.275333333333333,0.201,0,0,0,0,0,0,0,-0.8961,-0.0922428571428571,0.581728571428571,-0.491666666666667,-0.89,-0.28,3.987,0.264525,-0.9465,0.245775,0.845142857142857,0.470571428571429,-0.244,605.295,1,1,0,0
24-May-2018 14:43:43,-305.1,0.0908714285714286,-0.882571428571428,-0.389657142857143,0.57,-0.6255,0.275333333333333,0.201,0,0,0,0,0,0,0,-0.896733333333333,-0.0919166666666667,0.581566666666667,-0.514285714285714,-0.935714285714286,-0.205714285714286,3.987,0.264175,-0.945425,0.2455375,0.437166666666667,0.3965,-0.223666666666667,607.330333333333,1,1,0.5,0
24-May-2018 14:43:43,-305.1,0.0908714285714286,-0.882571428571428,-0.389657142857143,0.57,-0.6255,0.275333333333333,0.201,0,0,0,0,0,0,0,-0.896733333333333,-0.0919166666666667,0.581566666666667,-0.514285714285714,-0.935714285714286,-0.205714285714286,3.987,0.264175,-0.945425,0.2455375,0.437166666666667,0.3965,-0.223666666666667,607.330333333333,1,1,0.5,0
24-May-2018 14:43:43,-305.1,0.0908714285714286,-0.882571428571428,-0.389657142857143,0.57,-0.6255,0.275333333333333,0.201,0,0,0,0,0,0,0,-0.896733333333333,-0.0919166666666667,0.581566666666667,-0.514285714285714,-0.935714285714286,-0.205714285714286,3.987,0.264175,-0.945425,0.2455375,0.437166666666667,0.3965,-0.223666666666667,607.330333333333,1,1,0.5,0
24-May-2018 14:43:43,-305.1,0.0908714285714286,-0.882571428571428,-0.389657142857143,0.57,-0.6255,0.275333333333333,0.201,0,0,0,0,0,0,0,-0.896733333333333,-0.0919166666666667,0.581566666666667,-0.514285714285714,-0.935714285714286,-0.205714285714286,3.987,0.264175,-0.945425,0.2455375,0.437166666666667,0.3965,-0.223666666666667,607.330333333333,1,1,0.5,0
24-May-2018 14:43:44,116.111111111111,0.0908714285714286,-0.882571428571428,-0.389657142857143,0.57,-0.6255,0.275333333333333,0.201,0,0,0,0,0,0,0,-0.8956,-0.0917333333333333,0.58215,-0.554,-0.934,-0.216,3.987,0.265633333333333,-0.94565,0.242733333333333,0.383428571428571,0.418285714285714,-0.191714285714286,606.1084,1,1,1,0
24-May-2018 14:43:44,116.111111111111,0.0908714285714286,-0.882571428571428,-0.389657142857143,0.57,-0.6255,0.275333333333333,0.201,0,0,0,0,0,0,0,-0.8956,-0.0917333333333333,0.58215,-0.554,-0.934,-0.216,3.987,0.265633333333333,-0.94565,0.242733333333333,0.383428571428571,0.418285714285714,-0.191714285714286,606.1084,1,1,1,0
24-May-2018 14:43:44,116.111111111111,0.0908714285714286,-0.882571428571428,-0.389657142857143,0.57,-0.6255,0.275333333333333,0.201,0,0,0,0,0,0,0,-0.8956,-0.0917333333333333,0.58215,-0.554,-0.934,-0.216,3.987,0.265633333333333,-0.94565,0.242733333333333,0.383428571428571,0.418285714285714,-0.191714285714286,606.1084,1,1,1,0
24-May-2018 14:43:44,116.111111111111,0.0908714285714286,-0.882571428571428,-0.389657142857143,0.57,-0.6255,0.275333333333333,0.201,0,0,0,0,0,0,0,-0.8956,-0.0917333333333333,0.58215,-0.554,-0.934,-0.216,3.987,0.265633333333333,-0.94565,0.242733333333333,0.383428571428571,0.418285714285714,-0.191714285714286,606.1084,1,1,1,0
24-May-2018 14:43:45,95.9090909090909,0.0908714285714286,-0.882571428571428,-0.389657142857143,0.57,-0.6255,0.275333333333333,0.201,0,0,0,0,0,0,0,-0.896028571428572,-0.0915142857142857,0.581828571428571,-0.56,-0.9025,-0.2175,4.017,0.266457142857143,-0.945642857142857,0.243,1.04683333333333,0.315166666666667,-0.315,604.619,1,1,1,0
24-May-2018 14:43:45,95.9090909090909,0.0908714285714286,-0.882571428571428,-0.389657142857143,0.57,-0.6255,0.275333333333333,0.201,0,0,0,0,0,0,0,-0.896028571428572,-0.0915142857142857,0.581828571428571,-0.56,-0.9025,-0.2175,4.017,0.266457142857143,-0.945642857142857,0.243,1.04683333333333,0.315166666666667,-0.315,604.619,1,1,1,0
24-May-2018 14:43:45,95.9090909090909,0.0908714285714286,-0.882571428571428,-0.389657142857143,0.57,-0.6255,0.275333333333333,0.201,0,0,0,0,0,0,0,-0.896028571428572,-0.0915142857142857,0.581828571428571,-0.56,-0.9025,-0.2175,4.017,0.266457142857143,-0.945642857142857,0.243,1.04683333333333,0.315166666666667,-0.315,604.619,1,1,1,0
24-May-2018 14:43:45,95.9090909090909,0.0908714285714286,-0.882571428571428,-0.389657142857143,0.57,-0.6255,0.275333333333333,0.201,0,0,0,0,0,0,0,-0.896028571428572,-0.0915142857142857,0.581828571428571,-0.56,-0.9025,-0.2175,4.017,0.266457142857143,-0.945642857142857,0.243,1.04683333333333,0.315166666666667,-0.315,604.619,1,1,1,0
