TIME,HELMET_RAW,BELT_ACC_X,BELT_ACC_Y,BELT_ACC_Z,BELT_ANG_X,BELT_ANG_Y,BELT_ANG_Z,BELT_LUMINOSITY,NECK_ACC_X,NECK_ACC_Y,NECK_ACC_Z,NECK_ANG_X,NECK_ANG_Y,NECK_ANG_Z,NECK_LUMINOSITY,PCKT_ACC_X,PCKT_ACC_Y,PCKT_ACC_Z,PCKT_ANG_X,PCKT_ANG_Y,PCKT_ANG_Z,PCKT_LUMINOSITY,WRST_ACC_X,WRST_ACC_Y,WRST_ACC_Z,WRST_ANG_X,WRST_ANG_Y,WRST_ANG_Z,WRST_LUMINOSITY,IR_1,IR_2,IR_3,IR_4
24-May-2018 14:43:56,51.8888888888889,0.0908714285714286,-0.882571428571428,-0.389657142857143,0.57,-0.6255,0.275333333333333,0.201,0,0,0,0,0,0,0,-0.8957375,-0.0913875,0.58135,-0.532857142857143,-0.858571428571429,-0.257142857142857,3.987,0.28352,-0.93772,0.25522,0.879857142857143,0.688428571428571,0.061,604.1675,1,1,0,0
24-May-2018 14:43:56,51.8888888888889,0.0908714285714286,-0.882571428571428,-0.389657142857143,0.57,-0.6255,0.275333333333333,0.201,0,0,0,0,0,0,0,-0.8957375,-0.0913875,0.58135,-0.532857142857143,-0.858571428571429,-0.257142857142857,3.987,0.28352,-0.93772,0.25522,0.879857142857143,0.688428571428571,0.061,604.1675,1,1,0,0
24-May-2018 14:43:56,51.8888888888889,0.0908714285714286,-0.882571428571428,-0.389657142857143,0.57,-0.6255,0.275333333333333,0.201,0,0,0,0,0,0,0,-0.8957375,-0.0913875,0.58135,-0.532857142857143,-0.858571428571429,-0.257142857142857,3.987,0.28352,-0.93772,0.25522,0.879857142857143,0.688428571428571,0.061,604.1675,1,1,0,0
24-May-2018 14:43:56,51.8888888888889,0.0908714285714286,-0.882571428571428,-0.389657142857143,0.57,-0.6255,0.275333333333333,0.201,0,0,0,0,0,0,0,-0.8957375,-0.0913875,0.58135,-0.532857142857143,-0.858571428571429,-0.257142857142857,3.987,0.28352,-0.93772,0.25522,0.879857142857143,0.688428571428571,0.061,604.1675,1,1,0,0
24-May-2018 14:43:57,51.5,0.0908714285714286,-0.882571428571428,-0.389657142857143,0.57,-0.6255,0.275333333333333,0.201,0,0,0,0,0,0,0,-0.896085714285714,-0.0916714285714286,0.581414285714286,-0.675714285714286,-0.935714285714286,-0.110428571428571,3.997,0.281257142857143,-0.938428571428571,0.254357142857143,0.548857142857143,0.592571428571429,-0.0871428571428571,607.251,1,1,1,0
24-May-2018 14:43:57,51.5,0.0908714285714286,-0.882571428571428,-0.389657142857143,0.57,-0.6255,0.275333333333333,0.201,0,0,0,0,0,0,0,-0.896085714285714,-0.0916714285714286,0.581414285714286,-0.675714285714286,-0.935714285714286,-0.110428571428571,3.997,0.281257142857143,-0.938428571428571,0.254357142857143,0.548857142857143,0.592571428571429,-0.0871428571428571,607.251,1,1,1,0
24-May-2018 14:43:57,51.5,0.0908714285714286,-0.882571428571428,-0.389657142857143,0.57,-0.6255,0.275333333333333,0.201,0,0,0,0,0,0,0,-0.896085714285714,-0.0916714285714286,0.581414285714286,-0.675714285714286,-0.935714285714286,-0.110428571428571,3.997,0.281257142857143,-0.938428571428571,0.254357142857143,0.548857142857143,0.592571428571429,-0.0871428571428571,607.251,1,1,1,0
24-May-2018 14:43:57,51.5,0.0908714285714286,-0.882571428571428,-0.389657142857143,0.57,-0.6255,0.275333333333333,0.201,0,0,0,0,0,0,0,-0.896085714285714,-0.0916714285714286,0.581414285714286,-0.675714285714286,-0.935714285714286,-0.110428571428571,3.997,0.281257142857143,-0.938428571428571,0.254357142857143,0.548857142857143,0.592571428571429,-0.0871428571428571,607.251,1,1,1,0
24-May-2018 14:43:58,51.4444444444444,0.0908714285714286,-0.882571428571428,-0.389657142857143,0.57,-0.6255,0.275333333333333,0.201,0,0,0,0,0,0,0,-0.892716666666666,-0.06185,0.58885,1.0254,-1.996,1.6954,3.999,0.2796,-0.93785,0.258433333333333,0.962,0.548888888888889,0.0744444444444445,607.252666666667,1,1,1,0
24-May-2018 14:43:58,51.4444444444444,0.0908714285714286,-0.882571428571428,-0.389657142857143,0.57,-0.6255,0.275333333333333,0.201,0,0,0,0,0,0,0,-0.892716666666666,-0.06185,0.58885,1.0254,-1.996,1.6954,3.999,0.2796,-0.93785,0.258433333333333,0.962,0.548888888888889,0.0744444444444445,607.252666666667,1,1,1,0
24-May-2018 14:43:58,51.4444444444444,0.0908714285714286,-0.882571428571428,-0.389657142857143,0.57,-0.6255,0.275333333333333,0.201,0,0,0,0,0,0,0,-0.892716666666666,-0.06185,0.58885,1.0254,-1.996,1.6954,3.999,0.2796,-0.93785,0.258433333333333,0.962,0.548888888888889,0.0744444444444445,607.252666666667,1,1,1,0
24-May-2018 14:43:58,51.4444444444444,0.0908714285714286,-0.882571428571428,-0.389657142857143,0.57,-0.6255,0.275333333333333,0.201,0,0,0,0,0,0,0,-0.892716666666666,-0.06185,0.58885,1.0254,-1.996,1.6954,3.999,0.2796,-0.93785,0.258433333333333,0.962,0.548888888888889,0.0744444444444445,607.252666666667,1,1,1,0
24-May-2018 14:43:59,51.1666666666667,0.0908714285714286,-0.882571428571428,-0.389657142857143,0.57,-0.6255,0.275333333333333,0.201,0,0,0,0,0,0,0,-0.899316666666667,-0.127,0.555516666666667,-28.2685714285714,8.28457142857143,-36.5828571428571,4.005,0.279825,-0.9363625,0.2649,0.3904,0.3294,-0.2562,610.986,1,1,1,1
24-May-2018 14:43:59,51.1666666666667,0.0908714285714286,-0.882571428571428,-0.389657142857143,0.57,-0.6255,0.275333333333333,0.201,0,0,0,0,0,0,0,-0.899316666666667,-0.127,0.555516666666667,-28.2685714285714,8.28457142857143,-36.5828571428571,4.005,0.279825,-0.9363625,0.2649,0.3904,0.3294,-0.2562,610.986,1,1,1,1
24-May-2018 14:43:59,51.1666666666667,0.0908714285714286,-0.882571428571428,-0.389657142857143,0.57,-0.6255,0.275333333333333,0.201,0,0,0,0,0,0,0,-0.899316666666667,-0.127,0.555516666666667,-28.2685714285714,8.28457142857143,-36.5828571428571,4.005,0.279825,-0.9363625,0.2649,0.3904,0.3294,-0.2562,610.986,1,1,1,1
24-May-2018 14:43:59,51.1666666666667,0.0908714285714286,-0.882571428571428,-0.389657142857143,0.57,-0.6255,0.275333333333333,0.201,0,0,0,0,0,0,0,-0.899316666666667,-0.127,0.555516666666667,-28.2685714285714,8.28457142857143,-36.5828571428571,4.005,0.279825,-0.9363625,0.2649,0.3904,0.3294,-0.2562,610.986,1,1,1,1
24-May-2018 14:44:00,51.4,0.0908714285714286,-0.882571428571428,-0.389657142857143,0.57,-0.6255,0.275333333333333,0.201,0,0,0,0,0,0,0,-0.630025,-0.8811625,0.2860875,-41.805,-35.1,-19.53,3.436,0.2792,-0.9389,0.257485714285714,0.583714285714286,0.583857142857143,-0.278857142857143,609.684,1,1,1,1
24-May-2018 14:44:00,51.4,0.0908714285714286,-0.882571428571428,-0.389657142857143,0.57,-0.6255,0.275333333333333,0.201,0,0,0,0,0,0,0,-0.630025,-0.8811625,0.2860875,-41.805,-35.1,-19.53,3.436,0.2792,-0.9389,0.257485714285714,0.583714285714286,0.583857142857143,-0.278857142857143,609.684,1,1,1,1
24-May-2018 14:44:00,51.4,0.0908714285714286,-0.882571428571428,-0.389657142857143,0.57,-0.6255,0.275333333333333,0.201,0,0,0,0,0,0,0,-0.630025,-0.8811625,0.2860875,-41.805,-35.1,-19.53,3.436,0.2792,-0.9389,0.257485714285714,0.583714285714286,0.583857142857143,-0.278857142857143,609.684,1,1,1,1
24-May-2018 14:44:00,51.4,0.0908714285714286,-0.882571428571428,-0.389657142857143,0.57,-0.6255,0.275333333333333,0.201,0,0,0,0,0,0,0,-0.630025,-0.8811625,0.2860875,-41.805,-35.1,-19.53,3.436,0.2792,-0.9389,0.257485714285714,0.583714285714286,0.583857142857143,-0.278857142857143,609.684,1,1,1,1
24-May-2018 14:44:01,51.3333333333333,0.0908714285714286,-0.882571428571428,-0.389657142857143,0.57,-0.6255,0.275333333333333,0.201,0,0,0,0,0,0,0,-0.3387,-0.93935,-0.135366666666667,-22.0121428571429,-4.708,-2.33928571428571,1.339,0.279083333333333,-0.9375,0.261316666666667,0.721666666666667,0.427,-0.203333333333333,609.9696,1,1,1,1
24-May-2018 14:44:01,51.3333333333333,0.0908714285714286,-0.882571428571428,-0.389657142857143,0.57,-0.6255,0.275333333333333,0.201,0,0,0,0,0,0,0,-0.3387,-0.93935,-0.135366666666667,-22.0121428571429,-4.708,-2.33928571428571,1.339,0.279083333333333,-0.9375,0.261316666666667,0.721666666666667,0.427,-0.203333333333333,609.9696,1,1,1,1
24-May-2018 14:44:01,51.3333333333333,0.0908714285714286,-0.882571428571428,-0.389657142857143,0.57,-0.6255,0.275333333333333,0.201,0,0,0,0,0,0,0,-0.3387,-0.93935,-0.135366666666667,-22.0121428571429,-4.708,-2.33928571428571,1.339,0.279083333333333,-0.9375,0.261316666666667,0.721666666666667,0.427,-0.203333333333333,609.9696,1,1,1,1
24-May-2018 14:44:01,51.3333333333333,0.0908714285714286,-0.882571428571428,-0.389657142857143,0.57,-0.6255,0.275333333333333,0.201,0,0,0,0,0,0,0,-0.3387,-0.93935,-0.135366666666667,-22.0121428571429,-4.708,-2.33928571428571,1.339,0.279083333333333,-0.9375,0.261316666666667,0.721666666666667,0.427,-0.203333333333333,609.9696,1,1,1,1
24-May-2018 14:44:02,51.8,0.0908714285714286,-0.882571428571428,-0.389657142857143,0.57,-0.6255,0.275333333333333,0.201,0,0,0,0,0,0,0,-0.379533333333333,-0.920283333333333,0.12935,27.8433333333333,-26.4,12.2333333333333,0.673333333333333,0.27898,-0.9365,0.26208,0.3904,0.427,-0.0488,609.9696,1,1,1,1
24-May-2018 14:44:02,51.8,0.0908714285714286,-0.882571428571428,-0.389657142857143,0.57,-0.6255,0.275333333333333,0.201,0,0,0,0,0,0,0,-0.379533333333333,-0.920283333333333,0.12935,27.8433333333333,-26.4,12.2333333333333,0.673333333333333,0.27898,-0.9365,0.26208,0.3904,0.427,-0.0488,609.9696,1,1,1,1
24-May-2018 14:44:02,51.8,0.0908714285714286,-0.882571428571428,-0.389657142857143,0.57,-0.6255,0.275333333333333,0.201,0,0,0,0,0,0,0,-0.379533333333333,-0.920283333333333,0.12935,27.8433333333333,-26.4,12.2333333333333,0.673333333333333,0.27898,-0.9365,0.26208,0.3904,0.427,-0.0488,609.9696,1,1,1,1
24-May-2018 14:44:02,51.8,0.0908714285714286,-0.882571428571428,-0.389657142857143,0.57,-0.6255,0.275333333333333,0.201,0,0,0,0,0,0,0,-0.379533333333333,-0.920283333333333,0.12935,27.8433333333333,-26.4,12.2333333333333,0.673333333333333,0.27898,-0.9365,0.26208,0.3904,0.427,-0.0488,0,1,1,1,1
24-May-2018 14:44:03,51.5,0.0908714285714286,-0.882571428571428,-0.389657142857143,0.57,-0.6255,0.275333333333333,0.201,0,0,0,0,0,0,0,-0.337,-0.9072,0.29,4.268,-17.9,-2.68,0.673333333333333,0.27898,-0.9365,0.26208,-0.183,0.427,-0.549,608.753,1,1,1,1
24-May-2018 14:44:03,51.5,0.0908714285714286,-0.882571428571428,-0.389657142857143,0.57,-0.6255,0.275333333333333,0.201,0,0,0,0,0,0,0,-0.337,-0.9072,0.29,4.268,-17.9,-2.68,0.673333333333333,0.27898,-0.9365,0.26208,-0.183,0.427,-0.549,608.753,1,1,1,1
24-May-2018 14:44:03,51.5,0.0908714285714286,-0.882571428571428,-0.389657142857143,0.57,-0.6255,0.275333333333333,0.201,0,0,0,0,0,0,0,-0.337,-0.9072,0.29,4.268,-17.9,-2.68,0.673333333333333,0.27898,-0.9365,0.26208,-0.183,0.427,-0.549,608.753,1,1,1,1
24-May-2018 14:44:03,51.5,0.0908714285714286,-0.882571428571428,-0.389657142857143,0.57,-0.6255,0.275333333333333,0.201,0,0,0,0,0,0,0,-0.337,-0.9072,0.29,4.268,-17.9,-2.68,0,0,0,0,-0.183,0,-0.549,608.753,1,1,1,1
24-May-2018 14:44:04,51.1428571428571,0.0908714285714286,-0.882571428571428,-0.389657142857143,0.57,-0.6255,0.275333333333333,0.201,0,0,0,0,0,0,0,-0.383433333333333,-0.934416666666667,0.259383333333333,-27.1052857142857,-20.3585714285714,2.72971428571429,0.912,0.279,-0.938842857142857,0.2575,0.575142857142857,0.383428571428571,-0.113285714285714,608.191666666667,1,1,1,0
24-May-2018 14:44:04,51.1428571428571,0.0908714285714286,-0.882571428571428,-0.389657142857143,0.57,-0.6255,0.275333333333333,0.201,0,0,0,0,0,0,0,-0.383433333333333,-0.934416666666667,0.259383333333333,-27.1052857142857,-20.3585714285714,2.72971428571429,0.912,0.279,-0.938842857142857,0.2575,0.575142857142857,0.383428571428571,-0.113285714285714,608.191666666667,1,1,1,0
24-May-2018 14:44:04,51.1428571428571,0.0908714285714286,-0.882571428571428,-0.389657142857143,0.57,-0.6255,0.275333333333333,0.201,0,0,0,0,0,0,0,-0.383433333333333,-0.934416666666667,0.259383333333333,-27.1052857142857,-20.3585714285714,2.72971428571429,0.912,0.279,-0.938842857142857,0.2575,0.575142857142857,0.383428571428571,-0.113285714285714,608.191666666667,1,1,1,0
24-May-2018 14:44:04,51.1428571428571,0.0908714285714286,-0.882571428571428,-0.389657142857143,0.57,-0.6255,0.275333333333333,0.201,0,0,0,0,0,0,0,-0.383433333333333,-0.934416666666667,0.259383333333333,-27.1052857142857,-20.3585714285714,2.72971428571429,0.912,0.279,-0.938842857142857,0.2575,0.575142857142857,0.383428571428571,-0.113285714285714,608.191666666667,1,1,1,0
24-May-2018 14:44:05,51.3,0.0908714285714286,-0.882571428571428,-0.389657142857143,0.57,-0.6255,0.275333333333333,0.201,0,0,0,0,0,0,0,-0.316,-0.986371428571429,0.0295428571428571,6.52011111111111,-21.4277777777778,-1.57888888888889,0.7015,0.27884,-0.93716,0.25998,0.923571428571429,0.514142857142857,-0.0174285714285714,608.904333333333,0,1,0,0
24-May-2018 14:44:05,51.3,0.0908714285714286,-0.882571428571428,-0.389657142857143,0.57,-0.6255,0.275333333333333,0.201,0,0,0,0,0,0,0,-0.316,-0.986371428571429,0.0295428571428571,6.52011111111111,-21.4277777777778,-1.57888888888889,0.7015,0.27884,-0.93716,0.25998,0.923571428571429,0.514142857142857,-0.0174285714285714,608.904333333333,0,1,0,0
24-May-2018 14:44:05,51.3,0.0908714285714286,-0.882571428571428,-0.389657142857143,0.57,-0.6255,0.275333333333333,0.201,0,0,0,0,0,0,0,-0.316,-0.986371428571429,0.0295428571428571,6.52011111111111,-21.4277777777778,-1.57888888888889,0.7015,0.27884,-0.93716,0.25998,0.923571428571429,0.514142857142857,-0.0174285714285714,608.904333333333,0,1,0,0
24-May-2018 14:44:05,51.3,0.0908714285714286,-0.882571428571428,-0.389657142857143,0.57,-0.6255,0.275333333333333,0.201,0,0,0,0,0,0,0,-0.316,-0.986371428571429,0.0295428571428571,6.52011111111111,-21.4277777777778,-1.57888888888889,0.7015,0.27884,-0.93716,0.25998,0.923571428571429,0.514142857142857,-0.0174285714285714,608.904333333333,0,1,0,0
