TIME,HELMET_RAW,BELT_ACC_X,BELT_ACC_Y,BELT_ACC_Z,BELT_ANG_X,BELT_ANG_Y,BELT_ANG_Z,BELT_LUMINOSITY,NECK_ACC_X,NECK_ACC_Y,NECK_ACC_Z,NECK_ANG_X,NECK_ANG_Y,NECK_ANG_Z,NECK_LUMINOSITY,PCKT_ACC_X,PCKT_ACC_Y,PCKT_ACC_Z,PCKT_ANG_X,PCKT_ANG_Y,PCKT_ANG_Z,PCKT_LUMINOSITY,WRST_ACC_X,WRST_ACC_Y,WRST_ACC_Z,WRST_ANG_X,WRST_ANG_Y,WRST_ANG_Z,WRST_LUMINOSITY,IR_1,IR_2,IR_3,IR_4
24-May-2018 14:15:49,70.9,0.753728571428572,-0.1165,0.634228571428571,0.742166666666667,0.142333333333333,0.376166666666667,552.875,0,0,0,0,0,0,0,0.287533333333333,0.3222,-0.817083333333333,-0.41375,-1.03125,-0.19475,0.044,-0.41335,0.02555,0.903,0.8906,0.5002,-0.2196,902.506,1,1,1,1
24-May-2018 14:15:49,70.9,0.753728571428572,-0.1165,0.634228571428571,0.742166666666667,0.142333333333333,0.376166666666667,552.875,0,0,0,0,0,0,0,0.287533333333333,0.3222,-0.817083333333333,-0.41375,-1.03125,-0.19475,0.044,-0.41335,0.02555,0.903,0.8906,0.5002,-0.2196,902.506,1,1,1,1
24-May-2018 14:15:49,70.9,0.753728571428572,-0.1165,0.634228571428571,0.742166666666667,0.142333333333333,0.376166666666667,552.875,0,0,0,0,0,0,0,0.287533333333333,0.3222,-0.817083333333333,-0.41375,-1.03125,-0.19475,0.044,-0.41335,0.02555,0.903,0.8906,0.5002,-0.2196,902.506,1,1,1,1
24-May-2018 14:15:49,70.9,0.753728571428572,-0.1165,0.634228571428571,0.742166666666667,0.142333333333333,0.376166666666667,552.875,0,0,0,0,0,0,0,0.287533333333333,0.3222,-0.817083333333333,-0.41375,-1.03125,-0.19475,0.044,-0.41335,0.02555,0.903,0.8906,0.5002,-0.2196,902.506,1,1,1,1
24-May-2018 14:15:50,-97.8181818181818,0.752883333333333,-0.116633333333333,0.634833333333333,0.660833333333333,0.1525,0.376166666666667,552.8348,0,0,0,0,0,0,0,0.284985714285714,0.322028571428571,-0.817857142857143,-0.635,-0.94,-0.23,0.044,-0.41705,0.024175,0.90295,0.671,0.427,-0.549,902.636,1,1,1,1
24-May-2018 14:15:50,-97.8181818181818,0.752883333333333,-0.116633333333333,0.634833333333333,0.660833333333333,0.1525,0.376166666666667,552.8348,0,0,0,0,0,0,0,0.284985714285714,0.322028571428571,-0.817857142857143,-0.635,-0.94,-0.23,0.044,-0.41705,0.024175,0.90295,0.671,0.427,-0.549,902.636,1,1,1,1
24-May-2018 14:15:50,-97.8181818181818,0.752883333333333,-0.116633333333333,0.634833333333333,0.660833333333333,0.1525,0.376166666666667,552.8348,0,0,0,0,0,0,0,0.284985714285714,0.322028571428571,-0.817857142857143,-0.635,-0.94,-0.23,0.044,-0.41705,0.024175,0.90295,0.671,0.427,-0.549,902.636,1,1,1,1
24-May-2018 14:15:50,-97.8181818181818,0.752883333333333,-0.116633333333333,0.634833333333333,0.660833333333333,0.1525,0.376166666666667,552.8348,0,0,0,0,0,0,0,0.284985714285714,0.322028571428571,-0.817857142857143,-0.635,-0.94,-0.23,0.044,-0.41705,0.024175,0.90295,0.671,0.427,-0.549,902.636,1,1,1,1
24-May-2018 14:15:51,47.1818181818182,0.752325,-0.116375,0.63545,0.61,0.0613333333333333,0.3355,553.196142857143,0,0,0,0,0,0,0,0.2853,0.32265,-0.817825,-0.447142857142857,-0.85,-0.137142857142857,0.044,-0.412771428571428,0.0239571428571429,0.901957142857143,0.518333333333333,0.498166666666667,-0.0711666666666667,902.916,1,1,1,1
24-May-2018 14:15:51,47.1818181818182,0.752325,-0.116375,0.63545,0.61,0.0613333333333333,0.3355,553.196142857143,0,0,0,0,0,0,0,0.2853,0.32265,-0.817825,-0.447142857142857,-0.85,-0.137142857142857,0.044,-0.412771428571428,0.0239571428571429,0.901957142857143,0.518333333333333,0.498166666666667,-0.0711666666666667,902.916,1,1,1,1
24-May-2018 14:15:51,47.1818181818182,0.752325,-0.116375,0.63545,0.61,0.0613333333333333,0.3355,553.196142857143,0,0,0,0,0,0,0,0.2853,0.32265,-0.817825,-0.447142857142857,-0.85,-0.137142857142857,0.044,-0.412771428571428,0.0239571428571429,0.901957142857143,0.518333333333333,0.498166666666667,-0.0711666666666667,902.916,1,1,1,1
24-May-2018 14:15:51,47.1818181818182,0.752325,-0.116375,0.63545,0.61,0.0613333333333333,0.3355,553.196142857143,0,0,0,0,0,0,0,0.2853,0.32265,-0.817825,-0.447142857142857,-0.85,-0.137142857142857,0.044,-0.412771428571428,0.0239571428571429,0.901957142857143,0.518333333333333,0.498166666666667,-0.0711666666666667,902.916,1,1,1,1
24-May-2018 14:15:52,131.444444444444,0.751371428571429,-0.115742857142857,0.637914285714286,0.59475,0.03125,0.35075,553.391666666667,0,0,0,0,0,0,0,0.28586,0.32074,-0.8183,-0.46,-0.99,-0.18,0.044,-0.4131,0.0309,0.90215,1.1098,0.4026,-0.1952,902.475571428571,1,1,1,1
24-May-2018 14:15:52,131.444444444444,0.751371428571429,-0.115742857142857,0.637914285714286,0.59475,0.03125,0.35075,553.391666666667,0,0,0,0,0,0,0,0.28586,0.32074,-0.8183,-0.46,-0.99,-0.18,0.044,-0.4131,0.0309,0.90215,1.1098,0.4026,-0.1952,902.475571428571,1,1,1,1
24-May-2018 14:15:52,131.444444444444,0.751371428571429,-0.115742857142857,0.637914285714286,0.59475,0.03125,0.35075,553.391666666667,0,0,0,0,0,0,0,0.28586,0.32074,-0.8183,-0.46,-0.99,-0.18,0.044,-0.4131,0.0309,0.90215,1.1098,0.4026,-0.1952,902.475571428571,1,1,1,1
24-May-2018 14:15:52,131.444444444444,0.751371428571429,-0.115742857142857,0.637914285714286,0.59475,0.03125,0.35075,553.391666666667,0,0,0,0,0,0,0,0.28586,0.32074,-0.8183,-0.46,-0.99,-0.18,0.044,-0.4131,0.0309,0.90215,1.1098,0.4026,-0.1952,902.475571428571,1,1,1,1
24-May-2018 14:15:53,113.6,0.757166666666667,-0.112333333333333,0.632283333333333,0.985833333333333,-1.10333333333333,0.254666666666667,550.8635,0,0,0,0,0,0,0,0.284966666666667,0.319466666666667,-0.818233333333333,-0.597142857142857,-0.824285714285714,-0.214285714285714,0.044,-0.412525,0.0408375,0.9022875,1.2562,0.427,-0.2806,904.288,1,1,1,1
24-May-2018 14:15:53,113.6,0.757166666666667,-0.112333333333333,0.632283333333333,0.985833333333333,-1.10333333333333,0.254666666666667,550.8635,0,0,0,0,0,0,0,0.284966666666667,0.319466666666667,-0.818233333333333,-0.597142857142857,-0.824285714285714,-0.214285714285714,0.044,-0.412525,0.0408375,0.9022875,1.2562,0.427,-0.2806,904.288,1,1,1,1
24-May-2018 14:15:53,113.6,0.757166666666667,-0.112333333333333,0.632283333333333,0.985833333333333,-1.10333333333333,0.254666666666667,550.8635,0,0,0,0,0,0,0,0.284966666666667,0.319466666666667,-0.818233333333333,-0.597142857142857,-0.824285714285714,-0.214285714285714,0.044,-0.412525,0.0408375,0.9022875,1.2562,0.427,-0.2806,904.288,1,1,1,1
24-May-2018 14:15:53,113.6,0.757166666666667,-0.112333333333333,0.632283333333333,0.985833333333333,-1.10333333333333,0.254666666666667,550.8635,0,0,0,0,0,0,0,0.284966666666667,0.319466666666667,-0.818233333333333,-0.597142857142857,-0.824285714285714,-0.214285714285714,0.044,-0.412525,0.0408375,0.9022875,1.2562,0.427,-0.2806,904.288,1,1,1,1
24-May-2018 14:15:54,204.454545454545,0.7674,-0.111114285714286,0.618114285714286,0.854,0.00362500000000006,0.412,545.098333333333,0,0,0,0,0,0,0,0.285383333333333,0.318633333333333,-0.8182,-0.57,-0.882857142857143,-0.274285714285714,0.044,-0.4124,0.04074,0.90186,0.653571428571429,0.496714285714286,-0.113285714285714,903.0736,1,1,1,1
24-May-2018 14:15:54,204.454545454545,0.7674,-0.111114285714286,0.618114285714286,0.854,0.00362500000000006,0.412,545.098333333333,0,0,0,0,0,0,0,0.285383333333333,0.318633333333333,-0.8182,-0.57,-0.882857142857143,-0.274285714285714,0.044,-0.4124,0.04074,0.90186,0.653571428571429,0.496714285714286,-0.113285714285714,903.0736,1,1,1,1
24-May-2018 14:15:54,204.454545454545,0.7674,-0.111114285714286,0.618114285714286,0.854,0.00362500000000006,0.412,545.098333333333,0,0,0,0,0,0,0,0.285383333333333,0.318633333333333,-0.8182,-0.57,-0.882857142857143,-0.274285714285714,0.044,-0.4124,0.04074,0.90186,0.653571428571429,0.496714285714286,-0.113285714285714,903.0736,1,1,1,1
24-May-2018 14:15:54,204.454545454545,0.7674,-0.111114285714286,0.618114285714286,0.854,0.00362500000000006,0.412,545.098333333333,0,0,0,0,0,0,0,0.285383333333333,0.318633333333333,-0.8182,-0.57,-0.882857142857143,-0.274285714285714,0.044,-0.4124,0.04074,0.90186,0.653571428571429,0.496714285714286,-0.113285714285714,903.0736,1,1,1,1
24-May-2018 14:15:55,259.272727272727,0.764157142857143,-0.110528571428571,0.623171428571428,0.538833333333333,0.478166666666667,0.376166666666667,540.5365,0,0,0,0,0,0,0,0.28634,0.32044,-0.81752,-0.525166666666667,-1.02166666666667,-0.0991666666666667,0.044,-0.4127,0.0401428571428571,0.902228571428571,0.732,0.498166666666667,-0.142333333333333,899.63025,1,1,1,1
24-May-2018 14:15:55,259.272727272727,0.764157142857143,-0.110528571428571,0.623171428571428,0.538833333333333,0.478166666666667,0.376166666666667,540.5365,0,0,0,0,0,0,0,0.28634,0.32044,-0.81752,-0.525166666666667,-1.02166666666667,-0.0991666666666667,0.044,-0.4127,0.0401428571428571,0.902228571428571,0.732,0.498166666666667,-0.142333333333333,899.63025,1,1,1,1
24-May-2018 14:15:55,259.272727272727,0.764157142857143,-0.110528571428571,0.623171428571428,0.538833333333333,0.478166666666667,0.376166666666667,540.5365,0,0,0,0,0,0,0,0.28634,0.32044,-0.81752,-0.525166666666667,-1.02166666666667,-0.0991666666666667,0.044,-0.4127,0.0401428571428571,0.902228571428571,0.732,0.498166666666667,-0.142333333333333,899.63025,1,1,1,1
24-May-2018 14:15:55,259.272727272727,0.764157142857143,-0.110528571428571,0.623171428571428,0.538833333333333,0.478166666666667,0.376166666666667,540.5365,0,0,0,0,0,0,0,0.28634,0.32044,-0.81752,-0.525166666666667,-1.02166666666667,-0.0991666666666667,0.044,-0.4127,0.0401428571428571,0.902228571428571,0.732,0.498166666666667,-0.142333333333333,899.63025,1,1,1,1
24-May-2018 14:15:56,158.363636363636,0.760514285714286,-0.1117,0.627157142857143,0.644857142857143,0.0791428571428571,0.444428571428571,541.059333333333,0,0,0,0,0,0,0,0.285042857142857,0.318542857142857,-0.818342857142857,-0.626666666666667,-0.848333333333333,-0.27,0.044,-0.41275,0.040425,0.902225,0.630333333333333,0.498166666666667,-0.111833333333333,900.1932,1,1,1,1
24-May-2018 14:15:56,158.363636363636,0.760514285714286,-0.1117,0.627157142857143,0.644857142857143,0.0791428571428571,0.444428571428571,541.059333333333,0,0,0,0,0,0,0,0.285042857142857,0.318542857142857,-0.818342857142857,-0.626666666666667,-0.848333333333333,-0.27,0.044,-0.41275,0.040425,0.902225,0.630333333333333,0.498166666666667,-0.111833333333333,900.1932,1,1,1,1
24-May-2018 14:15:56,158.363636363636,0.760514285714286,-0.1117,0.627157142857143,0.644857142857143,0.0791428571428571,0.444428571428571,541.059333333333,0,0,0,0,0,0,0,0.285042857142857,0.318542857142857,-0.818342857142857,-0.626666666666667,-0.848333333333333,-0.27,0.044,-0.41275,0.040425,0.902225,0.630333333333333,0.498166666666667,-0.111833333333333,900.1932,1,1,1,1
24-May-2018 14:15:56,158.363636363636,0.760514285714286,-0.1117,0.627157142857143,0.644857142857143,0.0791428571428571,0.444428571428571,541.059333333333,0,0,0,0,0,0,0,0.285042857142857,0.318542857142857,-0.818342857142857,-0.626666666666667,-0.848333333333333,-0.27,0.044,-0.41275,0.040425,0.902225,0.630333333333333,0.498166666666667,-0.111833333333333,900.1932,1,1,1,1
24-May-2018 14:15:57,100.8,0.759925,-0.11215,0.6269875,0.632875,0.129625,0.358375,541.059333333333,0,0,0,0,0,0,0,0.28858,0.32232,-0.81594,-0.678333333333333,-0.838333333333333,-0.25,0.044,-0.41202,0.03972,0.90182,0.435714285714286,0.444428571428571,-0.209142857142857,900.0125,1,1,1,1
24-May-2018 14:15:57,100.8,0.759925,-0.11215,0.6269875,0.632875,0.129625,0.358375,541.059333333333,0,0,0,0,0,0,0,0.28858,0.32232,-0.81594,-0.678333333333333,-0.838333333333333,-0.25,0.044,-0.41202,0.03972,0.90182,0.435714285714286,0.444428571428571,-0.209142857142857,900.0125,1,1,1,1
24-May-2018 14:15:57,100.8,0.759925,-0.11215,0.6269875,0.632875,0.129625,0.358375,541.059333333333,0,0,0,0,0,0,0,0.28858,0.32232,-0.81594,-0.678333333333333,-0.838333333333333,-0.25,0.044,-0.41202,0.03972,0.90182,0.435714285714286,0.444428571428571,-0.209142857142857,900.0125,1,1,1,1
24-May-2018 14:15:57,100.8,0.759925,-0.11215,0.6269875,0.632875,0.129625,0.358375,541.059333333333,0,0,0,0,0,0,0,0.28858,0.32232,-0.81594,-0.678333333333333,-0.838333333333333,-0.25,0.044,-0.41202,0.03972,0.90182,0.435714285714286,0.444428571428571,-0.209142857142857,900.0125,1,1,1,1
24-May-2018 14:15:58,114.3,0.7602,-0.111628571428571,0.627642857142857,0.61,0.0511666666666667,0.366,541.059333333333,0,0,0,0,0,0,0,0.28784,0.32088,-0.8165,-0.645,-0.858333333333333,-0.21,0.044,-0.413233333333333,0.0358333333333333,0.903166666666667,0.4575,0.44225,-0.0305,898.6482,1,1,1,1
24-May-2018 14:15:58,114.3,0.7602,-0.111628571428571,0.627642857142857,0.61,0.0511666666666667,0.366,541.059333333333,0,0,0,0,0,0,0,0.28784,0.32088,-0.8165,-0.645,-0.858333333333333,-0.21,0.044,-0.413233333333333,0.0358333333333333,0.903166666666667,0.4575,0.44225,-0.0305,898.6482,1,1,1,1
24-May-2018 14:15:58,114.3,0.7602,-0.111628571428571,0.627642857142857,0.61,0.0511666666666667,0.366,0,0,0,0,0,0,0,0,0.28784,0.32088,-0.8165,-0.645,-0.858333333333333,-0.21,0.044,-0.413233333333333,0.0358333333333333,0.903166666666667,0.4575,0.44225,-0.0305,898.6482,1,1,1,1
24-May-2018 14:15:58,114.3,0.7602,-0.111628571428571,0.627642857142857,0.61,0.0511666666666667,0.366,0,0,0,0,0,0,0,0,0.28784,0.32088,-0.8165,-0.645,-0.858333333333333,-0.21,0.044,-0.413233333333333,0.0358333333333333,0.903166666666667,0.4575,0.44225,-0.0305,898.6482,1,1,1,1
